Iteration,IMUNo,OrientationX (deg),OrientationY,OrientationZ,GyroX (20rad/sec),GyroY,GyroZ,Elbow_Pos (rad),Time (sec)
13.00,0.00,274.31,0.00,-96.25,-0.44,-0.06,-0.06,-0.01,1.02
13.00,1.00,276.69,-6.69,-50.94,-0.56,-0.06,-0.12,-0.01,1.02
13.00,2.00,298.25,-21.25,21.12,-0.12,-0.06,0.00,-0.01,1.02
13.00,0.00,274.31,0.00,-96.25,-0.75,0.19,0.00,-0.03,1.04
13.00,1.00,276.69,-6.69,-50.94,-0.44,0.06,0.00,-0.03,1.04
13.00,2.00,298.25,-21.25,21.12,0.12,0.12,-0.12,-0.03,1.04
13.00,0.00,274.25,0.00,-96.25,-0.62,0.94,0.00,-0.05,1.06
13.00,1.00,276.69,-6.69,-50.94,-0.19,0.50,-0.06,-0.05,1.06
13.00,2.00,298.25,-21.25,21.12,-0.25,-0.25,0.00,-0.05,1.06
13.00,0.00,274.25,0.00,-96.25,-0.56,0.56,0.00,-0.06,1.08
13.00,1.00,276.69,-6.69,-50.94,-0.19,0.31,-0.31,-0.06,1.08
13.00,2.00,298.25,-21.25,21.12,-0.12,0.12,0.31,-0.06,1.08
13.00,0.00,274.25,0.00,-96.25,-0.25,0.19,0.12,-0.06,1.10
13.00,1.00,276.69,-6.69,-50.94,-0.38,-0.12,-0.25,-0.06,1.10
13.00,2.00,298.25,-21.25,21.12,-0.12,-0.06,0.25,-0.06,1.10
13.00,0.00,274.25,0.00,-96.25,-0.19,0.69,0.12,-0.06,1.12
13.00,1.00,276.69,-6.69,-50.94,-0.06,0.12,-0.38,-0.06,1.12
13.00,2.00,298.25,-21.25,21.12,-0.06,0.06,0.38,-0.06,1.12
13.00,0.00,274.25,0.00,-96.25,-0.12,0.44,0.12,-0.08,1.14
13.00,1.00,276.69,-6.69,-50.94,-0.06,0.12,-0.44,-0.08,1.14
13.00,2.00,298.25,-21.25,21.12,0.31,0.00,0.31,-0.08,1.14
13.00,0.00,274.25,0.00,-96.25,0.12,0.06,0.06,-0.09,1.16
13.00,1.00,276.69,-6.69,-50.94,0.06,0.00,-0.56,-0.09,1.16
13.00,2.00,298.25,-21.25,21.12,0.44,0.19,0.00,-0.09,1.16
13.00,0.00,274.25,0.00,-96.25,-0.19,-0.38,-0.12,-0.10,1.18
13.00,1.00,276.69,-6.69,-50.94,-0.12,0.00,-0.50,-0.10,1.18
13.00,2.00,298.25,-21.25,21.12,0.38,0.44,-0.12,-0.10,1.18
13.00,0.00,274.25,0.00,-96.25,-0.12,-0.69,0.00,-0.11,1.20
13.00,1.00,276.69,-6.69,-50.94,0.06,-0.12,-0.31,-0.11,1.20
13.00,2.00,298.25,-21.25,21.12,0.12,0.19,-0.12,-0.11,1.20
13.00,0.00,274.25,0.00,-96.25,-0.38,-0.50,-0.12,-0.12,1.22
13.00,1.00,276.69,-6.69,-50.94,-0.12,0.00,-0.50,-0.12,1.22
13.00,2.00,298.25,-21.25,21.12,-0.12,0.19,0.12,-0.12,1.22
13.00,0.00,274.25,0.00,-96.25,-0.44,-0.06,-0.12,-0.14,1.24
13.00,1.00,276.69,-6.69,-50.94,-0.12,-0.31,-0.44,-0.14,1.24
13.00,2.00,298.25,-21.25,21.12,0.31,-0.12,-0.12,-0.14,1.24
13.00,0.00,274.25,0.00,-96.25,-0.38,-0.12,0.00,-0.16,1.26
13.00,1.00,276.69,-6.69,-50.94,-0.12,-0.31,-0.38,-0.16,1.26
13.00,2.00,298.25,-21.25,21.12,0.44,0.00,-0.31,-0.16,1.26
13.00,0.00,274.25,0.00,-96.25,-0.38,-0.12,0.19,-0.18,1.28
13.00,1.00,276.69,-6.69,-50.94,-0.25,-0.12,-0.44,-0.18,1.28
13.00,2.00,298.25,-21.25,21.12,0.31,0.31,-0.31,-0.18,1.28
13.00,0.00,274.25,0.00,-96.25,-0.19,-0.69,0.25,-0.20,1.30
13.00,1.00,276.69,-6.69,-50.94,-0.06,-0.25,-0.50,-0.20,1.30
13.00,2.00,298.25,-21.25,21.12,0.38,0.19,-0.31,-0.20,1.30
13.00,0.00,274.31,0.00,-96.25,0.00,-0.75,0.00,-0.20,1.32
13.00,1.00,276.69,-6.69,-50.94,-0.25,-0.12,-0.56,-0.20,1.32
13.00,2.00,298.25,-21.25,21.12,0.06,0.19,-0.44,-0.20,1.32
13.00,0.00,274.31,0.00,-96.25,-0.38,-0.50,0.00,-0.21,1.34
13.00,1.00,276.69,-6.69,-50.94,-0.38,0.00,-0.25,-0.21,1.34
13.00,2.00,298.25,-21.25,21.12,-0.12,-0.06,-0.31,-0.21,1.34
13.00,0.00,274.31,0.00,-96.25,-0.69,0.00,-0.12,-0.22,1.36
13.00,1.00,276.69,-6.69,-50.94,-0.12,0.06,0.00,-0.22,1.36
13.00,2.00,298.25,-21.25,21.12,-0.31,-0.31,-0.12,-0.22,1.36
13.00,0.00,274.31,0.00,-96.25,-0.69,0.50,-0.06,-0.23,1.38
13.00,1.00,276.69,-6.69,-50.94,-0.12,0.19,0.19,-0.23,1.38
13.00,2.00,298.25,-21.25,21.12,-0.44,-0.25,0.31,-0.23,1.38
13.00,0.00,274.31,0.00,-96.19,-0.62,0.69,-0.19,-0.23,1.40
13.00,1.00,276.69,-6.69,-50.94,-0.25,0.19,0.31,-0.23,1.40
13.00,2.00,298.25,-21.25,21.12,-0.62,-0.38,0.44,-0.23,1.40
13.00,0.00,274.25,0.00,-96.19,-0.69,0.25,-0.12,-0.23,1.42
13.00,1.00,276.69,-6.69,-50.94,-0.31,0.31,0.25,-0.23,1.42
13.00,2.00,298.19,-21.25,21.12,-0.44,-0.44,0.38,-0.23,1.42
13.00,0.00,274.25,0.00,-96.19,-0.50,0.06,0.25,-0.24,1.44
13.00,1.00,276.69,-6.69,-50.94,-0.19,0.50,0.19,-0.24,1.44
13.00,2.00,298.19,-21.25,21.12,-0.25,-0.19,0.25,-0.24,1.44
13.00,0.00,274.25,0.00,-96.19,-0.38,0.06,0.19,-0.24,1.46
13.00,1.00,276.69,-6.69,-50.94,-0.44,0.50,0.75,-0.24,1.46
13.00,2.00,298.19,-21.25,21.12,-0.31,-0.56,0.50,-0.24,1.46
13.00,0.00,274.25,0.00,-96.19,-0.56,0.69,0.31,-0.24,1.48
13.00,1.00,276.69,-6.62,-50.94,-0.12,0.81,0.88,-0.24,1.48
13.00,2.00,298.19,-21.25,21.12,-0.56,-0.62,0.44,-0.24,1.48
13.00,0.00,274.25,0.00,-96.19,-0.38,1.50,0.31,-0.23,1.50
13.00,1.00,276.62,-6.62,-50.94,-0.44,0.38,0.94,-0.23,1.50
13.00,2.00,298.19,-21.25,21.12,-0.94,-1.06,0.94,-0.23,1.50
13.00,0.00,274.19,0.00,-96.19,-0.50,2.25,0.31,-0.20,1.52
13.00,1.00,276.62,-6.62,-50.94,-0.44,0.50,0.44,-0.20,1.52
13.00,2.00,298.19,-21.25,21.12,-1.25,-0.62,0.88,-0.20,1.52
13.00,0.00,274.12,0.00,-96.19,-0.12,2.81,0.81,-0.16,1.54
13.00,1.00,276.62,-6.62,-50.94,-0.88,0.56,0.44,-0.16,1.54
13.00,2.00,298.12,-21.25,21.12,-1.50,-0.06,0.69,-0.16,1.54
13.00,0.00,274.06,0.00,-96.19,-0.12,3.25,0.75,-0.11,1.56
13.00,1.00,276.62,-6.62,-50.94,-0.88,1.00,0.75,-0.11,1.56
13.00,2.00,298.12,-21.25,21.19,-2.06,-0.44,1.06,-0.11,1.56
13.00,0.00,274.00,0.00,-96.19,0.38,3.06,1.00,-0.04,1.58
13.00,1.00,276.56,-6.62,-50.94,-0.25,0.56,0.69,-0.04,1.58
13.00,2.00,298.12,-21.25,21.19,-2.00,-0.88,1.06,-0.04,1.58
13.00,0.00,273.88,0.06,-96.19,0.69,2.69,1.31,0.02,1.60
13.00,1.00,276.56,-6.62,-50.94,-0.44,0.88,0.69,0.02,1.60
13.00,2.00,298.06,-21.25,21.25,-1.44,0.06,0.75,0.02,1.60
13.00,0.00,273.81,0.06,-96.19,1.06,2.88,1.25,0.10,1.62
13.00,1.00,276.56,-6.62,-50.94,-1.00,0.81,0.56,0.10,1.62
13.00,2.00,298.06,-21.25,21.25,-1.81,0.50,0.75,0.10,1.62
13.00,0.00,273.69,0.12,-96.25,2.50,3.44,1.50,0.24,1.64
13.00,1.00,276.56,-6.62,-50.94,-0.62,0.62,0.19,0.24,1.64
13.00,2.00,298.00,-21.25,21.31,-2.06,-0.12,1.62,0.24,1.64
13.00,0.00,273.62,0.19,-96.25,2.88,3.88,1.62,0.36,1.66
13.00,1.00,276.56,-6.62,-50.88,-0.62,0.75,0.12,0.36,1.66
13.00,2.00,298.00,-21.25,21.31,-1.44,0.00,1.62,0.36,1.66
13.00,0.00,273.44,0.19,-96.38,3.81,4.94,1.69,0.52,1.68
13.00,1.00,276.56,-6.62,-50.88,-0.25,1.25,0.06,0.52,1.68
13.00,2.00,297.94,-21.31,21.31,-1.62,-0.31,2.00,0.52,1.68
13.00,0.00,273.31,0.25,-96.44,4.69,4.69,2.12,0.71,1.70
13.00,1.00,276.50,-6.69,-50.88,-0.25,1.00,0.38,0.71,1.70
13.00,2.00,297.88,-21.31,21.38,-1.81,-0.62,2.06,0.71,1.70
13.00,0.00,273.19,0.31,-96.56,5.25,3.75,2.31,0.91,1.72
13.00,1.00,276.50,-6.69,-50.88,-0.50,1.38,0.50,0.91,1.72
13.00,2.00,297.88,-21.31,21.38,-1.75,-0.38,2.00,0.91,1.72
13.00,0.00,273.12,0.31,-96.62,5.62,2.38,2.25,1.17,1.74
13.00,1.00,276.50,-6.69,-50.88,-0.75,1.50,0.69,1.17,1.74
13.00,2.00,297.81,-21.31,21.38,-3.38,0.94,1.81,1.17,1.74
13.00,0.00,273.06,0.38,-96.81,6.25,0.88,1.81,1.47,1.76
13.00,1.00,276.50,-6.69,-50.88,-1.06,1.56,0.88,1.47,1.76
13.00,2.00,297.75,-21.38,21.44,-4.38,0.81,2.00,1.47,1.76
13.00,0.00,273.00,0.38,-96.94,7.81,-0.12,1.88,1.82,1.78
13.00,1.00,276.44,-6.69,-50.88,-1.19,1.88,0.00,1.82,1.78
13.00,2.00,297.69,-21.38,21.56,-4.19,0.31,2.19,1.82,1.78
13.00,0.00,273.00,0.44,-97.12,9.25,-1.12,2.25,2.15,1.80
13.00,1.00,276.44,-6.75,-50.88,-0.94,1.62,0.00,2.15,1.80
13.00,2.00,297.62,-21.38,21.56,-2.12,0.25,2.25,2.15,1.80
13.00,0.00,272.94,0.50,-97.31,10.50,-0.69,2.94,2.50,1.82
13.00,1.00,276.44,-6.75,-50.88,-0.50,2.06,0.19,2.50,1.82
13.00,2.00,297.56,-21.38,21.62,-1.69,0.31,2.00,2.50,1.82
13.00,0.00,272.88,0.56,-97.56,11.44,-0.31,4.44,2.89,1.84
13.00,1.00,276.38,-6.81,-50.88,0.31,2.12,0.31,2.89,1.84
13.00,2.00,297.56,-21.44,21.62,-2.00,1.19,3.50,2.89,1.84
13.00,0.00,272.69,0.75,-97.88,12.75,-0.31,6.81,3.32,1.86
13.00,1.00,276.38,-6.81,-50.88,0.00,1.75,0.25,3.32,1.86
13.00,2.00,297.44,-21.50,21.62,-2.25,0.12,3.81,3.32,1.86
13.00,0.00,272.50,0.94,-98.12,13.38,-0.25,7.81,3.74,1.88
13.00,1.00,276.38,-6.81,-50.88,-0.06,1.56,-0.06,3.74,1.88
13.00,2.00,297.38,-21.50,21.62,-1.25,-0.94,4.12,3.74,1.88
13.00,0.00,272.25,1.06,-98.44,13.81,3.06,8.19,4.17,1.90
13.00,1.00,276.38,-6.88,-50.88,0.50,2.12,0.06,4.17,1.90
13.00,2.00,297.31,-21.50,21.62,-1.00,-1.00,5.06,4.17,1.90
13.00,0.00,271.94,1.25,-98.69,13.25,9.00,8.81,4.59,1.92
13.00,1.00,276.31,-6.88,-50.88,0.50,2.38,0.44,4.59,1.92
13.00,2.00,297.19,-21.56,21.62,-1.12,-1.19,5.56,4.59,1.92
13.00,0.00,271.44,1.50,-98.94,13.38,12.25,9.62,4.99,1.94
13.00,1.00,276.31,-6.88,-50.88,1.00,2.88,0.81,4.99,1.94
13.00,2.00,297.06,-21.56,21.56,-0.75,-2.56,7.56,4.99,1.94
13.00,0.00,271.00,1.75,-99.25,18.50,8.88,14.12,5.53,1.96
13.00,1.00,276.25,-6.94,-50.94,0.62,3.38,1.00,5.53,1.96
13.00,2.00,296.88,-21.56,21.56,-0.19,-3.50,9.44,5.53,1.96
13.00,0.00,270.50,2.12,-99.69,21.56,5.81,16.31,6.13,1.98
13.00,1.00,276.19,-6.94,-50.94,0.94,4.00,1.06,6.13,1.98
13.00,2.00,296.69,-21.56,21.44,0.94,-4.19,9.50,6.13,1.98
13.00,0.00,270.12,2.38,-100.06,20.25,4.62,11.62,6.67,2.00
13.00,1.00,276.12,-7.00,-51.00,0.88,4.25,1.06,6.67,2.00
13.00,2.00,296.50,-21.56,21.38,1.69,-3.69,8.75,6.67,2.00
13.00,0.00,269.81,2.62,-100.50,20.88,2.88,11.19,7.22,2.02
13.00,1.00,276.06,-7.00,-51.00,0.69,4.25,1.56,7.22,2.02
13.00,2.00,296.31,-21.56,21.25,1.69,-2.94,8.56,7.22,2.02
13.00,0.00,269.50,2.81,-100.94,22.69,1.25,12.88,7.87,2.04
13.00,1.00,276.00,-7.06,-51.00,1.06,4.25,2.19,7.87,2.04
13.00,2.00,296.12,-21.56,21.19,0.25,-3.50,9.25,7.87,2.04
13.00,0.00,269.19,3.06,-101.38,24.00,1.25,13.88,8.53,2.06
13.00,1.00,275.88,-7.06,-51.06,0.56,4.56,2.31,8.53,2.06
13.00,2.00,295.94,-21.56,21.06,1.19,-4.88,10.44,8.53,2.06
13.00,0.00,268.81,3.38,-101.88,24.12,3.38,13.69,9.17,2.08
13.00,1.00,275.81,-7.12,-51.06,0.50,5.00,1.75,9.17,2.08
13.00,2.00,295.69,-21.56,21.00,1.69,-4.56,10.81,9.17,2.08
13.00,0.00,268.44,3.62,-102.38,24.62,4.62,13.81,9.87,2.10
13.00,1.00,275.75,-7.12,-51.06,0.81,5.00,1.69,9.87,2.10
13.00,2.00,295.50,-21.56,20.88,0.62,-4.44,10.56,9.87,2.10
13.00,0.00,268.00,3.94,-102.81,25.81,4.38,15.25,10.59,2.12
13.00,1.00,275.62,-7.19,-51.12,1.00,5.19,2.19,10.59,2.12
13.00,2.00,295.25,-21.56,20.75,0.62,-4.00,10.62,10.59,2.12
13.00,0.00,267.50,4.25,-103.31,25.94,4.94,14.81,11.35,2.14
13.00,1.00,275.56,-7.19,-51.12,0.12,5.50,2.19,11.35,2.14
13.00,2.00,295.06,-21.56,20.69,-0.44,-3.12,11.25,11.35,2.14
13.00,0.00,267.06,4.56,-103.88,27.88,3.94,14.94,12.19,2.16
13.00,1.00,275.44,-7.25,-51.12,0.19,5.81,2.31,12.19,2.16
13.00,2.00,294.81,-21.62,20.62,-0.94,-3.56,11.00,12.19,2.16
13.00,0.00,266.69,4.81,-104.44,30.25,2.31,15.75,13.09,2.18
13.00,1.00,275.38,-7.25,-51.19,0.88,5.69,2.38,13.09,2.18
13.00,2.00,294.56,-21.62,20.56,-1.19,-3.81,10.88,13.09,2.18
13.00,0.00,266.31,5.06,-105.06,29.50,0.44,14.12,14.00,2.20
13.00,1.00,275.25,-7.31,-51.19,0.81,5.56,2.62,14.00,2.20
13.00,2.00,294.38,-21.62,20.50,-2.00,-4.50,9.94,14.00,2.20
13.00,0.00,266.06,5.31,-105.62,28.06,-1.50,12.56,14.89,2.22
13.00,1.00,275.12,-7.31,-51.19,-0.62,6.00,3.06,14.89,2.22
13.00,2.00,294.12,-21.62,20.50,-2.69,-4.00,8.50,14.89,2.22
13.00,0.00,265.81,5.56,-106.12,26.75,-3.62,12.50,15.91,2.24
13.00,1.00,275.00,-7.38,-51.19,-0.88,6.25,3.00,15.91,2.24
13.00,2.00,294.00,-21.62,20.50,-8.50,-3.00,6.94,15.91,2.24
13.00,0.00,265.62,5.75,-106.69,29.50,-6.50,13.44,16.97,2.26
13.00,1.00,274.94,-7.38,-51.19,-0.94,6.06,2.88,16.97,2.26
13.00,2.00,293.81,-21.62,20.62,-7.25,-3.12,7.38,16.97,2.26
13.00,0.00,265.44,6.00,-107.38,33.56,-7.00,14.75,18.00,2.28
13.00,1.00,274.81,-7.44,-51.19,-0.62,4.19,1.75,18.00,2.28
13.00,2.00,293.50,-21.62,20.69,-2.25,-2.19,8.19,18.00,2.28
13.00,0.00,265.25,6.19,-108.06,34.56,-6.38,13.44,18.99,2.30
13.00,1.00,274.75,-7.44,-51.25,0.81,5.31,0.94,18.99,2.30
13.00,2.00,293.44,-21.62,20.69,0.31,-1.12,8.12,18.99,2.30
13.00,0.00,265.06,6.38,-108.75,34.12,-7.19,12.94,19.98,2.32
13.00,1.00,274.69,-7.50,-51.25,0.31,4.75,1.31,19.98,2.32
13.00,2.00,293.31,-21.69,20.62,0.06,-1.44,8.12,19.98,2.32
13.00,0.00,264.88,6.56,-109.44,33.00,-7.62,13.75,20.98,2.34
13.00,1.00,274.62,-7.56,-51.25,-0.62,5.25,1.56,20.98,2.34
13.00,2.00,293.12,-21.69,20.56,-1.81,-2.56,8.81,20.98,2.34
13.00,0.00,264.75,6.75,-110.06,31.94,-7.50,12.94,21.96,2.36
13.00,1.00,274.56,-7.56,-51.25,-0.94,4.88,1.44,21.96,2.36
13.00,2.00,292.88,-21.69,20.50,-2.00,-4.62,10.25,21.96,2.36
13.00,0.00,264.62,6.94,-110.69,31.88,-7.00,12.00,22.92,2.38
13.00,1.00,274.44,-7.62,-51.25,-0.50,4.56,2.19,22.92,2.38
13.00,2.00,292.69,-21.69,20.44,-1.44,-4.94,10.69,22.92,2.38
13.00,0.00,264.50,7.06,-111.31,31.38,-6.56,11.25,23.83,2.40
13.00,1.00,274.38,-7.62,-51.25,0.44,5.75,2.38,23.83,2.40
13.00,2.00,292.44,-21.69,20.38,0.00,-4.62,10.69,23.83,2.40
13.00,0.00,264.38,7.25,-111.94,31.25,-7.31,11.69,24.72,2.42
13.00,1.00,274.25,-7.69,-51.31,-0.12,5.62,2.44,24.72,2.42
13.00,2.00,292.25,-21.62,20.31,0.25,-4.62,11.31,24.72,2.42
13.00,0.00,264.19,7.38,-112.56,30.38,-6.50,11.00,25.59,2.44
13.00,1.00,274.19,-7.69,-51.31,-0.12,5.88,2.62,25.59,2.44
13.00,2.00,292.00,-21.62,20.19,0.44,-5.25,12.25,25.59,2.44
13.00,0.00,264.06,7.50,-113.12,28.81,-5.44,9.75,26.39,2.46
13.00,1.00,274.06,-7.75,-51.31,-0.44,6.38,2.81,26.39,2.46
13.00,2.00,291.69,-21.62,20.06,1.12,-5.69,14.38,26.39,2.46
13.00,0.00,263.88,7.69,-113.69,28.00,-4.94,9.94,27.17,2.48
13.00,1.00,273.94,-7.75,-51.31,-0.50,7.56,3.12,27.17,2.48
13.00,2.00,291.38,-21.62,19.88,0.94,-6.19,14.81,27.17,2.48
13.00,0.00,263.69,7.81,-114.25,27.25,-4.31,10.50,27.97,2.50
13.00,1.00,273.75,-7.81,-51.31,-0.88,7.69,3.62,27.97,2.50
13.00,2.00,291.06,-21.62,19.75,-0.62,-7.31,16.19,27.97,2.50
13.00,0.00,263.50,7.94,-114.81,27.38,-4.06,10.50,28.78,2.52
13.00,1.00,273.62,-7.88,-51.38,-0.81,7.75,3.25,28.78,2.52
13.00,2.00,290.69,-21.56,19.62,-0.56,-8.00,17.12,28.78,2.52
13.00,0.00,263.31,8.12,-115.31,26.81,-3.38,10.06,29.53,2.54
13.00,1.00,273.50,-7.88,-51.31,-1.56,7.69,3.06,29.53,2.54
13.00,2.00,290.38,-21.56,19.50,0.94,-6.94,17.12,29.53,2.54
13.00,0.00,263.06,8.25,-115.88,27.00,-2.19,9.94,30.28,2.56
13.00,1.00,273.38,-8.00,-51.38,0.06,9.38,2.81,30.28,2.56
13.00,2.00,290.00,-21.56,19.31,1.06,-6.00,18.44,30.28,2.56
13.00,0.00,262.75,8.44,-116.44,27.31,-1.12,11.00,31.03,2.58
13.00,1.00,273.25,-8.00,-51.38,-0.38,8.50,2.81,31.03,2.58
13.00,2.00,289.62,-21.56,19.12,1.25,-6.00,18.94,31.03,2.58
13.00,0.00,262.38,8.62,-116.94,26.50,0.19,10.88,31.76,2.60
13.00,1.00,273.06,-8.12,-51.38,0.31,11.00,3.25,31.76,2.60
13.00,2.00,289.25,-21.62,19.00,1.12,-5.38,19.06,31.76,2.60
13.00,0.00,262.06,8.81,-117.44,25.00,2.06,9.62,32.49,2.62
13.00,1.00,272.94,-8.19,-51.44,-0.44,10.62,3.44,32.49,2.62
13.00,2.00,288.81,-21.62,18.81,-0.44,-5.81,19.50,32.49,2.62
13.00,0.00,261.69,8.94,-117.88,24.62,1.62,10.00,33.26,2.64
13.00,1.00,272.75,-8.25,-51.44,-0.75,9.88,4.06,33.26,2.64
13.00,2.00,288.44,-21.62,18.69,-2.06,-7.25,19.69,33.26,2.64
13.00,0.00,261.31,9.12,-118.38,25.12,1.06,10.81,34.04,2.66
13.00,1.00,272.56,-8.31,-51.44,-1.12,9.56,2.81,34.04,2.66
13.00,2.00,288.00,-21.62,18.56,-1.75,-6.81,19.69,34.04,2.66
13.00,0.00,260.94,9.31,-118.88,24.56,1.12,10.44,34.71,2.68
13.00,1.00,272.44,-8.38,-51.50,-0.38,9.88,2.94,34.71,2.68
13.00,2.00,287.62,-21.62,18.44,1.25,-4.44,18.19,34.71,2.68
13.00,0.00,260.62,9.50,-119.31,24.38,1.06,9.00,35.37,2.70
13.00,1.00,272.31,-8.44,-51.50,-1.12,9.62,2.31,35.37,2.70
13.00,2.00,287.31,-21.69,18.25,1.62,-3.50,17.25,35.37,2.70
13.00,0.00,260.31,9.62,-119.75,24.94,1.38,8.62,36.05,2.72
13.00,1.00,272.12,-8.56,-51.50,-0.31,11.31,2.88,36.05,2.72
13.00,2.00,287.00,-21.69,18.12,1.38,-4.38,15.94,36.05,2.72
13.00,0.00,260.00,9.75,-120.19,23.12,2.19,8.19,36.71,2.74
13.00,1.00,272.00,-8.62,-51.50,-1.38,9.69,3.06,36.71,2.74
13.00,2.00,286.62,-21.69,18.00,0.25,-5.06,15.81,36.71,2.74
13.00,0.00,259.69,9.81,-120.50,19.50,2.62,6.75,37.27,2.76
13.00,1.00,271.81,-8.69,-51.50,-1.62,9.38,2.62,37.27,2.76
13.00,2.00,286.31,-21.75,17.88,0.00,-4.44,16.06,37.27,2.76
13.00,0.00,259.38,10.00,-120.94,20.12,2.44,7.44,37.86,2.78
13.00,1.00,271.69,-8.81,-51.50,-0.88,9.44,2.00,37.86,2.78
13.00,2.00,286.00,-21.75,17.75,-0.19,-3.88,16.62,37.86,2.78
13.00,0.00,259.00,10.12,-121.31,20.56,2.94,7.44,38.49,2.80
13.00,1.00,271.56,-8.88,-51.56,-0.56,9.31,1.94,38.49,2.80
13.00,2.00,285.62,-21.75,17.62,-1.25,-4.69,17.19,38.49,2.80
13.00,0.00,258.81,10.19,-121.50,19.94,2.94,6.81,39.12,2.82
13.00,1.00,271.44,-8.94,-51.56,-1.19,9.50,2.81,39.12,2.82
13.00,2.00,285.31,-21.75,17.50,-1.88,-5.62,16.44,39.12,2.82
13.00,0.00,258.25,10.44,-122.00,16.44,5.38,5.56,39.63,2.84
13.00,1.00,271.31,-9.00,-51.56,-1.19,8.94,3.00,39.63,2.84
13.00,2.00,285.00,-21.75,17.44,-1.12,-6.12,15.62,39.63,2.84
13.00,0.00,257.81,10.56,-122.19,13.06,7.75,3.25,40.00,2.86
13.00,1.00,271.19,-9.06,-51.56,-1.44,9.06,2.50,40.00,2.86
13.00,2.00,284.69,-21.75,17.31,0.00,-5.19,15.00,40.00,2.86
13.00,0.00,257.38,10.69,-122.44,13.50,9.00,3.50,40.40,2.88
13.00,1.00,271.06,-9.12,-51.56,-1.62,9.31,2.06,40.40,2.88
13.00,2.00,284.38,-21.75,17.25,-0.38,-4.81,14.50,40.40,2.88
13.00,0.00,256.81,10.88,-122.69,15.44,10.25,5.38,40.87,2.90
13.00,1.00,270.94,-9.25,-51.56,-1.38,9.50,1.94,40.87,2.90
13.00,2.00,284.06,-21.69,17.12,-0.75,-5.25,14.62,40.87,2.90
13.00,0.00,256.19,11.06,-122.94,15.31,12.25,5.81,41.34,2.92
13.00,1.00,270.75,-9.31,-51.56,-1.50,9.44,2.12,41.34,2.92
13.00,2.00,283.81,-21.69,17.06,-0.81,-3.56,13.94,41.34,2.92
13.00,0.00,255.56,11.31,-123.19,15.06,12.50,5.38,41.82,2.94
13.00,1.00,270.62,-9.38,-51.56,-1.56,9.94,2.44,41.82,2.94
13.00,2.00,283.50,-21.75,17.00,-1.81,-3.12,13.81,41.82,2.94
13.00,0.00,255.25,11.38,-123.38,17.25,9.88,8.00,42.43,2.96
13.00,1.00,270.50,-9.50,-51.56,-1.69,10.25,2.69,42.43,2.96
13.00,2.00,283.25,-21.75,16.94,-3.56,-3.12,14.06,42.43,2.96
13.00,0.00,254.69,11.56,-123.69,16.19,8.25,8.25,42.97,2.98
13.00,1.00,270.31,-9.56,-51.56,-1.44,10.56,2.81,42.97,2.98
13.00,2.00,282.94,-21.75,16.94,-2.81,-2.69,13.62,42.97,2.98
13.00,0.00,254.19,11.75,-124.00,13.62,5.62,5.62,43.43,3.00
13.00,1.00,270.19,-9.62,-51.56,-1.88,9.12,2.31,43.43,3.00
13.00,2.00,282.69,-21.81,16.94,-2.31,-2.94,13.31,43.43,3.00
13.00,0.00,253.81,11.88,-124.25,12.75,2.25,3.31,43.84,3.02
13.00,1.00,270.06,-9.69,-51.56,-1.25,8.25,2.00,43.84,3.02
13.00,2.00,282.44,-21.81,16.88,-1.31,-3.19,13.19,43.84,3.02
13.00,0.00,253.62,11.94,-124.50,13.69,0.31,3.62,44.25,3.04
13.00,1.00,269.94,-9.81,-51.56,-1.12,8.12,2.44,44.25,3.04
13.00,2.00,282.12,-21.81,16.75,-0.50,-2.81,13.50,44.25,3.04
13.00,0.00,253.44,12.00,-124.75,14.69,-0.50,4.88,44.71,3.06
13.00,1.00,269.81,-9.81,-51.56,-1.00,9.25,3.75,44.71,3.06
13.00,2.00,281.88,-21.88,16.69,-1.38,-3.19,13.50,44.71,3.06
13.00,0.00,253.19,12.12,-125.06,14.31,1.31,6.19,45.22,3.08
13.00,1.00,269.62,-9.88,-51.56,-2.38,9.50,4.69,45.22,3.08
13.00,2.00,281.56,-21.88,16.62,-3.38,-4.94,14.75,45.22,3.08
13.00,0.00,252.88,12.19,-125.31,10.94,4.81,4.19,45.66,3.10
13.00,1.00,269.44,-9.94,-51.56,-1.88,10.62,4.06,45.66,3.10
13.00,2.00,281.25,-21.81,16.56,-4.31,-5.88,15.81,45.66,3.10
13.00,0.00,252.50,12.31,-125.50,10.56,4.88,3.75,46.08,3.12
13.00,1.00,269.25,-10.00,-51.56,-2.44,9.69,3.88,46.08,3.12
13.00,2.00,280.88,-21.81,16.50,-3.69,-5.06,16.12,46.08,3.12
13.00,0.00,252.12,12.44,-125.75,16.06,3.19,7.62,46.63,3.14
13.00,1.00,269.12,-10.06,-51.56,-1.81,10.56,3.00,46.63,3.14
13.00,2.00,280.56,-21.81,16.44,-3.25,-4.19,14.94,46.63,3.14
13.00,0.00,251.69,12.62,-126.12,17.06,3.12,8.25,47.15,3.16
13.00,1.00,268.94,-10.19,-51.56,-1.69,10.25,2.44,47.15,3.16
13.00,2.00,280.25,-21.81,16.44,-1.00,-4.56,14.69,47.15,3.16
13.00,0.00,251.31,12.75,-126.44,16.31,3.31,7.75,47.60,3.18
13.00,1.00,268.81,-10.25,-51.56,-1.25,10.38,2.69,47.60,3.18
13.00,2.00,280.00,-21.81,16.31,0.88,-4.12,13.88,47.60,3.18
13.00,0.00,250.88,12.88,-126.69,10.88,4.44,3.25,47.86,3.20
13.00,1.00,268.62,-10.31,-51.56,-1.44,10.25,2.25,47.86,3.20
13.00,2.00,279.75,-21.81,16.19,2.00,-3.25,14.38,47.86,3.20
13.00,0.00,250.62,12.94,-126.81,9.50,4.94,1.69,48.09,3.22
13.00,1.00,268.50,-10.44,-51.56,-2.81,9.25,1.81,48.09,3.22
13.00,2.00,279.44,-21.81,16.06,1.38,-3.62,15.00,48.09,3.22
13.00,0.00,250.38,13.00,-127.00,10.69,3.38,0.38,48.37,3.24
13.00,1.00,268.38,-10.50,-51.50,-2.69,9.31,1.75,48.37,3.24
13.00,2.00,279.12,-21.81,15.94,1.00,-3.44,14.38,48.37,3.24
13.00,0.00,250.19,13.06,-127.25,13.12,0.31,1.44,48.71,3.26
13.00,1.00,268.25,-10.62,-51.50,-2.75,9.88,1.38,48.71,3.26
13.00,2.00,278.88,-21.88,15.81,1.44,-1.56,14.69,48.71,3.26
13.00,0.00,250.12,13.00,-127.50,14.12,-2.25,1.88,49.13,3.28
13.00,1.00,268.12,-10.69,-51.44,-3.75,9.94,1.06,49.13,3.28
13.00,2.00,278.56,-21.94,15.69,-0.62,-0.69,15.44,49.13,3.28
13.00,0.00,250.06,13.00,-127.81,12.62,-2.88,0.81,49.58,3.30
13.00,1.00,268.00,-10.81,-51.44,-3.56,10.62,0.69,49.58,3.30
13.00,2.00,278.25,-21.94,15.62,-2.69,-2.19,16.31,49.58,3.30
13.00,0.00,250.12,12.94,-128.00,9.75,-3.12,-1.12,49.92,3.32
13.00,1.00,267.88,-10.94,-51.38,-3.25,10.31,1.50,49.92,3.32
13.00,2.00,277.94,-22.00,15.56,-2.31,-2.62,15.12,49.92,3.32
13.00,0.00,250.19,12.88,-128.19,10.31,-4.31,-0.69,50.24,3.34
13.00,1.00,267.75,-11.00,-51.38,-3.62,8.94,1.75,50.24,3.34
13.00,2.00,277.62,-22.00,15.44,-0.50,-1.75,13.75,50.24,3.34
13.00,0.00,250.19,12.88,-128.38,10.62,-2.81,0.75,50.54,3.36
13.00,1.00,267.62,-11.12,-51.31,-3.38,9.81,1.31,50.54,3.36
13.00,2.00,277.38,-22.06,15.38,0.19,-1.38,12.81,50.54,3.36
13.00,0.00,250.12,12.88,-128.56,8.88,0.50,0.19,50.79,3.38
13.00,1.00,267.56,-11.19,-51.31,-3.44,8.94,0.75,50.79,3.38
13.00,2.00,277.19,-22.12,15.31,0.12,-1.75,12.06,50.79,3.38
13.00,0.00,249.94,12.88,-128.69,6.75,3.56,-0.19,50.97,3.40
13.00,1.00,267.44,-11.31,-51.25,-2.75,8.75,0.88,50.97,3.40
13.00,2.00,276.94,-22.12,15.25,0.50,-2.19,10.31,50.97,3.40
13.00,0.00,249.56,13.00,-128.75,4.62,7.94,-0.56,51.06,3.42
13.00,1.00,267.38,-11.31,-51.25,-3.00,7.50,0.94,51.06,3.42
13.00,2.00,276.75,-22.12,15.19,1.50,-2.06,9.75,51.06,3.42
13.00,0.00,249.19,13.12,-128.75,5.00,8.12,0.69,51.17,3.44
13.00,1.00,267.25,-11.44,-51.19,-2.94,6.94,1.44,51.17,3.44
13.00,2.00,276.56,-22.12,15.06,1.25,-2.19,8.94,51.17,3.44
13.00,0.00,248.69,13.31,-128.88,8.12,8.06,5.50,51.37,3.46
13.00,1.00,267.12,-11.50,-51.19,-3.06,6.69,1.25,51.37,3.46
13.00,2.00,276.44,-22.12,15.00,1.31,-3.94,8.19,51.37,3.46
13.00,0.00,248.12,13.50,-129.00,8.31,9.50,7.81,51.54,3.48
13.00,1.00,267.12,-11.56,-51.12,-3.00,5.81,0.69,51.54,3.48
13.00,2.00,276.25,-22.06,14.94,2.25,-3.25,7.38,51.54,3.48
13.00,0.00,247.50,13.75,-129.06,7.25,9.44,7.44,51.65,3.50
13.00,1.00,267.00,-11.62,-51.06,-2.62,5.38,0.00,51.65,3.50
13.00,2.00,276.19,-22.06,14.88,3.50,-2.69,5.38,51.65,3.50
13.00,0.00,247.00,13.94,-129.12,6.12,8.88,5.75,51.70,3.52
13.00,1.00,267.00,-11.69,-51.06,-2.81,4.25,0.00,51.70,3.52
13.00,2.00,276.12,-22.00,14.75,4.25,-1.81,3.88,51.70,3.52
13.00,0.00,246.56,14.12,-129.25,5.81,7.06,5.06,51.75,3.54
13.00,1.00,266.94,-11.75,-51.00,-3.00,3.50,-0.19,51.75,3.54
13.00,2.00,276.06,-22.00,14.62,4.25,-2.25,3.31,51.75,3.54
13.00,0.00,246.12,14.25,-129.38,7.38,4.56,6.00,51.86,3.56
13.00,1.00,266.88,-11.75,-50.94,-2.62,2.81,0.25,51.86,3.56
13.00,2.00,276.00,-21.94,14.56,3.56,-4.19,3.56,51.86,3.56
13.00,0.00,245.75,14.44,-129.50,7.50,4.81,6.56,51.99,3.58
13.00,1.00,266.88,-11.81,-50.94,-2.56,2.19,0.19,51.99,3.58
13.00,2.00,275.94,-21.88,14.44,2.94,-5.19,3.81,51.99,3.58
13.00,0.00,245.38,14.62,-129.62,7.19,5.06,7.00,52.13,3.60
13.00,1.00,266.81,-11.81,-50.88,-1.81,2.56,0.38,52.13,3.60
13.00,2.00,275.81,-21.81,14.38,2.31,-5.25,3.69,52.13,3.60
13.00,0.00,244.88,14.81,-129.69,6.31,7.38,7.94,52.23,3.62
13.00,1.00,266.81,-11.81,-50.88,-2.69,0.75,0.19,52.23,3.62
13.00,2.00,275.75,-21.69,14.31,2.94,-5.56,3.25,52.23,3.62
13.00,0.00,244.31,15.06,-129.75,5.50,10.12,8.69,52.29,3.64
13.00,1.00,266.81,-11.88,-50.81,-1.31,1.44,0.19,52.29,3.64
13.00,2.00,275.75,-21.62,14.25,3.25,-5.00,2.62,52.29,3.64
13.00,0.00,243.69,15.31,-129.75,5.06,13.38,8.19,52.36,3.66
13.00,1.00,266.81,-11.88,-50.75,-1.94,0.25,0.31,52.36,3.66
13.00,2.00,275.69,-21.56,14.19,2.81,-4.75,2.69,52.36,3.66
13.00,0.00,243.06,15.56,-129.75,3.94,13.62,7.81,52.40,3.68
13.00,1.00,266.81,-11.88,-50.75,-1.56,0.62,0.62,52.40,3.68
13.00,2.00,275.62,-21.50,14.12,2.62,-3.88,2.88,52.40,3.68
13.00,0.00,242.56,15.75,-129.62,2.75,13.62,7.44,52.46,3.70
13.00,1.00,266.75,-11.88,-50.75,-2.00,0.88,0.75,52.46,3.70
13.00,2.00,275.56,-21.44,14.06,0.69,-3.75,2.38,52.46,3.70
13.00,0.00,242.12,15.94,-129.56,1.81,11.75,6.31,52.51,3.72
13.00,1.00,266.75,-11.88,-50.69,-2.62,0.94,0.62,52.51,3.72
13.00,2.00,275.50,-21.38,14.06,0.00,-3.06,2.62,52.51,3.72
13.00,0.00,241.94,16.00,-129.44,1.06,10.06,4.44,52.56,3.74
13.00,1.00,266.69,-11.88,-50.62,-3.06,0.94,0.81,52.56,3.74
13.00,2.00,275.44,-21.38,14.00,-0.62,-2.00,2.56,52.56,3.74
13.00,0.00,241.94,16.00,-129.25,-0.44,7.56,2.56,52.61,3.76
13.00,1.00,266.69,-11.88,-50.56,-3.06,1.31,1.00,52.61,3.76
13.00,2.00,275.38,-21.31,14.06,-2.44,-0.38,2.44,52.61,3.76
13.00,0.00,242.00,16.00,-129.12,-1.81,5.06,1.25,52.66,3.78
13.00,1.00,266.62,-11.88,-50.50,-3.56,1.06,0.50,52.66,3.78
13.00,2.00,275.31,-21.38,14.12,-3.38,-0.50,2.38,52.66,3.78
13.00,0.00,242.12,15.94,-129.00,-2.81,2.00,0.06,52.63,3.80
13.00,1.00,266.62,-11.88,-50.44,-4.75,0.50,0.19,52.63,3.80
13.00,2.00,275.31,-21.38,14.12,-1.62,1.00,2.25,52.63,3.80
13.00,0.00,242.25,15.88,-128.88,-3.38,0.00,-1.31,52.61,3.82
13.00,1.00,266.62,-11.88,-50.38,-3.00,2.19,-0.19,52.61,3.82
13.00,2.00,275.25,-21.38,14.19,-2.69,1.12,2.44,52.61,3.82
13.00,0.00,242.31,15.88,-128.81,-5.00,-0.06,-2.81,52.58,3.84
13.00,1.00,266.56,-11.94,-50.31,-4.56,1.56,0.19,52.58,3.84
13.00,2.00,275.19,-21.44,14.19,-4.25,2.38,2.12,52.58,3.84
13.00,0.00,242.44,15.81,-128.69,-6.06,0.88,-3.19,52.56,3.86
13.00,1.00,266.56,-11.94,-50.25,-4.75,1.81,-0.12,52.56,3.86
13.00,2.00,275.12,-21.50,14.31,-5.06,2.44,2.44,52.56,3.86
13.00,0.00,242.50,15.81,-128.56,-6.12,3.31,-3.31,52.55,3.88
13.00,1.00,266.50,-12.00,-50.12,-4.56,2.12,-0.69,52.55,3.88
13.00,2.00,275.06,-21.56,14.38,-5.81,2.81,1.88,52.55,3.88
13.00,0.00,242.50,15.81,-128.38,-6.12,4.56,-3.00,52.51,3.90
13.00,1.00,266.50,-12.00,-50.06,-4.69,2.00,-1.19,52.51,3.90
13.00,2.00,275.00,-21.62,14.50,-4.81,3.25,1.81,52.51,3.90
13.00,0.00,242.50,15.81,-128.25,-6.31,4.06,-2.25,52.45,3.92
13.00,1.00,266.50,-12.06,-50.00,-4.56,2.56,-1.94,52.45,3.92
13.00,2.00,275.00,-21.69,14.56,-4.25,3.00,2.31,52.45,3.92
13.00,0.00,242.50,15.81,-128.12,-6.88,3.12,-2.19,52.37,3.94
13.00,1.00,266.50,-12.12,-49.88,-4.75,2.00,-1.44,52.37,3.94
13.00,2.00,274.88,-21.75,14.62,-4.00,1.56,3.62,52.37,3.94
13.00,0.00,242.50,15.81,-128.00,-7.31,2.06,-2.94,52.27,3.96
13.00,1.00,266.50,-12.19,-49.81,-4.06,2.12,-0.88,52.27,3.96
13.00,2.00,274.81,-21.75,14.69,-4.00,0.69,4.12,52.27,3.96
13.00,0.00,242.62,15.75,-127.81,-7.06,1.69,-4.12,52.16,3.98
13.00,1.00,266.50,-12.19,-49.75,-3.81,1.75,-0.88,52.16,3.98
13.00,2.00,274.69,-21.81,14.75,-3.31,0.62,3.94,52.16,3.98
13.00,0.00,242.69,15.75,-127.69,-7.25,2.25,-4.62,52.06,4.00
13.00,1.00,266.50,-12.25,-49.69,-3.50,2.06,0.12,52.06,4.00
13.00,2.00,274.62,-21.81,14.75,-3.75,0.38,5.19,52.06,4.00
13.00,0.00,242.75,15.69,-127.50,-6.94,4.06,-3.94,51.99,4.02
13.00,1.00,266.44,-12.25,-49.62,-3.62,1.94,0.56,51.99,4.02
13.00,2.00,274.50,-21.88,14.81,-4.62,0.31,6.62,51.99,4.02
13.00,0.00,242.62,15.75,-127.38,-6.19,5.94,-2.44,51.95,4.04
13.00,1.00,266.44,-12.25,-49.56,-4.31,1.62,0.31,51.95,4.04
13.00,2.00,274.31,-21.88,14.81,-4.50,0.50,7.38,51.95,4.04
13.00,0.00,242.44,15.81,-127.31,-5.75,6.81,-0.81,51.94,4.06
13.00,1.00,266.38,-12.31,-49.50,-3.31,2.62,0.25,51.94,4.06
13.00,2.00,274.12,-21.94,14.88,-5.44,-0.50,7.75,51.94,4.06
13.00,0.00,242.31,15.88,-127.12,-5.81,6.44,-0.81,51.93,4.08
13.00,1.00,266.31,-12.31,-49.44,-3.44,2.94,1.62,51.93,4.08
13.00,2.00,274.00,-21.94,14.94,-5.75,0.56,7.50,51.93,4.08
13.00,0.00,242.19,15.94,-127.00,-7.44,5.69,-0.19,51.87,4.10
13.00,1.00,266.25,-12.31,-49.38,-3.56,2.94,2.56,51.87,4.10
13.00,2.00,273.81,-22.00,15.00,-5.12,0.62,7.62,51.87,4.10
13.00,0.00,242.12,16.00,-126.88,-7.88,2.81,-0.31,51.80,4.12
13.00,1.00,266.19,-12.31,-49.31,-4.69,3.50,2.06,51.80,4.12
13.00,2.00,273.62,-22.06,15.00,-5.56,-0.88,8.38,51.80,4.12
13.00,0.00,242.19,16.00,-126.69,-6.88,1.38,-1.81,51.74,4.14
13.00,1.00,266.06,-12.38,-49.25,-4.62,3.94,1.94,51.74,4.14
13.00,2.00,273.44,-22.06,15.06,-4.62,0.62,7.62,51.74,4.14
13.00,0.00,242.31,15.94,-126.62,-4.62,0.56,-2.50,51.74,4.16
13.00,1.00,266.00,-12.38,-49.19,-4.19,4.88,1.81,51.74,4.16
13.00,2.00,273.31,-22.12,15.12,-4.81,0.81,7.50,51.74,4.16
13.00,0.00,242.38,15.94,-126.56,-2.69,0.56,-1.75,51.82,4.18
13.00,1.00,265.88,-12.44,-49.12,-4.06,5.25,2.00,51.82,4.18
13.00,2.00,273.12,-22.19,15.12,-5.44,0.19,8.00,51.82,4.18
13.00,0.00,242.31,15.94,-126.50,-0.75,1.31,-0.19,51.94,4.20
13.00,1.00,265.81,-12.50,-49.06,-4.19,5.44,1.62,51.94,4.20
13.00,2.00,272.94,-22.25,15.19,-4.88,0.88,7.69,51.94,4.20
13.00,0.00,242.25,16.00,-126.50,0.88,2.69,0.81,52.11,4.22
13.00,1.00,265.75,-12.50,-49.00,-3.25,5.56,1.12,52.11,4.22
13.00,2.00,272.81,-22.25,15.25,-4.94,0.75,7.12,52.11,4.22
13.00,0.00,242.00,16.06,-126.50,2.25,4.56,0.88,52.32,4.24
13.00,1.00,265.62,-12.56,-48.94,-3.69,4.75,0.81,52.32,4.24
13.00,2.00,272.69,-22.31,15.31,-5.19,0.50,6.12,52.32,4.24
13.00,0.00,241.81,16.12,-126.56,3.62,4.69,1.00,52.52,4.26
13.00,1.00,265.62,-12.62,-48.94,-2.50,4.88,0.19,52.52,4.26
13.00,2.00,272.56,-22.38,15.38,-3.19,1.38,5.81,52.52,4.26
13.00,0.00,241.56,16.19,-126.62,4.56,3.69,1.25,52.74,4.28
13.00,1.00,265.56,-12.69,-48.88,-2.75,4.00,0.06,52.74,4.28
13.00,2.00,272.44,-22.38,15.44,-3.19,0.38,4.75,52.74,4.28
13.00,0.00,241.44,16.25,-126.75,5.38,1.19,1.56,52.96,4.30
13.00,1.00,265.50,-12.75,-48.88,-1.56,4.94,-0.56,52.96,4.30
13.00,2.00,272.31,-22.38,15.44,-2.12,-0.25,4.25,52.96,4.30
13.00,0.00,241.38,16.25,-126.88,5.50,-1.44,1.31,53.13,4.32
13.00,1.00,265.50,-12.81,-48.81,-1.62,3.62,-0.44,53.13,4.32
13.00,2.00,272.25,-22.44,15.44,-0.50,-0.06,3.81,53.13,4.32
13.00,0.00,241.44,16.19,-126.94,4.25,-3.19,0.25,53.27,4.34
13.00,1.00,265.44,-12.88,-48.81,-1.62,2.88,-0.44,53.27,4.34
13.00,2.00,272.19,-22.44,15.44,-0.62,0.19,3.38,53.27,4.34
13.00,0.00,241.56,16.12,-127.00,4.44,-5.38,0.06,53.45,4.36
13.00,1.00,265.44,-12.88,-48.81,-2.06,3.25,-0.50,53.45,4.36
13.00,2.00,272.12,-22.44,15.44,-1.56,0.19,3.69,53.45,4.36
13.00,0.00,241.69,16.06,-127.12,3.81,-4.31,0.94,53.58,4.38
13.00,1.00,265.38,-12.94,-48.75,-1.31,4.19,-0.62,53.58,4.38
13.00,2.00,272.06,-22.50,15.44,-0.75,0.00,3.50,53.58,4.38
13.00,0.00,241.81,16.06,-127.12,0.06,-3.06,-2.62,53.57,4.40
13.00,1.00,265.38,-13.00,-48.75,-2.38,2.81,-0.50,53.57,4.40
13.00,2.00,272.00,-22.50,15.38,0.19,-0.19,3.12,53.57,4.40
13.00,0.00,242.00,15.94,-127.06,-0.94,-3.69,-3.12,53.55,4.42
13.00,1.00,265.31,-13.00,-48.69,-1.62,3.25,-0.38,53.55,4.42
13.00,2.00,271.94,-22.50,15.38,0.00,-0.94,2.69,53.55,4.42
13.00,0.00,242.06,15.94,-127.06,0.12,-0.56,-0.50,53.52,4.44
13.00,1.00,265.25,-13.06,-48.69,-1.69,3.06,-0.44,53.52,4.44
13.00,2.00,271.88,-22.50,15.38,1.06,-1.06,2.12,53.52,4.44
13.00,0.00,241.94,16.00,-127.00,-1.06,5.62,0.00,53.47,4.46
13.00,1.00,265.25,-13.12,-48.69,-1.69,2.12,-0.38,53.47,4.46
13.00,2.00,271.88,-22.50,15.38,0.56,0.75,1.69,53.47,4.46
13.00,0.00,241.69,16.06,-126.94,-3.44,12.81,-1.19,53.46,4.48
13.00,1.00,265.25,-13.12,-48.62,-2.69,2.44,-0.19,53.46,4.48
13.00,2.00,271.81,-22.50,15.38,-3.00,1.44,1.69,53.46,4.48
13.00,0.00,240.94,16.38,-126.62,-4.00,18.44,-1.06,53.46,4.50
13.00,1.00,265.19,-13.19,-48.56,-3.44,2.88,-0.75,53.46,4.50
13.00,2.00,271.75,-22.56,15.44,-4.06,1.94,1.81,53.46,4.50
13.00,0.00,240.62,16.50,-126.56,-3.31,18.62,0.19,53.45,4.52
13.00,1.00,265.19,-13.25,-48.50,-3.44,3.19,-1.31,53.45,4.52
13.00,2.00,271.75,-22.62,15.50,-2.94,2.94,1.50,53.45,4.52
13.00,0.00,240.06,16.69,-126.44,-2.75,16.06,-0.12,53.48,4.54
13.00,1.00,265.19,-13.31,-48.44,-3.12,3.50,-1.06,53.48,4.54
13.00,2.00,271.69,-22.69,15.56,-3.88,1.88,1.88,53.48,4.54
13.00,0.00,239.56,16.88,-126.31,-2.31,11.69,-1.38,53.51,4.56
13.00,1.00,265.12,-13.38,-48.44,-2.88,3.88,-0.94,53.51,4.56
13.00,2.00,271.62,-22.69,15.62,-3.25,1.00,1.81,53.51,4.56
13.00,0.00,239.31,16.94,-126.19,-2.19,7.25,-3.31,53.53,4.58
13.00,1.00,265.12,-13.38,-48.38,-3.44,2.31,-1.00,53.53,4.58
13.00,2.00,271.62,-22.69,15.69,-2.94,0.38,2.12,53.53,4.58
13.00,0.00,239.31,16.88,-126.12,-1.81,2.75,-5.19,53.55,4.60
13.00,1.00,265.12,-13.44,-48.31,-3.44,2.19,-0.56,53.55,4.60
13.00,2.00,271.56,-22.75,15.75,-2.44,1.81,1.94,53.55,4.60
13.00,0.00,239.44,16.81,-126.06,-1.25,-0.38,-5.75,53.62,4.62
13.00,1.00,265.06,-13.44,-48.25,-3.38,2.62,-0.31,53.62,4.62
13.00,2.00,271.50,-22.81,15.75,-3.69,1.06,2.88,53.62,4.62
13.00,0.00,239.56,16.69,-126.06,-0.62,-1.56,-5.75,53.72,4.64
13.00,1.00,265.06,-13.50,-48.19,-3.06,2.25,-0.69,53.72,4.64
13.00,2.00,271.44,-22.81,15.81,-3.94,1.44,2.56,53.72,4.64
13.00,0.00,239.75,16.56,-126.00,0.06,-0.44,-5.38,53.85,4.66
13.00,1.00,265.06,-13.56,-48.12,-3.06,2.88,-0.94,53.85,4.66
13.00,2.00,271.38,-22.88,15.94,-4.44,2.62,1.50,53.85,4.66
13.00,0.00,239.81,16.50,-126.00,0.19,0.31,-5.19,54.01,4.68
13.00,1.00,265.06,-13.62,-48.06,-3.38,3.56,-1.12,54.01,4.68
13.00,2.00,271.31,-22.94,16.00,-5.44,2.50,1.69,54.01,4.68
13.00,0.00,239.88,16.44,-126.00,0.69,1.38,-3.25,54.16,4.70
13.00,1.00,265.00,-13.69,-48.00,-3.12,3.62,-1.88,54.16,4.70
13.00,2.00,271.31,-23.00,16.12,-4.44,2.38,1.19,54.16,4.70
13.00,0.00,239.88,16.44,-126.00,1.56,1.00,-1.88,54.28,4.72
13.00,1.00,265.06,-13.75,-47.94,-2.44,2.88,-2.38,54.28,4.72
13.00,2.00,271.31,-23.06,16.19,-2.81,3.12,0.19,54.28,4.72
13.00,0.00,239.81,16.38,-126.00,1.88,0.31,-1.50,54.40,4.74
13.00,1.00,265.06,-13.81,-47.94,-2.38,2.38,-1.94,54.40,4.74
13.00,2.00,271.31,-23.06,16.25,-2.25,2.69,-0.06,54.40,4.74
13.00,0.00,239.88,16.38,-126.06,1.56,-3.06,-1.25,54.50,4.76
13.00,1.00,265.06,-13.88,-47.88,-2.38,2.25,-1.69,54.50,4.76
13.00,2.00,271.31,-23.12,16.31,-1.81,2.31,-0.12,54.50,4.76
13.00,0.00,240.00,16.31,-126.06,1.19,-4.25,-1.62,54.58,4.78
13.00,1.00,265.06,-13.94,-47.81,-2.62,1.94,-1.56,54.58,4.78
13.00,2.00,271.31,-23.19,16.31,-1.56,2.38,-0.38,54.58,4.78
13.00,0.00,240.19,16.19,-126.12,0.88,-6.06,-2.50,54.67,4.80
13.00,1.00,265.06,-14.00,-47.81,-2.56,2.25,-1.38,54.67,4.80
13.00,2.00,271.31,-23.19,16.38,-2.19,1.00,0.31,54.67,4.80
13.00,0.00,240.44,16.12,-126.12,1.38,-5.88,-1.62,54.75,4.82
13.00,1.00,265.06,-14.00,-47.75,-2.38,2.06,-1.62,54.75,4.82
13.00,2.00,271.31,-23.19,16.44,-1.56,1.62,-0.50,54.75,4.82
13.00,0.00,240.62,16.06,-126.19,1.50,-5.38,-0.81,54.80,4.84
13.00,1.00,265.12,-14.06,-47.69,-1.75,1.81,-2.25,54.80,4.84
13.00,2.00,271.31,-23.25,16.50,-0.12,1.31,-0.81,54.80,4.84
13.00,0.00,240.62,16.06,-126.25,1.94,-3.12,0.69,54.86,4.86
13.00,1.00,265.12,-14.12,-47.69,-1.69,1.56,-2.50,54.86,4.86
13.00,2.00,271.31,-23.25,16.50,0.00,1.75,-1.56,54.86,4.86
13.00,0.00,240.62,16.06,-126.31,1.88,-1.00,1.56,54.92,4.88
13.00,1.00,265.19,-14.19,-47.62,-1.88,0.56,-2.50,54.92,4.88
13.00,2.00,271.38,-23.25,16.50,-0.44,1.06,-1.31,54.92,4.88
13.00,0.00,240.56,16.12,-126.38,1.75,0.31,1.75,54.97,4.90
13.00,1.00,265.19,-14.25,-47.56,-1.94,0.56,-2.44,54.97,4.90
13.00,2.00,271.38,-23.25,16.50,0.12,0.31,-1.44,54.97,4.90
13.00,0.00,240.44,16.12,-126.44,1.38,1.31,1.44,55.02,4.92
13.00,1.00,265.25,-14.25,-47.56,-1.75,0.62,-2.38,55.02,4.92
13.00,2.00,271.44,-23.25,16.56,-0.44,-0.31,-0.56,55.02,4.92
13.00,0.00,240.31,16.19,-126.44,1.56,1.88,1.50,55.07,4.94
13.00,1.00,265.25,-14.31,-47.50,-1.38,0.69,-1.50,55.07,4.94
13.00,2.00,271.44,-23.25,16.56,-0.25,-0.88,-0.19,55.07,4.94
13.00,0.00,240.12,16.25,-126.50,1.44,3.50,1.94,55.12,4.96
13.00,1.00,265.25,-14.31,-47.50,-0.94,1.44,-0.94,55.12,4.96
13.00,2.00,271.44,-23.25,16.56,-0.25,-1.75,0.50,55.12,4.96
13.00,0.00,239.94,16.38,-126.50,0.94,4.81,2.06,55.17,4.98
13.00,1.00,265.25,-14.38,-47.50,-0.94,1.31,-0.62,55.17,4.98
13.00,2.00,271.38,-23.19,16.56,-0.81,-1.12,0.94,55.17,4.98
13.00,0.00,239.69,16.44,-126.44,0.38,6.75,2.38,55.21,5.00
13.00,1.00,265.25,-14.38,-47.44,-1.69,1.12,-0.44,55.21,5.00
13.00,2.00,271.38,-23.19,16.56,-0.88,-0.19,1.62,55.21,5.00
13.00,0.00,239.38,16.56,-126.44,0.00,6.75,2.44,55.25,5.02
13.00,1.00,265.25,-14.38,-47.44,-1.69,1.56,-0.50,55.25,5.02
13.00,2.00,271.31,-23.25,16.56,-1.38,-0.12,2.00,55.25,5.02
13.00,0.00,239.25,16.62,-126.38,-0.50,5.31,1.69,55.29,5.04
13.00,1.00,265.25,-14.44,-47.38,-1.06,1.44,-0.31,55.29,5.04
13.00,2.00,271.25,-23.25,16.56,-1.81,-0.25,1.56,55.29,5.04
13.00,0.00,239.19,16.62,-126.31,-0.69,2.69,0.69,55.30,5.06
13.00,1.00,265.25,-14.44,-47.38,-1.44,1.06,0.19,55.30,5.06
13.00,2.00,271.25,-23.25,16.62,-1.12,0.50,0.75,55.30,5.06
13.00,0.00,239.31,16.56,-126.25,-1.31,-1.31,-0.81,55.30,5.08
13.00,1.00,265.19,-14.44,-47.38,-2.00,1.56,-0.31,55.30,5.08
13.00,2.00,271.25,-23.25,16.62,-1.25,1.50,0.12,55.30,5.08
13.00,0.00,239.56,16.50,-126.25,-0.56,-5.25,-0.94,55.32,5.10
13.00,1.00,265.19,-14.50,-47.31,-1.81,1.56,-1.12,55.32,5.10
13.00,2.00,271.25,-23.31,16.69,-1.44,2.12,0.44,55.32,5.10
13.00,0.00,239.75,16.44,-126.25,-0.69,-5.12,-1.56,55.36,5.12
13.00,1.00,265.19,-14.50,-47.31,-1.69,1.62,-1.06,55.36,5.12
13.00,2.00,271.25,-23.31,16.69,-1.81,2.00,0.38,55.36,5.12
13.00,0.00,239.94,16.31,-126.31,-0.06,-3.25,-1.75,55.43,5.14
13.00,1.00,265.19,-14.56,-47.25,-1.44,1.69,-0.88,55.43,5.14
13.00,2.00,271.25,-23.38,16.75,-2.50,1.62,0.12,55.43,5.14
13.00,0.00,240.06,16.31,-126.31,-0.56,-1.44,-1.75,55.46,5.16
13.00,1.00,265.19,-14.56,-47.25,-1.44,1.69,-1.12,55.46,5.16
13.00,2.00,271.25,-23.38,16.81,-1.69,1.88,0.06,55.46,5.16
13.00,0.00,240.12,16.25,-126.25,-1.38,-1.69,-1.75,55.47,5.18
13.00,1.00,265.25,-14.62,-47.19,-1.94,1.12,-1.75,55.47,5.18
13.00,2.00,271.25,-23.44,16.88,-1.94,2.00,-0.44,55.47,5.18
13.00,0.00,240.31,16.19,-126.25,-0.81,-3.50,-1.31,55.45,5.20
13.00,1.00,265.25,-14.69,-47.19,-1.44,1.25,-2.44,55.45,5.20
13.00,2.00,271.31,-23.50,16.94,0.12,2.75,-1.56,55.45,5.20
13.00,0.00,240.44,16.12,-126.31,0.56,-4.56,-1.12,55.45,5.22
13.00,1.00,265.31,-14.75,-47.12,-1.56,0.81,-2.62,55.45,5.22
13.00,2.00,271.31,-23.50,16.94,0.38,2.56,-1.81,55.45,5.22
13.00,0.00,240.56,16.06,-126.31,0.94,-3.19,-1.25,55.49,5.24
13.00,1.00,265.31,-14.81,-47.06,-0.75,1.50,-2.31,55.49,5.24
13.00,2.00,271.38,-23.56,17.00,-0.19,2.00,-1.69,55.49,5.24
13.00,0.00,240.62,16.06,-126.38,1.31,-0.75,-0.50,55.53,5.26
13.00,1.00,265.38,-14.81,-47.00,-1.19,0.50,-1.94,55.53,5.26
13.00,2.00,271.38,-23.56,17.00,-0.31,1.62,-1.44,55.53,5.26
13.00,0.00,240.62,16.06,-126.38,1.19,0.31,-0.44,55.56,5.28
13.00,1.00,265.38,-14.88,-47.00,-1.06,0.88,-1.69,55.56,5.28
13.00,2.00,271.44,-23.62,17.06,0.12,1.56,-1.56,55.56,5.28
13.00,0.00,240.62,16.06,-126.38,1.25,-0.56,-0.62,55.58,5.30
13.00,1.00,265.44,-14.94,-46.94,-0.06,0.25,-1.31,55.58,5.30
13.00,2.00,271.44,-23.62,17.06,0.56,0.56,-0.94,55.58,5.30
13.00,0.00,240.56,16.06,-126.44,1.94,-0.44,-0.19,55.60,5.32
13.00,1.00,265.44,-14.94,-46.94,-0.12,-0.12,-0.69,55.60,5.32
13.00,2.00,271.50,-23.62,17.06,1.50,0.06,-1.31,55.60,5.32
13.00,0.00,240.56,16.06,-126.44,1.06,1.44,0.38,55.58,5.34
13.00,1.00,265.44,-14.94,-46.94,0.44,-0.12,0.00,55.58,5.34
13.00,2.00,271.56,-23.62,17.06,1.56,-0.06,-1.62,55.58,5.34
13.00,0.00,240.50,16.06,-126.44,0.81,0.81,0.06,55.59,5.36
13.00,1.00,265.44,-14.94,-46.94,0.06,-0.25,0.44,55.59,5.36
13.00,2.00,271.56,-23.62,17.06,0.50,-0.56,-1.06,55.59,5.36
13.00,0.00,240.50,16.06,-126.44,0.50,0.44,0.69,55.58,5.38
13.00,1.00,265.44,-14.94,-46.94,0.19,-0.25,0.44,55.58,5.38
13.00,2.00,271.62,-23.56,17.06,1.00,0.44,-1.62,55.58,5.38
13.00,0.00,240.44,16.12,-126.44,0.69,1.38,1.62,55.58,5.40
13.00,1.00,265.44,-14.94,-46.94,0.69,-0.25,0.62,55.58,5.40
13.00,2.00,271.62,-23.56,17.06,0.38,-0.81,-1.31,55.58,5.40
13.00,0.00,240.31,16.12,-126.50,1.06,1.94,1.31,55.57,5.42
13.00,1.00,265.44,-14.94,-46.94,1.06,-0.62,0.81,55.57,5.42
13.00,2.00,271.69,-23.56,17.12,1.56,-0.31,-1.81,55.57,5.42
13.00,0.00,240.25,16.19,-126.44,-0.25,0.88,0.88,55.52,5.44
13.00,1.00,265.44,-14.94,-46.94,1.00,-0.94,1.44,55.52,5.44
13.00,2.00,271.69,-23.56,17.06,1.62,-0.69,-1.75,55.52,5.44
13.00,0.00,240.38,16.12,-126.38,-1.44,-1.12,0.25,55.48,5.46
13.00,1.00,265.44,-14.88,-46.94,0.75,-1.38,1.88,55.48,5.46
13.00,2.00,271.75,-23.56,17.12,-0.31,-1.31,-1.88,55.48,5.46
