Iteration,IMUNo,OrientationX (deg),OrientationY,OrientationZ,GyroX (20rad/sec),GyroY,GyroZ,Elbow_Pos (rad),Time (sec)
22.00,0.00,274.31,2.06,-93.31,-0.31,0.25,0.00,-0.01,1.02
22.00,1.00,280.56,-2.62,-53.88,0.25,-0.06,-0.31,-0.01,1.02
22.00,2.00,294.62,-18.44,16.12,0.00,-0.44,0.19,-0.01,1.02
22.00,0.00,274.31,2.06,-93.31,-0.31,0.25,0.00,-0.01,1.02
22.00,1.00,280.56,-2.62,-53.88,0.25,-0.06,-0.31,-0.01,1.02
22.00,2.00,294.62,-18.44,16.12,0.00,-0.44,0.19,-0.01,1.02
22.00,0.00,274.31,2.06,-93.31,-0.06,0.25,0.06,-0.01,1.04
22.00,1.00,280.56,-2.62,-53.88,0.31,0.19,-0.25,-0.01,1.04
22.00,2.00,294.62,-18.44,16.12,0.06,-0.12,0.38,-0.01,1.04
22.00,0.00,274.31,2.06,-93.31,-0.12,0.50,0.25,-0.02,1.06
22.00,1.00,280.56,-2.62,-53.88,0.38,0.19,0.12,-0.02,1.06
22.00,2.00,294.62,-18.44,16.12,0.00,-0.25,0.50,-0.02,1.06
22.00,0.00,274.25,2.06,-93.31,-0.25,0.38,0.25,-0.02,1.08
22.00,1.00,280.56,-2.62,-53.88,0.19,-0.19,0.00,-0.02,1.08
22.00,2.00,294.62,-18.44,16.12,-0.06,-0.31,0.50,-0.02,1.08
22.00,0.00,274.25,2.06,-93.31,-0.19,0.75,0.19,-0.03,1.10
22.00,1.00,280.56,-2.62,-53.88,0.44,-0.19,0.06,-0.03,1.10
22.00,2.00,294.62,-18.44,16.12,0.06,-0.50,0.62,-0.03,1.10
22.00,0.00,274.25,2.06,-93.31,0.12,0.88,0.25,-0.02,1.12
22.00,1.00,280.56,-2.62,-53.88,0.12,0.00,-0.12,-0.02,1.12
22.00,2.00,294.62,-18.50,16.12,-0.06,-0.38,0.44,-0.02,1.12
22.00,0.00,274.25,2.06,-93.31,0.25,0.81,0.19,-0.03,1.14
22.00,1.00,280.56,-2.62,-53.88,0.38,0.19,-0.38,-0.03,1.14
22.00,2.00,294.62,-18.50,16.12,0.50,0.06,0.31,-0.03,1.14
22.00,0.00,274.25,2.06,-93.31,0.12,0.31,0.19,-0.03,1.16
22.00,1.00,280.56,-2.62,-53.88,0.25,0.12,-0.38,-0.03,1.16
22.00,2.00,294.62,-18.50,16.12,0.19,0.06,0.38,-0.03,1.16
22.00,0.00,274.25,2.06,-93.31,-0.06,0.00,0.00,-0.04,1.18
22.00,1.00,280.56,-2.62,-53.88,0.25,0.06,-0.31,-0.04,1.18
22.00,2.00,294.62,-18.50,16.12,0.06,-0.25,0.31,-0.04,1.18
22.00,0.00,274.25,2.06,-93.31,-0.06,-0.56,-0.12,-0.05,1.20
22.00,1.00,280.56,-2.62,-53.88,0.62,-0.31,-0.25,-0.05,1.20
22.00,2.00,294.62,-18.50,16.19,0.25,-0.12,0.31,-0.05,1.20
22.00,0.00,274.25,2.06,-93.31,-0.12,-0.38,-0.19,-0.07,1.22
22.00,1.00,280.56,-2.62,-53.88,0.44,-0.31,-0.56,-0.07,1.22
22.00,2.00,294.62,-18.50,16.19,0.75,0.06,0.00,-0.07,1.22
22.00,0.00,274.25,2.06,-93.31,-0.19,-0.50,-0.19,-0.10,1.24
22.00,1.00,280.56,-2.62,-53.88,0.31,0.00,-0.62,-0.10,1.24
22.00,2.00,294.62,-18.50,16.12,0.62,0.44,-0.31,-0.10,1.24
22.00,0.00,274.25,2.06,-93.31,-0.12,-0.44,-0.12,-0.11,1.26
22.00,1.00,280.56,-2.62,-53.88,0.06,-0.12,-0.62,-0.11,1.26
22.00,2.00,294.62,-18.50,16.12,0.06,0.06,-0.38,-0.11,1.26
22.00,0.00,274.25,2.06,-93.31,-0.31,-0.31,-0.19,-0.11,1.28
22.00,1.00,280.56,-2.62,-53.88,-0.12,-0.50,-0.50,-0.11,1.28
22.00,2.00,294.62,-18.50,16.12,-0.19,-0.06,-0.19,-0.11,1.28
22.00,0.00,274.25,2.06,-93.31,-0.38,-0.50,-0.31,-0.12,1.30
22.00,1.00,280.56,-2.62,-53.88,0.00,-0.56,-0.31,-0.12,1.30
22.00,2.00,294.62,-18.50,16.12,-0.06,-0.31,0.06,-0.12,1.30
22.00,0.00,274.25,2.06,-93.31,-0.75,-0.31,-0.25,-0.15,1.32
22.00,1.00,280.56,-2.62,-53.88,-0.25,-0.38,-0.06,-0.15,1.32
22.00,2.00,294.62,-18.50,16.19,0.31,-0.50,-0.25,-0.15,1.32
22.00,0.00,274.25,2.06,-93.31,-0.56,0.25,-0.06,-0.17,1.34
22.00,1.00,280.56,-2.62,-53.88,-0.44,0.25,-0.06,-0.17,1.34
22.00,2.00,294.62,-18.50,16.19,0.12,-0.31,-0.25,-0.17,1.34
22.00,0.00,274.25,2.06,-93.31,-0.31,0.50,0.31,-0.16,1.36
22.00,1.00,280.56,-2.62,-53.88,-0.38,0.00,0.00,-0.16,1.36
22.00,2.00,294.62,-18.56,16.19,-0.56,-0.06,-0.12,-0.16,1.36
22.00,0.00,274.25,2.06,-93.31,-0.38,0.38,0.50,-0.16,1.38
22.00,1.00,280.56,-2.62,-53.88,-0.56,0.12,0.19,-0.16,1.38
22.00,2.00,294.62,-18.56,16.19,-0.38,-0.31,0.31,-0.16,1.38
22.00,0.00,274.25,2.06,-93.31,-0.69,0.75,0.12,-0.17,1.40
22.00,1.00,280.56,-2.62,-53.88,-0.38,0.25,0.38,-0.17,1.40
22.00,2.00,294.62,-18.56,16.19,-0.44,-0.50,0.31,-0.17,1.40
22.00,0.00,274.19,2.06,-93.25,-0.50,0.94,0.19,-0.18,1.42
22.00,1.00,280.56,-2.62,-53.88,-0.44,0.00,0.31,-0.18,1.42
22.00,2.00,294.62,-18.56,16.19,-0.31,-0.56,0.56,-0.18,1.42
22.00,0.00,274.19,2.06,-93.25,-0.31,1.31,0.62,-0.17,1.44
22.00,1.00,280.56,-2.62,-53.88,-0.50,0.06,0.44,-0.17,1.44
22.00,2.00,294.62,-18.56,16.19,-0.69,-0.75,0.75,-0.17,1.44
22.00,0.00,274.12,2.12,-93.25,0.06,1.44,0.88,-0.15,1.46
22.00,1.00,280.56,-2.62,-53.88,-0.56,0.19,0.56,-0.15,1.46
22.00,2.00,294.62,-18.50,16.19,-0.62,-0.75,1.06,-0.15,1.46
22.00,0.00,274.12,2.12,-93.25,0.44,1.44,1.06,-0.11,1.48
22.00,1.00,280.56,-2.62,-53.88,-0.56,0.31,0.56,-0.11,1.48
22.00,2.00,294.56,-18.56,16.19,-0.88,-0.75,0.81,-0.11,1.48
22.00,0.00,274.06,2.12,-93.25,0.62,2.12,1.19,-0.06,1.50
22.00,1.00,280.56,-2.62,-53.88,-0.69,0.56,0.69,-0.06,1.50
22.00,2.00,294.56,-18.50,16.19,-0.81,-1.06,1.19,-0.06,1.50
22.00,0.00,274.00,2.19,-93.31,1.69,2.44,1.31,0.02,1.52
22.00,1.00,280.56,-2.62,-53.81,-0.75,0.25,0.56,0.02,1.52
22.00,2.00,294.56,-18.50,16.19,-1.00,-1.25,1.19,0.02,1.52
22.00,0.00,273.88,2.19,-93.31,2.00,2.44,1.62,0.12,1.54
22.00,1.00,280.56,-2.62,-53.81,-1.12,0.19,0.25,0.12,1.54
22.00,2.00,294.50,-18.50,16.25,-1.25,-1.38,1.88,0.12,1.54
22.00,0.00,273.81,2.25,-93.38,4.44,2.44,2.38,0.28,1.56
22.00,1.00,280.56,-2.62,-53.81,-1.12,0.38,-0.38,0.28,1.56
22.00,2.00,294.44,-18.50,16.25,-0.69,-1.25,1.50,0.28,1.56
22.00,0.00,273.69,2.31,-93.50,5.12,2.94,2.50,0.45,1.58
22.00,1.00,280.56,-2.62,-53.75,-1.00,0.19,-0.50,0.45,1.58
22.00,2.00,294.44,-18.50,16.25,-0.50,-0.50,0.81,0.45,1.58
22.00,0.00,273.56,2.38,-93.62,6.56,3.31,2.88,0.67,1.60
22.00,1.00,280.56,-2.62,-53.75,-0.88,0.38,-0.19,0.67,1.60
22.00,2.00,294.44,-18.50,16.25,-0.81,-0.56,1.00,0.67,1.60
22.00,0.00,273.44,2.44,-93.81,8.06,4.25,2.94,0.96,1.62
22.00,1.00,280.56,-2.62,-53.75,-0.56,0.00,-0.31,0.96,1.62
22.00,2.00,294.38,-18.50,16.25,-1.12,-1.12,1.25,0.96,1.62
22.00,0.00,273.25,2.50,-94.00,9.00,4.12,3.06,1.24,1.64
22.00,1.00,280.56,-2.62,-53.75,-0.50,-0.19,-0.75,1.24,1.64
22.00,2.00,294.38,-18.50,16.25,-0.31,-1.06,1.44,1.24,1.64
22.00,0.00,273.12,2.56,-94.19,10.06,4.38,2.81,1.54,1.66
22.00,1.00,280.56,-2.62,-53.75,-0.75,0.06,-0.69,1.54,1.66
22.00,2.00,294.31,-18.50,16.25,0.25,0.00,1.25,1.54,1.66
22.00,0.00,272.94,2.62,-94.44,11.50,4.19,2.75,1.93,1.68
22.00,1.00,280.56,-2.62,-53.75,-0.31,0.56,-0.69,1.93,1.68
22.00,2.00,294.31,-18.50,16.25,-1.12,0.62,1.94,1.93,1.68
22.00,0.00,272.81,2.69,-94.69,13.12,3.25,3.50,2.38,1.70
22.00,1.00,280.56,-2.62,-53.75,-0.25,1.00,-0.69,2.38,1.70
22.00,2.00,294.25,-18.56,16.31,-1.88,1.00,2.38,2.38,1.70
22.00,0.00,272.69,2.75,-94.94,14.88,2.38,4.69,2.89,1.72
22.00,1.00,280.56,-2.69,-53.75,-0.12,1.19,-0.38,2.89,1.72
22.00,2.00,294.19,-18.56,16.31,-1.56,0.75,2.44,2.89,1.72
22.00,0.00,272.50,2.88,-95.31,16.44,1.31,4.94,3.41,1.74
22.00,1.00,280.56,-2.69,-53.75,0.06,1.06,-0.50,3.41,1.74
22.00,2.00,294.12,-18.62,16.31,-0.75,0.25,2.25,3.41,1.74
22.00,0.00,272.38,2.94,-95.62,16.12,1.12,3.25,3.92,1.76
22.00,1.00,280.56,-2.69,-53.75,0.25,1.12,-0.19,3.92,1.76
22.00,2.00,294.12,-18.62,16.31,-0.44,0.81,2.69,3.92,1.76
22.00,0.00,272.25,3.00,-95.94,16.31,3.00,3.75,4.44,1.78
22.00,1.00,280.56,-2.69,-53.75,0.31,1.19,0.12,4.44,1.78
22.00,2.00,294.06,-18.62,16.31,-0.75,0.19,2.94,4.44,1.78
22.00,0.00,272.06,3.12,-96.25,16.56,4.38,4.50,4.97,1.80
22.00,1.00,280.50,-2.75,-53.75,0.38,1.44,0.19,4.97,1.80
22.00,2.00,294.00,-18.69,16.31,-0.75,-0.19,3.62,4.97,1.80
22.00,0.00,271.81,3.25,-96.62,17.44,4.69,5.31,5.52,1.82
22.00,1.00,280.50,-2.75,-53.75,0.12,1.75,0.06,5.52,1.82
22.00,2.00,293.88,-18.69,16.25,-0.56,-0.38,4.31,5.52,1.82
22.00,0.00,271.56,3.38,-97.00,19.50,4.62,8.25,6.16,1.84
22.00,1.00,280.50,-2.75,-53.75,0.31,2.12,0.25,6.16,1.84
22.00,2.00,293.81,-18.69,16.25,-1.38,0.25,4.88,6.16,1.84
22.00,0.00,271.25,3.56,-97.38,19.19,4.81,7.62,6.82,1.86
22.00,1.00,280.44,-2.81,-53.75,0.12,2.69,0.81,6.82,1.86
22.00,2.00,293.69,-18.75,16.25,-2.56,-0.38,5.88,6.82,1.86
22.00,0.00,270.94,3.75,-97.75,19.75,5.00,7.69,7.50,1.88
22.00,1.00,280.44,-2.81,-53.75,0.69,2.62,0.62,7.50,1.88
22.00,2.00,293.56,-18.75,16.31,-2.44,-0.75,6.25,7.50,1.88
22.00,0.00,270.62,3.88,-98.12,19.00,6.25,7.50,8.12,1.90
22.00,1.00,280.38,-2.81,-53.75,0.62,3.12,0.69,8.12,1.90
22.00,2.00,293.44,-18.81,16.25,-1.19,-0.56,6.69,8.12,1.90
22.00,0.00,270.31,4.06,-98.50,18.62,6.38,7.44,8.71,1.92
22.00,1.00,280.31,-2.88,-53.81,0.88,3.19,1.06,8.71,1.92
22.00,2.00,293.25,-18.81,16.25,-0.88,-0.69,7.25,8.71,1.92
22.00,0.00,270.00,4.25,-98.88,20.75,3.94,9.94,9.39,1.94
22.00,1.00,280.31,-2.88,-53.81,0.44,3.44,1.19,9.39,1.94
22.00,2.00,293.12,-18.88,16.25,-1.50,-1.25,7.62,9.39,1.94
22.00,0.00,269.75,4.44,-99.31,20.50,2.31,9.62,10.07,1.96
22.00,1.00,280.25,-2.88,-53.81,0.81,3.69,0.94,10.07,1.96
22.00,2.00,292.94,-18.88,16.19,-1.44,-2.19,8.00,10.07,1.96
22.00,0.00,269.50,4.56,-99.62,18.00,2.56,6.56,10.64,1.98
22.00,1.00,280.19,-2.94,-53.81,0.50,3.69,0.62,10.64,1.98
22.00,2.00,292.81,-18.88,16.19,-0.94,-1.62,7.69,10.64,1.98
22.00,0.00,269.31,4.69,-100.00,18.31,2.50,6.00,11.22,2.00
22.00,1.00,280.12,-3.00,-53.81,0.56,4.19,0.44,11.22,2.00
22.00,2.00,292.62,-18.88,16.12,-0.50,-1.38,7.31,11.22,2.00
22.00,0.00,269.12,4.81,-100.44,22.62,-1.75,9.38,11.93,2.02
22.00,1.00,280.06,-3.00,-53.81,0.56,4.31,0.56,11.93,2.02
22.00,2.00,292.50,-18.88,16.06,-0.62,-1.12,7.12,11.93,2.02
22.00,0.00,269.00,5.00,-100.88,23.38,-4.94,9.44,12.68,2.04
22.00,1.00,280.06,-3.06,-53.81,0.38,4.06,0.62,12.68,2.04
22.00,2.00,292.38,-18.88,16.06,-1.25,-1.75,6.75,12.68,2.04
22.00,0.00,268.88,5.12,-101.31,21.75,-3.75,6.81,13.38,2.06
22.00,1.00,280.00,-3.12,-53.81,0.25,3.62,0.31,13.38,2.06
22.00,2.00,292.25,-18.88,16.00,-1.12,-2.00,6.19,13.38,2.06
22.00,0.00,268.81,5.25,-101.75,20.25,-1.75,4.56,14.03,2.08
22.00,1.00,280.00,-3.12,-53.81,0.88,3.44,0.19,14.03,2.08
22.00,2.00,292.12,-18.94,16.00,-0.94,-1.38,5.56,14.03,2.08
22.00,0.00,268.69,5.31,-102.19,24.19,-2.25,7.00,14.77,2.10
22.00,1.00,279.94,-3.19,-53.88,0.88,3.12,-0.38,14.77,2.10
22.00,2.00,292.00,-18.94,16.00,0.00,-1.00,6.06,14.77,2.10
22.00,0.00,268.50,5.50,-102.69,27.56,-3.94,10.44,15.59,2.12
22.00,1.00,279.88,-3.25,-53.88,0.75,3.38,-0.25,15.59,2.12
22.00,2.00,291.88,-18.94,15.94,0.75,-0.75,6.44,15.59,2.12
22.00,0.00,268.38,5.69,-103.25,25.94,-3.81,9.00,16.36,2.14
22.00,1.00,279.88,-3.25,-53.88,0.56,3.44,0.00,16.36,2.14
22.00,2.00,291.75,-18.94,15.88,0.75,-0.88,6.81,16.36,2.14
22.00,0.00,268.25,5.81,-103.69,24.44,-2.44,6.62,17.09,2.16
22.00,1.00,279.81,-3.31,-53.94,0.81,3.69,-0.44,17.09,2.16
22.00,2.00,291.62,-18.94,15.81,0.38,-1.75,6.25,17.09,2.16
22.00,0.00,268.06,5.94,-104.25,26.50,-3.31,7.88,17.89,2.18
22.00,1.00,279.81,-3.31,-53.94,0.56,3.06,-0.50,17.89,2.18
22.00,2.00,291.50,-18.94,15.75,0.31,-1.69,6.12,17.89,2.18
22.00,0.00,267.94,6.06,-104.81,29.31,-4.00,9.81,18.79,2.20
22.00,1.00,279.75,-3.38,-53.94,1.00,3.31,-0.25,18.79,2.20
22.00,2.00,291.38,-19.00,15.75,0.19,-0.88,6.38,18.79,2.20
22.00,0.00,267.75,6.25,-105.38,29.12,-2.94,9.12,19.64,2.22
22.00,1.00,279.75,-3.44,-53.94,0.62,3.44,0.00,19.64,2.22
22.00,2.00,291.25,-19.00,15.69,1.06,-1.00,6.56,19.64,2.22
22.00,0.00,267.56,6.38,-105.94,27.06,-1.19,7.56,20.41,2.24
22.00,1.00,279.75,-3.44,-54.00,1.44,4.12,0.06,20.41,2.24
22.00,2.00,291.06,-19.00,15.56,2.00,-1.44,7.75,20.41,2.24
22.00,0.00,267.31,6.50,-106.44,26.06,0.00,8.25,21.14,2.26
22.00,1.00,279.69,-3.50,-54.00,1.44,4.00,0.00,21.14,2.26
22.00,2.00,290.94,-19.00,15.50,2.31,-1.75,8.56,21.14,2.26
22.00,0.00,267.06,6.69,-106.94,26.50,0.69,9.31,21.91,2.28
22.00,1.00,279.62,-3.50,-54.06,1.44,4.50,0.81,21.91,2.28
22.00,2.00,290.75,-19.00,15.38,1.12,-2.81,10.00,21.91,2.28
22.00,0.00,266.75,6.88,-107.50,27.12,0.75,9.94,22.73,2.30
22.00,1.00,279.56,-3.56,-54.06,1.19,4.69,1.31,22.73,2.30
22.00,2.00,290.50,-19.00,15.31,0.31,-3.56,10.31,22.73,2.30
22.00,0.00,266.44,7.06,-108.00,26.12,0.81,8.94,23.53,2.32
22.00,1.00,279.50,-3.62,-54.12,1.06,4.50,1.62,23.53,2.32
22.00,2.00,290.31,-19.00,15.25,0.00,-4.06,11.06,23.53,2.32
22.00,0.00,266.19,7.19,-108.50,25.12,1.00,8.25,24.30,2.34
22.00,1.00,279.44,-3.62,-54.12,0.56,4.69,2.19,24.30,2.34
22.00,2.00,290.06,-19.00,15.12,0.00,-4.00,11.31,24.30,2.34
22.00,0.00,265.94,7.38,-108.94,24.06,1.00,7.56,25.01,2.36
22.00,1.00,279.31,-3.62,-54.12,1.62,4.75,2.12,25.01,2.36
22.00,2.00,289.81,-18.94,15.06,0.69,-3.38,11.94,25.01,2.36
22.00,0.00,265.69,7.50,-109.44,24.25,1.06,8.19,25.74,2.38
22.00,1.00,279.25,-3.69,-54.19,1.50,4.88,2.12,25.74,2.38
22.00,2.00,289.56,-19.00,15.00,0.50,-2.81,12.00,25.74,2.38
22.00,0.00,265.38,7.62,-109.88,23.06,1.31,7.94,26.46,2.40
22.00,1.00,279.12,-3.69,-54.25,0.94,5.38,2.12,26.46,2.40
22.00,2.00,289.38,-19.00,14.88,-0.56,-2.38,12.00,26.46,2.40
22.00,0.00,265.12,7.75,-110.25,21.88,1.75,7.62,27.17,2.42
22.00,1.00,279.06,-3.69,-54.25,-0.25,5.75,2.50,27.17,2.42
22.00,2.00,289.12,-19.00,14.81,-1.44,-2.81,12.38,27.17,2.42
22.00,0.00,264.94,7.88,-110.62,19.00,2.25,6.44,27.80,2.44
22.00,1.00,278.94,-3.75,-54.25,-0.12,5.31,2.31,27.80,2.44
22.00,2.00,288.88,-19.00,14.75,-1.44,-2.81,12.44,27.80,2.44
22.00,0.00,264.69,8.00,-111.00,19.88,0.38,6.75,28.45,2.46
22.00,1.00,278.88,-3.75,-54.25,0.56,6.00,2.31,28.45,2.46
22.00,2.00,288.62,-19.00,14.75,-1.50,-2.19,12.12,28.45,2.46
22.00,0.00,264.50,8.12,-111.38,21.06,-1.75,8.94,29.16,2.48
22.00,1.00,278.75,-3.81,-54.31,0.44,6.38,2.38,29.16,2.48
22.00,2.00,288.38,-19.06,14.69,-2.00,-1.75,12.50,29.16,2.48
22.00,0.00,264.25,8.31,-111.81,20.69,-0.88,8.50,29.85,2.50
22.00,1.00,278.62,-3.81,-54.31,0.62,6.00,2.44,29.85,2.50
22.00,2.00,288.06,-19.06,14.62,-1.88,-1.81,12.50,29.85,2.50
22.00,0.00,264.06,8.38,-112.19,18.19,1.38,5.50,30.41,2.52
22.00,1.00,278.56,-3.88,-54.31,-0.19,5.50,1.50,30.41,2.52
22.00,2.00,287.88,-19.12,14.56,-0.44,-1.62,11.19,30.41,2.52
22.00,0.00,263.81,8.50,-112.56,18.69,1.81,4.56,31.04,2.54
22.00,1.00,278.44,-3.94,-54.31,0.25,6.44,1.19,31.04,2.54
22.00,2.00,287.62,-19.12,14.50,-1.69,-2.88,11.06,31.04,2.54
22.00,0.00,263.56,8.62,-113.00,24.19,0.31,9.88,31.85,2.56
22.00,1.00,278.38,-4.00,-54.38,-0.31,5.69,1.12,31.85,2.56
22.00,2.00,287.38,-19.12,14.50,-2.44,-3.44,12.12,31.85,2.56
22.00,0.00,263.19,8.88,-113.50,24.12,0.50,11.44,32.62,2.58
22.00,1.00,278.31,-4.00,-54.38,-0.69,5.19,1.56,32.62,2.58
22.00,2.00,287.12,-19.12,14.44,-0.88,-3.00,12.19,32.62,2.58
22.00,0.00,262.88,9.00,-113.94,20.69,0.69,7.94,33.23,2.60
22.00,1.00,278.19,-4.06,-54.38,0.44,5.44,1.56,33.23,2.60
22.00,2.00,286.94,-19.12,14.38,0.75,-2.25,10.56,33.23,2.60
22.00,0.00,262.62,9.12,-114.25,17.69,2.00,4.31,33.74,2.62
22.00,1.00,278.12,-4.12,-54.38,-0.06,5.00,0.88,33.74,2.62
22.00,2.00,286.75,-19.12,14.31,0.75,-1.56,11.00,33.74,2.62
22.00,0.00,262.44,9.19,-114.62,18.62,-0.06,3.94,34.34,2.64
22.00,1.00,278.06,-4.12,-54.38,0.00,5.50,1.38,34.34,2.64
22.00,2.00,286.50,-19.19,14.25,-0.94,-2.06,11.12,34.34,2.64
22.00,0.00,262.25,9.31,-115.06,24.00,-3.44,7.75,35.11,2.66
22.00,1.00,278.00,-4.19,-54.38,0.06,5.00,0.81,35.11,2.66
22.00,2.00,286.25,-19.19,14.19,-1.12,-2.50,12.19,35.11,2.66
22.00,0.00,262.12,9.38,-115.56,24.56,-4.44,7.88,35.87,2.68
22.00,1.00,277.94,-4.25,-54.38,-0.69,4.88,0.94,35.87,2.68
22.00,2.00,286.00,-19.19,14.12,-0.31,-1.81,12.25,35.87,2.68
22.00,0.00,262.00,9.44,-116.00,20.88,-3.19,3.75,36.49,2.70
22.00,1.00,277.88,-4.25,-54.38,-0.38,4.56,1.06,36.49,2.70
22.00,2.00,285.75,-19.25,14.00,0.69,-1.50,12.69,36.49,2.70
22.00,0.00,261.88,9.50,-116.44,20.62,-1.94,3.12,37.11,2.72
22.00,1.00,277.81,-4.31,-54.44,1.31,5.69,0.81,37.11,2.72
22.00,2.00,285.50,-19.25,13.94,0.38,-1.31,13.56,37.11,2.72
22.00,0.00,261.69,9.56,-116.88,24.88,-1.25,7.06,37.86,2.74
22.00,1.00,277.69,-4.38,-54.44,0.81,5.31,1.06,37.86,2.74
22.00,2.00,285.25,-19.31,13.81,0.31,-1.38,14.31,37.86,2.74
22.00,0.00,261.38,9.75,-117.44,25.94,-0.62,9.50,38.65,2.76
22.00,1.00,277.62,-4.38,-54.44,0.44,5.88,2.00,38.65,2.76
22.00,2.00,284.94,-19.38,13.75,-0.06,-1.50,14.06,38.65,2.76
22.00,0.00,261.06,9.88,-117.88,23.19,0.94,7.50,39.37,2.78
22.00,1.00,277.50,-4.44,-54.50,0.38,6.25,1.75,39.37,2.78
22.00,2.00,284.69,-19.38,13.62,-0.19,-2.31,15.31,39.37,2.78
22.00,0.00,260.75,10.00,-118.31,20.31,2.44,5.50,39.99,2.80
22.00,1.00,277.44,-4.50,-54.50,0.75,6.25,1.38,39.99,2.80
22.00,2.00,284.38,-19.38,13.56,-0.25,-2.94,15.38,39.99,2.80
22.00,0.00,260.50,10.12,-118.69,19.12,2.00,5.31,40.54,2.82
22.00,1.00,277.31,-4.50,-54.50,0.94,6.00,2.00,40.54,2.82
22.00,2.00,284.06,-19.44,13.44,1.25,-2.50,15.06,40.54,2.82
22.00,0.00,260.38,10.12,-118.88,20.44,-0.06,6.62,41.10,2.84
22.00,1.00,277.25,-4.56,-54.56,0.81,6.50,2.19,41.10,2.84
22.00,2.00,283.75,-19.44,13.31,2.00,-1.94,14.75,41.10,2.84
22.00,0.00,260.06,10.31,-119.44,20.44,-1.56,7.94,41.68,2.86
22.00,1.00,277.12,-4.62,-54.56,0.44,7.06,2.25,41.68,2.86
22.00,2.00,283.50,-19.50,13.19,1.50,-1.94,15.31,41.68,2.86
22.00,0.00,259.81,10.44,-119.81,19.00,-0.56,7.75,42.29,2.88
22.00,1.00,277.00,-4.62,-54.62,-0.06,6.69,2.19,42.29,2.88
22.00,2.00,283.19,-19.50,13.06,-0.81,-2.19,15.94,42.29,2.88
22.00,0.00,259.69,10.44,-119.94,16.50,0.62,5.56,42.85,2.90
22.00,1.00,276.88,-4.69,-54.62,0.75,7.75,2.75,42.85,2.90
22.00,2.00,282.88,-19.56,13.00,-1.94,-2.19,15.88,42.85,2.90
22.00,0.00,259.56,10.50,-120.19,16.56,-1.12,4.69,43.41,2.92
22.00,1.00,276.75,-4.69,-54.69,1.12,7.81,3.19,43.41,2.92
22.00,2.00,282.56,-19.56,12.94,-1.50,-1.25,15.69,43.41,2.92
22.00,0.00,259.44,10.56,-120.56,19.19,-4.44,8.38,44.04,2.94
22.00,1.00,276.62,-4.75,-54.75,1.88,8.81,3.12,44.04,2.94
22.00,2.00,282.25,-19.62,12.81,-1.50,0.25,15.75,44.04,2.94
22.00,0.00,259.25,10.69,-121.00,19.75,-4.31,11.25,44.70,2.96
22.00,1.00,276.44,-4.81,-54.75,1.44,8.56,3.56,44.70,2.96
22.00,2.00,281.94,-19.69,12.75,-2.06,0.50,16.12,44.70,2.96
22.00,0.00,259.00,10.81,-121.38,16.50,-2.62,9.50,45.32,2.98
22.00,1.00,276.25,-4.81,-54.81,0.81,9.25,4.00,45.32,2.98
22.00,2.00,281.56,-19.81,12.69,-3.50,-0.62,17.06,45.32,2.98
22.00,0.00,258.81,10.94,-121.69,12.94,-1.12,5.81,45.81,3.00
22.00,1.00,276.12,-4.88,-54.88,0.94,9.81,4.31,45.81,3.00
22.00,2.00,281.25,-19.81,12.69,-3.25,-1.44,16.75,45.81,3.00
22.00,0.00,258.69,11.00,-121.88,10.44,-0.50,3.25,46.18,3.02
22.00,1.00,275.94,-4.94,-54.88,-0.19,9.94,4.06,46.18,3.02
22.00,2.00,280.94,-19.88,12.62,-1.69,-0.44,15.44,46.18,3.02
22.00,0.00,258.50,11.06,-122.12,15.25,-2.88,7.62,46.70,3.04
22.00,1.00,275.75,-5.00,-54.88,0.19,9.75,3.38,46.70,3.04
22.00,2.00,280.62,-19.94,12.56,-1.69,0.06,15.06,46.70,3.04
22.00,0.00,258.31,11.19,-122.44,16.06,-2.25,9.31,47.26,3.06
22.00,1.00,275.56,-5.06,-54.94,0.38,9.56,3.62,47.26,3.06
22.00,2.00,280.31,-20.00,12.50,-2.19,-1.88,15.75,47.26,3.06
22.00,0.00,258.12,11.31,-122.75,12.56,0.00,6.00,47.67,3.08
22.00,1.00,275.44,-5.06,-54.94,-0.12,8.38,3.50,47.67,3.08
22.00,2.00,280.00,-20.00,12.38,-1.00,-2.19,15.62,47.67,3.08
22.00,0.00,257.88,11.38,-123.00,11.75,0.56,5.12,48.02,3.10
22.00,1.00,275.31,-5.12,-54.94,0.12,8.69,3.19,48.02,3.10
22.00,2.00,279.75,-20.06,12.31,0.25,-1.50,14.19,48.02,3.10
22.00,0.00,257.62,11.50,-123.25,12.88,1.25,7.62,48.41,3.12
22.00,1.00,275.12,-5.19,-55.00,-0.38,7.94,3.12,48.41,3.12
22.00,2.00,279.44,-20.06,12.19,0.19,-0.94,14.19,48.41,3.12
22.00,0.00,257.31,11.62,-123.50,13.44,1.44,8.94,48.88,3.14
22.00,1.00,275.00,-5.19,-55.00,-0.38,8.75,3.00,48.88,3.14
22.00,2.00,279.12,-20.12,12.12,-1.94,-1.81,15.19,48.88,3.14
22.00,0.00,257.00,11.81,-123.81,10.94,2.50,7.31,49.33,3.16
22.00,1.00,274.88,-5.25,-55.00,-1.12,8.06,3.06,49.33,3.16
22.00,2.00,278.81,-20.12,12.06,-3.69,-3.75,16.12,49.33,3.16
22.00,0.00,256.75,11.88,-123.94,9.12,2.25,5.31,49.71,3.18
22.00,1.00,274.75,-5.31,-55.00,-1.12,8.00,2.75,49.71,3.18
22.00,2.00,278.50,-20.12,12.06,-3.50,-3.81,15.81,49.71,3.18
22.00,0.00,256.56,12.00,-124.12,9.19,1.62,5.31,50.06,3.20
22.00,1.00,274.62,-5.38,-55.00,-1.50,7.12,1.75,50.06,3.20
22.00,2.00,278.19,-20.12,12.00,-2.12,-1.69,14.25,50.06,3.20
22.00,0.00,256.31,12.06,-124.31,10.44,-0.25,7.12,50.42,3.22
22.00,1.00,274.50,-5.44,-55.00,-1.00,8.25,1.88,50.42,3.22
22.00,2.00,277.94,-20.19,11.94,-1.38,-0.62,14.12,50.42,3.22
22.00,0.00,256.12,12.19,-124.56,11.25,-2.19,8.06,50.80,3.24
22.00,1.00,274.38,-5.50,-55.00,-2.00,7.62,1.88,50.80,3.24
22.00,2.00,277.62,-20.19,11.88,-1.12,-0.25,14.19,50.80,3.24
22.00,0.00,256.00,12.25,-124.75,9.81,-1.81,6.50,51.19,3.26
22.00,1.00,274.25,-5.50,-54.94,-0.88,8.81,2.81,51.19,3.26
22.00,2.00,277.38,-20.25,11.81,-2.94,-2.81,15.06,51.19,3.26
22.00,0.00,255.88,12.31,-124.94,6.56,-0.56,2.50,51.49,3.28
22.00,1.00,274.12,-5.56,-55.00,-1.19,8.31,2.38,51.49,3.28
22.00,2.00,277.00,-20.25,11.81,-3.12,-4.12,15.69,51.49,3.28
22.00,0.00,255.88,12.31,-125.06,7.12,-2.38,1.75,51.70,3.30
22.00,1.00,274.00,-5.62,-54.94,-1.75,7.94,2.06,51.70,3.30
22.00,2.00,276.75,-20.25,11.69,0.12,-2.00,13.38,51.70,3.30
22.00,0.00,255.81,12.31,-125.25,9.88,-4.25,5.06,51.99,3.32
22.00,1.00,273.88,-5.69,-54.94,-1.69,8.06,1.94,51.99,3.32
22.00,2.00,276.50,-20.25,11.62,0.25,-1.38,12.31,51.99,3.32
22.00,0.00,255.75,12.38,-125.50,11.88,-3.75,7.75,52.36,3.34
22.00,1.00,273.75,-5.75,-54.88,-2.81,6.69,1.75,52.36,3.34
22.00,2.00,276.25,-20.25,11.50,-0.19,-2.25,13.06,52.36,3.34
22.00,0.00,255.56,12.50,-125.75,9.19,0.19,4.94,52.65,3.36
22.00,1.00,273.62,-5.81,-54.88,-1.31,8.00,1.94,52.65,3.36
22.00,2.00,276.00,-20.25,11.44,-0.38,-2.94,12.75,52.65,3.36
22.00,0.00,255.38,12.56,-125.88,7.00,1.44,1.56,52.88,3.38
22.00,1.00,273.56,-5.88,-54.88,-2.50,6.69,2.12,52.88,3.38
22.00,2.00,275.75,-20.25,11.31,-0.38,-3.50,12.44,52.88,3.38
22.00,0.00,255.31,12.56,-126.00,9.50,-0.38,3.25,53.19,3.40
22.00,1.00,273.44,-5.94,-54.88,-1.44,6.88,2.25,53.19,3.40
22.00,2.00,275.50,-20.25,11.25,-0.62,-3.69,12.12,53.19,3.40
22.00,0.00,255.06,12.69,-126.25,10.88,0.94,6.38,53.54,3.42
22.00,1.00,273.31,-5.94,-54.81,-1.62,6.19,2.19,53.54,3.42
22.00,2.00,275.25,-20.19,11.19,-0.50,-3.00,11.88,53.54,3.42
22.00,0.00,254.75,12.75,-126.38,8.50,3.62,4.38,53.82,3.44
22.00,1.00,273.19,-6.00,-54.81,-1.75,6.31,2.25,53.82,3.44
22.00,2.00,275.06,-20.19,11.12,-0.75,-3.12,11.44,53.82,3.44
22.00,0.00,254.56,12.81,-126.38,3.81,5.06,-0.25,53.96,3.46
22.00,1.00,273.06,-6.00,-54.75,-2.38,6.50,1.94,53.96,3.46
22.00,2.00,274.81,-20.19,11.06,-0.62,-2.50,11.12,53.96,3.46
22.00,0.00,254.44,12.88,-126.44,5.00,4.00,0.06,54.16,3.48
22.00,1.00,273.00,-6.06,-54.75,-2.50,7.25,1.94,54.16,3.48
22.00,2.00,274.62,-20.19,11.00,-1.56,-1.31,10.75,54.16,3.48
22.00,0.00,254.12,12.94,-126.56,7.81,3.94,4.75,54.46,3.50
22.00,1.00,272.88,-6.12,-54.75,-2.31,7.44,2.75,54.46,3.50
22.00,2.00,274.38,-20.19,10.94,-2.19,-2.25,11.44,54.46,3.50
22.00,0.00,253.75,13.12,-126.69,7.06,4.81,6.69,54.75,3.52
22.00,1.00,272.75,-6.12,-54.69,-2.25,6.31,2.75,54.75,3.52
22.00,2.00,274.12,-20.19,10.94,-2.38,-1.75,12.81,54.75,3.52
22.00,0.00,253.44,13.25,-126.75,4.38,5.69,5.31,54.98,3.54
22.00,1.00,272.56,-6.19,-54.69,-2.38,7.12,2.88,54.98,3.54
22.00,2.00,273.88,-20.19,10.88,-3.12,-1.81,12.94,54.98,3.54
22.00,0.00,253.19,13.38,-126.75,2.94,6.00,3.50,55.20,3.56
22.00,1.00,272.44,-6.19,-54.62,-2.69,7.69,3.25,55.20,3.56
22.00,2.00,273.56,-20.25,10.88,-4.31,-1.44,13.50,55.20,3.56
22.00,0.00,253.00,13.44,-126.75,3.31,4.88,4.31,55.45,3.58
22.00,1.00,272.31,-6.25,-54.62,-1.31,10.75,3.44,55.45,3.58
22.00,2.00,273.31,-20.25,10.88,-4.75,-1.50,13.56,55.45,3.58
22.00,0.00,252.81,13.50,-126.75,2.62,4.31,3.62,55.68,3.60
22.00,1.00,272.12,-6.31,-54.62,-2.12,9.94,3.94,55.68,3.60
22.00,2.00,273.00,-20.25,10.88,-5.00,-2.50,13.31,55.68,3.60
22.00,0.00,252.69,13.56,-126.69,-0.12,5.25,0.25,55.78,3.62
22.00,1.00,271.94,-6.38,-54.56,-2.88,7.88,3.12,55.78,3.62
22.00,2.00,272.75,-20.25,10.88,-3.25,-3.00,12.50,55.78,3.62
22.00,0.00,252.62,13.56,-126.62,0.12,4.19,-1.75,55.83,3.64
22.00,1.00,271.81,-6.38,-54.50,-2.38,7.50,2.81,55.83,3.64
22.00,2.00,272.50,-20.25,10.81,-1.62,-2.56,11.88,55.83,3.64
22.00,0.00,252.50,13.56,-126.69,4.62,1.25,2.00,56.03,3.66
22.00,1.00,271.69,-6.44,-54.50,-2.44,6.25,2.75,56.03,3.66
22.00,2.00,272.25,-20.25,10.75,-2.00,-1.44,11.50,56.03,3.66
22.00,0.00,252.25,13.69,-126.81,5.31,3.50,5.06,56.32,3.68
22.00,1.00,271.56,-6.44,-54.50,-2.00,6.94,2.75,56.32,3.68
22.00,2.00,272.00,-20.25,10.75,-4.19,-2.00,12.06,56.32,3.68
22.00,0.00,252.00,13.81,-126.81,0.62,5.69,0.94,56.52,3.70
22.00,1.00,271.44,-6.50,-54.44,-3.56,6.44,2.69,56.52,3.70
22.00,2.00,271.75,-20.25,10.75,-5.75,-3.19,12.31,56.52,3.70
22.00,0.00,251.81,13.81,-126.75,-1.88,5.12,-2.69,56.62,3.72
22.00,1.00,271.31,-6.56,-54.38,-2.88,6.75,2.38,56.62,3.72
22.00,2.00,271.50,-20.25,10.81,-5.25,-2.69,12.31,56.62,3.72
22.00,0.00,251.75,13.81,-126.75,0.19,3.75,-1.38,56.75,3.74
22.00,1.00,271.19,-6.56,-54.38,-1.94,7.69,2.94,56.75,3.74
22.00,2.00,271.25,-20.25,10.81,-4.00,-2.44,11.38,56.75,3.74
22.00,0.00,251.62,13.88,-126.75,2.81,2.44,1.69,56.94,3.76
22.00,1.00,271.06,-6.62,-54.38,-1.94,7.12,2.62,56.94,3.76
22.00,2.00,271.06,-20.19,10.88,-3.50,-2.50,10.25,56.94,3.76
22.00,0.00,251.44,13.94,-126.81,2.50,3.19,2.06,57.09,3.78
22.00,1.00,270.94,-6.62,-54.31,-2.62,6.06,2.19,57.09,3.78
22.00,2.00,270.81,-20.19,10.88,-2.19,-1.81,10.00,57.09,3.78
22.00,0.00,251.25,14.00,-126.81,0.94,4.88,0.00,57.18,3.80
22.00,1.00,270.88,-6.69,-54.25,-2.69,5.69,2.00,57.18,3.80
22.00,2.00,270.62,-20.19,10.81,-2.06,-1.50,9.31,57.18,3.80
22.00,0.00,251.06,14.06,-126.81,-0.19,6.06,0.56,57.23,3.82
22.00,1.00,270.75,-6.69,-54.25,-2.44,4.88,2.50,57.23,3.82
22.00,2.00,270.44,-20.19,10.81,-2.06,-1.75,9.19,57.23,3.82
22.00,0.00,250.88,14.12,-126.75,-0.06,5.00,1.25,57.30,3.84
22.00,1.00,270.62,-6.75,-54.19,-2.62,5.31,2.50,57.30,3.84
22.00,2.00,270.31,-20.19,10.81,-2.06,-1.25,8.44,57.30,3.84
22.00,0.00,250.69,14.19,-126.75,1.12,3.62,1.81,57.41,3.86
22.00,1.00,270.56,-6.75,-54.12,-3.25,4.88,2.12,57.41,3.86
22.00,2.00,270.12,-20.19,10.81,-2.50,-1.56,8.88,57.41,3.86
22.00,0.00,250.50,14.25,-126.75,2.75,3.94,1.81,57.56,3.88
22.00,1.00,270.50,-6.75,-54.12,-2.25,5.31,2.62,57.56,3.88
22.00,2.00,269.94,-20.19,10.81,-2.19,-2.25,8.94,57.56,3.88
22.00,0.00,250.25,14.38,-126.81,3.94,4.38,2.06,57.74,3.90
22.00,1.00,270.31,-6.75,-54.06,-2.25,5.12,3.19,57.74,3.90
22.00,2.00,269.75,-20.19,10.75,-2.06,-2.81,8.94,57.74,3.90
22.00,0.00,250.00,14.44,-126.88,4.38,4.62,3.06,57.94,3.92
22.00,1.00,270.25,-6.75,-54.06,-2.69,5.06,3.12,57.94,3.92
22.00,2.00,269.56,-20.12,10.75,-2.06,-2.88,8.81,57.94,3.92
22.00,0.00,249.69,14.56,-126.94,4.50,4.88,3.44,58.14,3.94
22.00,1.00,270.12,-6.81,-54.00,-2.25,6.06,2.31,58.14,3.94
22.00,2.00,269.38,-20.12,10.75,-2.12,-3.31,8.81,58.14,3.94
22.00,0.00,249.38,14.69,-127.00,4.94,6.25,3.50,58.34,3.96
22.00,1.00,270.06,-6.81,-54.00,-2.25,4.75,2.19,58.34,3.96
22.00,2.00,269.19,-20.06,10.75,-1.62,-4.88,8.19,58.34,3.96
22.00,0.00,249.06,14.81,-127.06,5.25,6.62,3.56,58.49,3.98
22.00,1.00,269.94,-6.81,-53.94,-2.75,3.62,1.88,58.49,3.98
22.00,2.00,269.06,-20.00,10.69,0.50,-3.38,6.44,58.49,3.98
22.00,0.00,248.75,14.94,-127.12,6.62,4.88,4.75,58.69,4.00
22.00,1.00,269.88,-6.88,-53.94,-2.69,3.75,1.81,58.69,4.00
22.00,2.00,268.94,-19.94,10.69,0.06,-3.25,5.81,58.69,4.00
22.00,0.00,248.44,15.06,-127.19,5.25,5.44,5.38,58.86,4.02
22.00,1.00,269.81,-6.88,-53.88,-2.25,3.81,1.81,58.86,4.02
22.00,2.00,268.81,-19.88,10.62,-0.56,-3.81,6.31,58.86,4.02
22.00,0.00,248.25,15.12,-127.25,2.69,4.81,2.50,58.96,4.04
22.00,1.00,269.75,-6.88,-53.81,-2.25,3.62,1.69,58.96,4.04
22.00,2.00,268.69,-19.88,10.62,-0.44,-3.12,6.25,58.96,4.04
22.00,0.00,248.12,15.12,-127.25,1.94,2.44,1.19,59.02,4.06
22.00,1.00,269.62,-6.88,-53.81,-2.31,3.88,1.69,59.02,4.06
22.00,2.00,268.56,-19.81,10.56,-0.06,-2.75,6.31,59.02,4.06
22.00,0.00,248.06,15.19,-127.31,3.38,0.00,1.88,59.13,4.08
22.00,1.00,269.56,-6.94,-53.75,-2.44,4.06,1.69,59.13,4.08
22.00,2.00,268.44,-19.81,10.50,-0.31,-2.94,6.25,59.13,4.08
22.00,0.00,247.94,15.19,-127.38,4.81,-0.81,3.56,59.29,4.10
22.00,1.00,269.50,-6.94,-53.75,-2.12,4.12,1.88,59.29,4.10
22.00,2.00,268.31,-19.75,10.50,-0.44,-2.88,6.19,59.29,4.10
22.00,0.00,247.88,15.25,-127.44,4.50,-0.25,3.31,59.44,4.12
22.00,1.00,269.44,-6.94,-53.69,-2.31,3.88,1.62,59.44,4.12
22.00,2.00,268.19,-19.69,10.44,-0.25,-2.50,6.44,59.44,4.12
22.00,0.00,247.81,15.31,-127.50,3.44,0.94,2.69,59.57,4.14
22.00,1.00,269.38,-6.94,-53.62,-2.94,3.62,2.25,59.57,4.14
22.00,2.00,268.06,-19.69,10.38,-0.88,-2.12,6.12,59.57,4.14
22.00,0.00,247.69,15.31,-127.50,1.69,1.81,2.62,59.68,4.16
22.00,1.00,269.25,-7.00,-53.62,-2.50,4.62,1.81,59.68,4.16
22.00,2.00,267.94,-19.69,10.38,-1.94,-2.50,6.94,59.68,4.16
22.00,0.00,247.62,15.38,-127.50,0.50,1.81,2.12,59.75,4.18
22.00,1.00,269.19,-7.00,-53.56,-2.69,4.12,1.75,59.75,4.18
22.00,2.00,267.75,-19.62,10.38,-1.81,-2.56,7.19,59.75,4.18
22.00,0.00,247.56,15.38,-127.50,1.19,0.75,1.81,59.86,4.20
22.00,1.00,269.12,-7.00,-53.50,-2.25,4.31,1.69,59.86,4.20
22.00,2.00,267.62,-19.56,10.38,-2.31,-3.44,7.38,59.86,4.20
22.00,0.00,247.56,15.38,-127.50,1.38,0.31,-0.38,59.95,4.22
22.00,1.00,269.06,-7.06,-53.50,-2.06,4.06,1.69,59.95,4.22
22.00,2.00,267.50,-19.56,10.44,-1.50,-3.50,6.56,59.95,4.22
22.00,0.00,247.62,15.38,-127.44,0.25,0.94,-1.62,59.96,4.24
22.00,1.00,268.94,-7.06,-53.44,-3.00,3.06,1.06,59.96,4.24
22.00,2.00,267.38,-19.50,10.38,-0.19,-1.88,5.25,59.96,4.24
22.00,0.00,247.56,15.38,-127.44,-0.75,2.56,-1.00,59.96,4.26
22.00,1.00,268.94,-7.06,-53.38,-2.62,3.38,0.69,59.96,4.26
22.00,2.00,267.25,-19.50,10.38,-0.75,-2.25,5.38,59.96,4.26
22.00,0.00,247.50,15.38,-127.38,-0.62,4.31,-0.12,59.98,4.28
22.00,1.00,268.88,-7.12,-53.38,-2.25,3.56,0.62,59.98,4.28
22.00,2.00,267.19,-19.44,10.38,-1.31,-2.25,5.38,59.98,4.28
22.00,0.00,247.38,15.44,-127.31,-0.31,4.69,0.62,60.02,4.30
22.00,1.00,268.81,-7.12,-53.31,-3.00,2.44,0.81,60.02,4.30
22.00,2.00,267.06,-19.44,10.38,-1.50,-1.81,5.12,60.02,4.30
22.00,0.00,247.25,15.50,-127.25,-0.56,4.50,1.00,60.05,4.32
22.00,1.00,268.75,-7.19,-53.25,-2.69,2.88,0.56,60.05,4.32
22.00,2.00,266.94,-19.38,10.38,-1.50,-1.62,4.75,60.05,4.32
22.00,0.00,247.12,15.50,-127.19,-0.44,4.44,-0.50,60.06,4.34
22.00,1.00,268.75,-7.19,-53.25,-2.50,2.38,0.31,60.06,4.34
22.00,2.00,266.88,-19.38,10.38,-0.81,-0.56,4.12,60.06,4.34
22.00,0.00,247.06,15.56,-127.19,-1.12,3.31,-1.94,60.06,4.36
22.00,1.00,268.75,-7.25,-53.19,-2.31,2.81,0.38,60.06,4.36
22.00,2.00,266.81,-19.38,10.38,-1.19,-0.50,3.75,60.06,4.36
22.00,0.00,247.12,15.50,-127.06,-1.56,2.19,-2.25,60.07,4.38
22.00,1.00,268.69,-7.25,-53.12,-2.50,1.94,0.25,60.07,4.38
22.00,2.00,266.69,-19.38,10.44,-2.00,-0.38,4.06,60.07,4.38
22.00,0.00,247.12,15.50,-127.00,-2.19,1.50,-1.69,60.08,4.40
22.00,1.00,268.69,-7.25,-53.12,-2.56,2.44,0.31,60.08,4.40
22.00,2.00,266.62,-19.44,10.44,-2.25,-0.19,3.69,60.08,4.40
22.00,0.00,247.25,15.44,-126.94,-1.88,0.12,-0.81,60.10,4.42
22.00,1.00,268.62,-7.31,-53.06,-2.56,2.50,0.06,60.10,4.42
22.00,2.00,266.56,-19.44,10.50,-2.62,-0.06,3.62,60.10,4.42
22.00,0.00,247.31,15.38,-126.88,-0.94,-1.31,-0.81,60.16,4.44
22.00,1.00,268.62,-7.31,-53.00,-2.44,2.44,-0.12,60.16,4.44
22.00,2.00,266.50,-19.44,10.50,-2.94,0.50,3.25,60.16,4.44
22.00,0.00,247.44,15.38,-126.88,-0.81,-2.44,-0.69,60.20,4.46
22.00,1.00,268.56,-7.38,-53.00,-1.88,2.69,-0.19,60.20,4.46
22.00,2.00,266.44,-19.44,10.56,-2.12,1.06,2.75,60.20,4.46
22.00,0.00,247.56,15.31,-126.81,-0.94,-3.19,-0.62,60.23,4.48
22.00,1.00,268.56,-7.38,-52.94,-2.12,2.88,-0.38,60.23,4.48
22.00,2.00,266.38,-19.50,10.56,-1.94,1.56,2.19,60.23,4.48
22.00,0.00,247.62,15.31,-126.81,-1.06,-3.00,-0.44,60.27,4.50
22.00,1.00,268.50,-7.44,-52.88,-2.69,2.69,-0.31,60.27,4.50
22.00,2.00,266.31,-19.50,10.62,-2.31,0.56,2.81,60.27,4.50
22.00,0.00,247.75,15.25,-126.81,-1.06,-3.31,-0.25,60.32,4.52
22.00,1.00,268.50,-7.44,-52.88,-2.62,3.19,-0.38,60.32,4.52
22.00,2.00,266.25,-19.50,10.62,-2.75,0.69,2.81,60.32,4.52
22.00,0.00,247.94,15.19,-126.81,-0.88,-4.19,0.31,60.37,4.54
22.00,1.00,268.44,-7.50,-52.81,-2.69,3.50,-0.44,60.37,4.54
22.00,2.00,266.19,-19.50,10.69,-2.62,0.81,2.50,60.37,4.54
22.00,0.00,248.06,15.19,-126.81,-0.44,-5.44,0.94,60.41,4.56
22.00,1.00,268.44,-7.56,-52.75,-2.75,3.88,-0.44,60.41,4.56
22.00,2.00,266.12,-19.56,10.75,-1.75,1.56,1.94,60.41,4.56
22.00,0.00,248.25,15.12,-126.81,0.06,-6.44,1.31,60.46,4.58
22.00,1.00,268.38,-7.62,-52.69,-3.00,3.81,-0.38,60.46,4.58
22.00,2.00,266.12,-19.56,10.75,-1.44,1.19,2.19,60.46,4.58
22.00,0.00,248.50,15.06,-126.88,0.50,-6.62,1.88,60.51,4.60
22.00,1.00,268.31,-7.62,-52.69,-3.00,3.12,-0.38,60.51,4.60
22.00,2.00,266.06,-19.62,10.75,-1.19,0.06,2.75,60.51,4.60
22.00,0.00,248.69,15.00,-126.88,0.62,-6.00,2.06,60.55,4.62
22.00,1.00,268.31,-7.69,-52.62,-2.50,2.81,0.00,60.55,4.62
22.00,2.00,266.00,-19.62,10.81,-0.75,0.00,1.69,60.55,4.62
22.00,0.00,248.81,15.00,-126.94,0.50,-3.69,2.12,60.59,4.64
22.00,1.00,268.25,-7.69,-52.56,-2.44,2.62,0.19,60.59,4.64
22.00,2.00,266.00,-19.62,10.81,-0.88,-0.38,1.88,60.59,4.64
22.00,0.00,248.88,15.00,-126.94,0.31,-0.88,2.38,60.65,4.66
22.00,1.00,268.25,-7.75,-52.50,-3.12,1.62,0.19,60.65,4.66
22.00,2.00,265.94,-19.62,10.81,-1.62,-1.31,1.94,60.65,4.66
22.00,0.00,248.81,15.06,-126.94,0.31,1.69,2.62,60.70,4.68
22.00,1.00,268.25,-7.75,-52.50,-2.25,2.19,0.00,60.70,4.68
22.00,2.00,265.88,-19.56,10.81,-1.19,-1.56,1.88,60.70,4.68
22.00,0.00,248.62,15.12,-126.94,0.69,3.44,3.00,60.75,4.70
22.00,1.00,268.19,-7.75,-52.44,-1.88,1.81,0.06,60.75,4.70
22.00,2.00,265.88,-19.56,10.88,-0.81,-0.94,1.44,60.75,4.70
22.00,0.00,248.44,15.19,-126.94,0.62,5.50,3.19,60.81,4.72
22.00,1.00,268.19,-7.81,-52.38,-2.25,1.38,0.25,60.81,4.72
22.00,2.00,265.81,-19.56,10.88,-1.31,-0.88,1.19,60.81,4.72
22.00,0.00,248.19,15.31,-126.94,0.81,6.50,2.75,60.86,4.74
22.00,1.00,268.19,-7.81,-52.38,-2.12,1.19,-0.12,60.86,4.74
22.00,2.00,265.81,-19.50,10.88,-0.94,-0.62,0.75,60.86,4.74
22.00,0.00,247.94,15.44,-126.88,0.56,6.31,2.44,60.90,4.76
22.00,1.00,268.12,-7.81,-52.31,-1.69,1.75,-0.44,60.90,4.76
22.00,2.00,265.81,-19.50,10.94,-0.75,0.25,0.19,60.90,4.76
22.00,0.00,247.75,15.50,-126.81,-0.25,5.81,1.12,60.97,4.78
22.00,1.00,268.12,-7.81,-52.31,-2.69,0.75,0.19,60.97,4.78
22.00,2.00,265.81,-19.50,10.94,-2.56,-0.62,1.00,60.97,4.78
22.00,0.00,247.62,15.50,-126.75,-1.06,5.56,0.69,61.03,4.80
22.00,1.00,268.12,-7.88,-52.25,-2.69,0.88,0.19,61.03,4.80
22.00,2.00,265.75,-19.50,11.00,-3.06,-0.50,0.75,61.03,4.80
22.00,0.00,247.62,15.50,-126.69,-1.88,4.50,0.44,61.05,4.82
22.00,1.00,268.12,-7.88,-52.19,-2.56,0.81,-0.31,61.05,4.82
22.00,2.00,265.75,-19.50,11.06,-2.62,0.50,0.44,61.05,4.82
22.00,0.00,247.56,15.50,-126.62,-1.62,2.62,-0.31,61.06,4.84
22.00,1.00,268.12,-7.88,-52.12,-2.12,1.62,-0.88,61.06,4.84
22.00,2.00,265.75,-19.50,11.12,-1.88,1.25,0.06,61.06,4.86
22.00,0.00,247.69,15.50,-126.56,-1.81,0.19,-1.31,61.05,4.86
22.00,1.00,268.12,-7.94,-52.12,-2.38,1.19,-0.81,61.05,4.86
22.00,2.00,265.75,-19.56,11.19,-1.44,1.94,0.06,61.05,4.86
22.00,0.00,247.88,15.38,-126.50,-2.44,-2.56,-1.56,61.04,4.88
22.00,1.00,268.12,-7.94,-52.06,-2.44,1.94,-0.94,61.04,4.88
22.00,2.00,265.75,-19.62,11.25,-2.12,2.25,0.62,61.04,4.88
22.00,0.00,248.19,15.31,-126.44,-3.00,-5.00,-2.06,61.02,4.90
22.00,1.00,268.12,-8.00,-52.00,-2.88,1.50,-0.81,61.02,4.90
22.00,2.00,265.75,-19.62,11.25,-2.31,1.38,0.94,61.02,4.90
22.00,0.00,248.50,15.12,-126.38,-3.25,-6.69,-2.88,60.99,4.92
22.00,1.00,268.06,-8.00,-51.94,-2.81,1.69,-0.38,60.99,4.92
22.00,2.00,265.69,-19.69,11.31,-2.31,1.69,0.94,60.99,4.92
22.00,0.00,248.88,15.00,-126.38,-3.56,-7.38,-3.00,60.99,4.94
22.00,1.00,268.06,-8.00,-51.88,-3.00,2.19,-0.75,60.99,4.94
22.00,2.00,265.69,-19.69,11.38,-3.50,1.38,1.50,60.99,4.96
22.00,0.00,249.19,14.88,-126.31,-3.25,-6.12,-2.75,60.98,4.96
22.00,1.00,268.06,-8.06,-51.81,-3.06,2.06,-0.69,60.98,4.96
22.00,2.00,265.62,-19.75,11.44,-2.88,1.25,1.12,60.98,4.96
22.00,0.00,249.44,14.81,-126.25,-2.75,-4.56,-2.31,60.95,4.98
22.00,1.00,268.06,-8.12,-51.81,-3.06,2.25,-1.12,60.95,4.98
22.00,2.00,265.62,-19.75,11.50,-1.75,1.25,0.69,60.95,4.98
22.00,0.00,249.56,14.75,-126.19,-2.44,-1.31,-1.56,60.90,5.00
22.00,1.00,268.06,-8.12,-51.75,-2.69,2.00,-0.75,60.90,5.00
22.00,2.00,265.62,-19.81,11.50,-0.94,1.94,0.12,60.90,5.00
22.00,0.00,249.50,14.81,-126.12,-2.56,2.69,-0.62,60.87,5.02
22.00,1.00,268.06,-8.19,-51.69,-2.94,1.88,-1.06,60.87,5.02
22.00,2.00,265.62,-19.81,11.56,-1.44,1.81,-0.19,60.87,5.02
22.00,0.00,249.31,14.88,-126.06,-2.50,5.56,0.25,60.84,5.04
22.00,1.00,268.00,-8.19,-51.62,-3.00,2.00,-0.38,60.84,5.04
22.00,2.00,265.62,-19.88,11.56,-1.69,1.69,0.19,60.84,5.06
22.00,0.00,249.12,14.94,-126.00,-2.06,7.25,0.56,60.86,5.06
22.00,1.00,268.00,-8.25,-51.56,-2.81,1.81,-0.25,60.86,5.06
22.00,2.00,265.62,-19.88,11.62,-2.62,0.44,1.00,60.86,5.06
22.00,0.00,248.81,15.06,-125.94,-1.88,7.88,0.81,60.86,5.08
22.00,1.00,268.00,-8.25,-51.50,-2.81,1.88,-0.12,60.86,5.08
22.00,2.00,265.56,-19.88,11.69,-1.81,0.75,0.06,60.86,5.08
22.00,0.00,248.56,15.12,-125.88,-1.62,7.31,0.69,60.85,5.10
22.00,1.00,267.94,-8.31,-51.50,-2.31,1.94,0.00,60.85,5.10
22.00,2.00,265.56,-19.88,11.69,-1.25,1.31,0.25,60.85,5.10
22.00,0.00,248.44,15.19,-125.81,-0.88,5.81,0.44,60.87,5.12
22.00,1.00,267.94,-8.31,-51.44,-1.94,1.75,0.12,60.87,5.12
22.00,2.00,265.56,-19.94,11.75,-1.56,0.50,0.62,60.87,5.12
22.00,0.00,248.38,15.19,-125.81,0.00,2.25,-0.69,60.91,5.14
22.00,1.00,267.94,-8.31,-51.38,-2.19,1.50,0.12,60.91,5.14
22.00,2.00,265.56,-19.94,11.75,-1.50,0.19,0.56,60.91,5.16
22.00,0.00,248.50,15.12,-125.88,1.50,-3.00,0.38,61.00,5.16
22.00,1.00,267.88,-8.31,-51.38,-1.94,1.25,0.31,61.00,5.16
22.00,2.00,265.56,-19.94,11.81,-1.38,0.19,0.81,61.00,5.16
22.00,0.00,248.69,15.06,-125.88,0.88,-4.50,-0.88,61.06,5.18
22.00,1.00,267.88,-8.38,-51.31,-1.88,1.19,0.12,61.06,5.18
22.00,2.00,265.50,-19.94,11.81,-0.94,0.00,0.69,61.06,5.18
22.00,0.00,248.81,15.00,-125.94,1.56,-4.25,-0.25,61.12,5.20
22.00,1.00,267.88,-8.38,-51.31,-1.81,1.12,0.19,61.12,5.20
22.00,2.00,265.50,-19.94,11.81,-0.62,-0.44,0.50,61.12,5.20
22.00,0.00,248.88,15.00,-126.00,1.19,-1.38,0.12,61.17,5.22
22.00,1.00,267.88,-8.38,-51.25,-1.62,0.75,0.12,61.17,5.22
22.00,2.00,265.50,-19.94,11.81,-0.50,-0.75,0.38,61.17,5.22
22.00,0.00,248.88,15.00,-126.00,0.56,0.00,0.06,61.20,5.24
22.00,1.00,267.88,-8.38,-51.25,-1.88,-0.06,0.44,61.20,5.24
22.00,2.00,265.50,-19.88,11.88,-0.31,-0.81,-0.06,61.20,5.26
22.00,0.00,248.88,15.00,-125.94,-0.44,-0.81,-0.50,61.21,5.26
22.00,1.00,267.81,-8.38,-51.19,-1.56,-0.31,0.62,61.21,5.26
22.00,2.00,265.50,-19.88,11.88,-0.62,-0.81,-0.56,61.21,5.28
22.00,0.00,248.94,14.94,-125.94,-0.94,-0.75,-0.88,61.23,5.28
22.00,1.00,267.81,-8.38,-51.19,-2.19,-0.38,0.19,61.23,5.28
22.00,2.00,265.50,-19.88,11.88,-1.69,-1.44,0.25,61.23,5.30
22.00,0.00,248.94,14.94,-125.94,-0.62,0.06,-0.50,61.25,5.30
22.00,1.00,267.81,-8.38,-51.12,-1.88,-0.25,-0.25,61.25,5.30
22.00,2.00,265.50,-19.88,11.94,-1.25,-0.25,-0.38,61.25,5.32
22.00,0.00,248.94,15.00,-125.88,-0.81,1.88,-0.44,61.26,5.32
22.00,1.00,267.81,-8.38,-51.06,-1.94,-0.25,-0.25,61.26,5.32
22.00,2.00,265.50,-19.88,11.94,-1.25,0.69,-0.50,61.26,5.32
22.00,0.00,248.88,15.00,-125.88,-1.50,1.94,-0.94,61.28,5.34
22.00,1.00,267.81,-8.38,-51.06,-1.75,-0.12,-0.25,61.28,5.34
22.00,2.00,265.50,-19.88,12.00,-2.12,0.06,-0.19,61.28,5.36
22.00,0.00,248.88,15.00,-125.81,-1.50,1.50,-0.62,61.29,5.36
22.00,1.00,267.81,-8.38,-51.00,-1.75,-0.12,-0.31,61.29,5.36
22.00,2.00,265.50,-19.88,12.06,-1.81,0.00,-0.19,61.29,5.36
22.00,0.00,248.94,14.94,-125.75,-1.44,0.44,-0.06,61.26,5.38
22.00,1.00,267.81,-8.38,-51.00,-1.56,-0.19,-0.56,61.26,5.38
22.00,2.00,265.50,-19.88,12.06,-0.56,0.81,-1.00,61.26,5.38
22.00,0.00,248.94,14.94,-125.75,-1.12,-0.50,0.38,61.25,5.40
22.00,1.00,267.81,-8.38,-50.94,-1.31,-0.19,-0.31,61.25,5.40
22.00,2.00,265.56,-19.88,12.12,-0.81,1.19,-0.88,61.25,5.40
22.00,0.00,249.00,14.94,-125.75,-0.31,-1.19,0.94,61.24,5.42
22.00,1.00,267.81,-8.38,-50.94,-1.06,-0.06,-0.62,61.24,5.42
22.00,2.00,265.56,-19.94,12.12,0.19,1.06,-1.19,61.24,5.42
22.00,0.00,249.06,14.94,-125.75,0.12,-2.50,1.12,61.24,5.44
22.00,1.00,267.81,-8.38,-50.94,-0.75,-0.06,-0.25,61.24,5.44
22.00,2.00,265.56,-19.94,12.19,0.19,0.75,-1.12,61.24,5.44
22.00,0.00,249.12,14.94,-125.75,0.00,-2.81,0.38,61.23,5.46
22.00,1.00,267.81,-8.38,-50.88,-0.69,-0.19,0.31,61.23,5.46
22.00,2.00,265.62,-19.94,12.19,0.19,-0.44,-1.06,61.23,5.46
22.00,0.00,249.19,14.94,-125.75,0.50,-1.69,0.12,61.21,5.48
22.00,1.00,267.81,-8.38,-50.88,-0.19,-0.19,0.19,61.21,5.48
22.00,2.00,265.62,-19.94,12.19,1.25,-0.12,-1.88,61.21,5.48
22.00,0.00,249.12,14.94,-125.75,1.31,1.19,0.75,61.18,5.50
22.00,1.00,267.81,-8.38,-50.88,0.00,-0.88,0.12,61.18,5.50
22.00,2.00,265.69,-19.94,12.19,2.12,-0.44,-2.94,61.18,5.50
22.00,0.00,248.94,15.00,-125.75,1.25,3.31,1.06,61.14,5.52
22.00,1.00,267.88,-8.38,-50.88,0.56,-1.50,0.50,61.14,5.52
22.00,2.00,265.75,-19.88,12.19,2.56,-0.81,-3.38,61.14,5.52
22.00,0.00,248.81,15.06,-125.75,1.00,3.25,1.06,61.12,5.54
22.00,1.00,267.88,-8.31,-50.88,0.38,-1.75,0.06,61.12,5.54
22.00,2.00,265.88,-19.88,12.19,1.88,-1.31,-3.38,61.12,5.54
22.00,0.00,248.62,15.12,-125.75,0.81,3.31,1.44,61.10,5.56
22.00,1.00,267.88,-8.31,-50.88,0.62,-2.31,0.44,61.10,5.56
22.00,2.00,265.94,-19.81,12.19,1.31,-2.56,-3.50,61.10,5.56
22.00,0.00,248.38,15.25,-125.69,0.06,5.69,2.44,61.03,5.58
22.00,1.00,267.88,-8.25,-50.94,0.69,-3.25,0.69,61.03,5.58
22.00,2.00,266.00,-19.75,12.19,2.38,-2.25,-4.31,61.03,5.58
22.00,0.00,248.06,15.38,-125.62,-1.56,9.12,2.69,60.89,5.60
22.00,1.00,267.94,-8.19,-50.94,1.06,-3.62,0.69,60.89,5.60
22.00,2.00,266.12,-19.69,12.19,3.00,-0.88,-4.88,60.89,5.60
