Iteration,IMUNo,OrientationX (deg),OrientationY,OrientationZ,GyroX (20rad/sec),GyroY,GyroZ,Elbow_Pos (rad),Time (sec)
23.00,0.00,275.38,1.56,-92.88,-0.06,-0.50,0.31,-0.01,1.02
23.00,1.00,280.62,-3.25,-53.94,0.44,-0.06,-0.12,-0.01,1.02
23.00,2.00,293.19,-19.12,16.44,0.38,0.06,0.19,-0.01,1.02
23.00,0.00,275.38,1.56,-92.88,-0.06,0.06,-0.06,-0.01,1.04
23.00,1.00,280.62,-3.25,-53.94,0.44,0.00,-0.12,-0.01,1.04
23.00,2.00,293.19,-19.12,16.44,-0.12,-0.12,-0.06,-0.01,1.04
23.00,0.00,275.38,1.56,-92.88,0.19,0.38,0.25,0.00,1.06
23.00,1.00,280.62,-3.31,-53.94,0.25,-0.12,-0.31,0.00,1.06
23.00,2.00,293.19,-19.12,16.44,-0.12,-0.12,-0.25,0.00,1.06
23.00,0.00,275.38,1.56,-92.88,0.00,0.06,0.25,0.00,1.08
23.00,1.00,280.62,-3.31,-53.94,-0.12,-0.44,-0.50,0.00,1.08
23.00,2.00,293.19,-19.06,16.44,0.06,-0.12,-0.69,0.00,1.08
23.00,0.00,275.38,1.56,-92.88,0.00,0.31,0.25,-0.01,1.10
23.00,1.00,280.62,-3.31,-54.00,-0.19,-0.44,-0.50,-0.01,1.10
23.00,2.00,293.19,-19.06,16.44,0.06,-0.06,-0.31,-0.01,1.10
23.00,0.00,275.38,1.56,-92.88,-0.38,0.06,0.00,-0.02,1.12
23.00,1.00,280.62,-3.31,-54.00,0.06,-0.19,-0.31,-0.02,1.12
23.00,2.00,293.19,-19.06,16.44,0.00,-0.25,-0.19,-0.02,1.12
23.00,0.00,275.38,1.56,-92.88,-0.38,-0.31,-0.19,-0.02,1.14
23.00,1.00,280.62,-3.25,-54.00,-0.06,-0.19,-0.06,-0.02,1.14
23.00,2.00,293.19,-19.06,16.44,-0.19,-0.12,0.00,-0.02,1.14
23.00,0.00,275.38,1.56,-92.88,-0.12,-0.69,-0.06,-0.02,1.16
23.00,1.00,280.62,-3.25,-54.00,0.00,0.00,-0.06,-0.02,1.16
23.00,2.00,293.19,-19.06,16.44,-0.31,-0.44,-0.19,-0.02,1.16
23.00,0.00,275.38,1.56,-92.88,-0.25,-0.44,0.06,-0.02,1.18
23.00,1.00,280.62,-3.25,-54.00,-0.12,0.06,0.06,-0.02,1.18
23.00,2.00,293.19,-19.06,16.44,-0.25,-0.38,-0.19,-0.02,1.18
23.00,0.00,275.38,1.56,-92.88,-0.31,-0.19,0.12,-0.01,1.20
23.00,1.00,280.62,-3.25,-54.00,-0.50,-0.12,-0.12,-0.01,1.20
23.00,2.00,293.19,-19.06,16.44,-0.38,-0.12,-0.19,-0.01,1.20
23.00,0.00,275.38,1.56,-92.88,-0.38,0.38,0.12,-0.02,1.22
23.00,1.00,280.62,-3.25,-54.00,-0.31,0.06,-0.12,-0.02,1.22
23.00,2.00,293.19,-19.06,16.44,-0.19,-0.25,0.06,-0.02,1.22
23.00,0.00,275.31,1.56,-92.88,-0.50,0.75,0.38,-0.01,1.24
23.00,1.00,280.62,-3.25,-54.00,-0.25,0.31,-0.06,-0.01,1.24
23.00,2.00,293.19,-19.06,16.44,-0.69,-0.19,0.50,-0.01,1.24
23.00,0.00,275.31,1.56,-92.88,-0.38,0.81,0.31,0.00,1.26
23.00,1.00,280.56,-3.31,-54.06,-0.44,0.75,0.12,0.00,1.26
23.00,2.00,293.19,-19.06,16.44,-1.00,-0.38,0.62,0.00,1.26
23.00,0.00,275.31,1.56,-92.88,0.00,0.94,0.19,0.05,1.28
23.00,1.00,280.56,-3.31,-54.06,-0.38,0.75,0.62,0.05,1.28
23.00,2.00,293.19,-19.06,16.50,-1.44,-0.69,0.88,0.05,1.28
23.00,0.00,275.25,1.56,-92.88,-0.06,1.88,0.31,0.07,1.30
23.00,1.00,280.56,-3.25,-54.06,-0.69,0.56,0.62,0.07,1.30
23.00,2.00,293.12,-19.06,16.50,-0.94,-0.94,1.06,0.07,1.30
23.00,0.00,275.25,1.62,-92.88,0.06,2.50,0.69,0.09,1.32
23.00,1.00,280.56,-3.25,-54.06,-0.38,0.31,0.62,0.09,1.32
23.00,2.00,293.12,-19.06,16.50,-0.62,-0.50,0.62,0.09,1.32
23.00,0.00,275.12,1.62,-92.88,-0.06,3.44,0.75,0.12,1.34
23.00,1.00,280.56,-3.25,-54.06,-0.38,0.44,0.25,0.12,1.34
23.00,2.00,293.12,-19.06,16.50,-1.06,-0.44,0.62,0.12,1.34
23.00,0.00,275.06,1.62,-92.88,0.12,2.81,1.19,0.16,1.36
23.00,1.00,280.56,-3.25,-54.06,-0.50,0.62,0.44,0.16,1.36
23.00,2.00,293.06,-19.06,16.56,-1.31,-0.06,0.56,0.16,1.36
23.00,0.00,275.00,1.69,-92.88,0.44,1.81,1.06,0.22,1.38
23.00,1.00,280.56,-3.31,-54.06,-1.06,0.94,0.19,0.22,1.38
23.00,2.00,293.06,-19.06,16.56,-1.62,-0.12,1.00,0.22,1.38
23.00,0.00,274.94,1.69,-92.88,0.12,1.31,0.56,0.29,1.40
23.00,1.00,280.50,-3.31,-54.00,-0.94,0.88,0.62,0.29,1.40
23.00,2.00,293.06,-19.06,16.62,-2.12,-0.69,1.00,0.29,1.40
23.00,0.00,274.94,1.69,-92.88,0.25,1.50,0.38,0.34,1.42
23.00,1.00,280.50,-3.31,-54.00,-0.44,0.44,0.69,0.34,1.42
23.00,2.00,293.00,-19.06,16.62,-1.31,-0.56,0.56,0.34,1.42
23.00,0.00,274.88,1.69,-92.88,1.12,2.50,0.62,0.40,1.44
23.00,1.00,280.50,-3.31,-54.00,-0.69,-0.12,0.25,0.40,1.44
23.00,2.00,293.00,-19.06,16.62,-0.94,-0.19,0.75,0.40,1.44
23.00,0.00,274.81,1.69,-92.94,1.69,3.44,1.19,0.50,1.46
23.00,1.00,280.50,-3.31,-54.00,-0.94,-0.31,0.19,0.50,1.46
23.00,2.00,293.00,-19.06,16.69,-1.69,-0.50,1.31,0.50,1.46
23.00,0.00,274.75,1.75,-92.94,2.62,4.75,1.62,0.62,1.48
23.00,1.00,280.50,-3.31,-54.00,-0.19,-0.56,-0.31,0.62,1.48
23.00,2.00,293.00,-19.06,16.69,-1.75,-0.56,1.38,0.62,1.48
23.00,0.00,274.56,1.75,-93.00,3.81,5.38,2.12,0.76,1.50
23.00,1.00,280.50,-3.31,-54.00,-0.25,-0.50,-0.81,0.76,1.50
23.00,2.00,292.94,-19.06,16.69,-0.75,0.50,0.44,0.76,1.50
23.00,0.00,274.44,1.81,-93.12,5.19,5.94,2.69,0.93,1.52
23.00,1.00,280.56,-3.31,-54.00,-0.19,-0.50,-1.31,0.93,1.52
23.00,2.00,292.94,-19.06,16.69,-0.69,0.62,0.06,0.93,1.52
23.00,0.00,274.25,1.88,-93.25,6.62,5.56,3.06,1.13,1.54
23.00,1.00,280.56,-3.31,-54.00,0.00,-0.88,-1.81,1.13,1.54
23.00,2.00,292.94,-19.12,16.75,-0.06,1.19,-0.19,1.13,1.54
23.00,0.00,274.06,1.94,-93.38,8.00,5.56,3.19,1.35,1.56
23.00,1.00,280.62,-3.38,-54.00,0.25,-0.94,-2.06,1.35,1.56
23.00,2.00,292.94,-19.12,16.75,0.56,1.44,-0.31,1.35,1.56
23.00,0.00,273.88,2.00,-93.56,8.25,5.12,3.19,1.58,1.58
23.00,1.00,280.69,-3.38,-54.00,0.50,-0.56,-2.06,1.58,1.58
23.00,2.00,292.94,-19.12,16.75,0.25,1.62,0.44,1.58,1.58
23.00,0.00,273.75,2.06,-93.75,9.69,4.31,2.94,1.86,1.60
23.00,1.00,280.75,-3.44,-54.00,0.19,-0.56,-2.06,1.86,1.60
23.00,2.00,292.94,-19.19,16.75,0.31,1.69,0.69,1.86,1.60
23.00,0.00,273.56,2.12,-94.00,10.06,4.25,2.94,2.16,1.62
23.00,1.00,280.75,-3.44,-54.00,0.56,-0.06,-1.94,2.16,1.62
23.00,2.00,292.94,-19.25,16.75,-0.38,1.69,1.06,2.16,1.62
23.00,0.00,273.44,2.19,-94.19,11.12,4.81,3.19,2.51,1.64
23.00,1.00,280.81,-3.50,-54.00,0.62,0.00,-1.88,2.51,1.64
23.00,2.00,292.94,-19.25,16.75,-0.62,1.56,1.56,2.51,1.64
23.00,0.00,273.25,2.25,-94.44,12.12,5.56,4.62,2.88,1.66
23.00,1.00,280.81,-3.50,-54.06,0.62,0.25,-1.44,2.88,1.66
23.00,2.00,292.88,-19.31,16.75,-0.69,1.69,1.50,2.88,1.66
23.00,0.00,273.00,2.38,-94.69,12.94,4.81,5.12,3.30,1.68
23.00,1.00,280.81,-3.50,-54.06,1.00,0.88,-1.25,3.30,1.68
23.00,2.00,292.88,-19.31,16.75,-1.19,0.94,1.75,3.30,1.68
23.00,0.00,272.81,2.50,-94.94,12.25,5.19,4.12,3.68,1.70
23.00,1.00,280.88,-3.56,-54.06,0.88,0.94,-1.25,3.68,1.70
23.00,2.00,292.81,-19.38,16.75,-0.69,0.69,2.31,3.68,1.70
23.00,0.00,272.56,2.62,-95.19,12.12,6.19,4.44,4.05,1.72
23.00,1.00,280.88,-3.56,-54.12,0.62,1.38,-1.06,4.05,1.72
23.00,2.00,292.75,-19.38,16.75,-0.56,0.50,2.88,4.05,1.72
23.00,0.00,272.31,2.69,-95.44,11.50,8.56,4.69,4.42,1.74
23.00,1.00,280.88,-3.62,-54.12,1.12,1.62,-0.69,4.42,1.74
23.00,2.00,292.69,-19.38,16.75,-1.00,0.12,3.81,4.42,1.74
23.00,0.00,272.00,2.81,-95.69,13.44,8.75,6.38,4.84,1.76
23.00,1.00,280.88,-3.62,-54.12,1.06,1.69,-0.50,4.84,1.76
23.00,2.00,292.62,-19.44,16.69,-0.81,-0.06,4.19,4.84,1.76
23.00,0.00,271.69,3.00,-95.94,15.25,7.94,7.31,5.30,1.78
23.00,1.00,280.81,-3.62,-54.19,0.81,2.12,-0.31,5.30,1.78
23.00,2.00,292.50,-19.44,16.69,-0.44,-0.25,4.50,5.30,1.78
23.00,0.00,271.31,3.19,-96.31,15.81,6.31,6.06,5.78,1.80
23.00,1.00,280.81,-3.69,-54.19,0.81,2.19,0.06,5.78,1.80
23.00,2.00,292.38,-19.44,16.69,-0.75,-0.88,5.25,5.78,1.80
23.00,0.00,271.06,3.31,-96.56,15.12,6.69,5.19,6.24,1.82
23.00,1.00,280.81,-3.69,-54.25,0.94,2.56,0.00,6.24,1.82
23.00,2.00,292.31,-19.50,16.62,-0.56,-1.19,5.88,6.24,1.82
23.00,0.00,270.81,3.38,-96.88,15.56,6.62,4.50,6.73,1.84
23.00,1.00,280.75,-3.75,-54.25,1.38,2.38,-0.06,6.73,1.84
23.00,2.00,292.19,-19.50,16.62,-0.88,-0.19,5.75,6.73,1.84
23.00,0.00,270.56,3.50,-97.25,17.31,5.50,5.88,7.27,1.86
23.00,1.00,280.75,-3.75,-54.31,1.25,2.31,0.25,7.27,1.86
23.00,2.00,292.06,-19.56,16.56,-1.31,-0.12,5.69,7.27,1.86
23.00,0.00,270.31,3.62,-97.56,18.31,5.81,6.12,7.85,1.88
23.00,1.00,280.75,-3.75,-54.31,1.00,2.00,0.19,7.85,1.88
23.00,2.00,291.94,-19.56,16.56,-1.44,-0.19,6.06,7.85,1.88
23.00,0.00,270.00,3.75,-97.94,17.44,7.25,5.12,8.39,1.90
23.00,1.00,280.69,-3.81,-54.38,1.12,2.12,0.19,8.39,1.90
23.00,2.00,291.81,-19.62,16.56,-0.81,-0.12,6.12,8.39,1.90
23.00,0.00,269.69,3.88,-98.25,17.88,8.38,5.19,8.94,1.92
23.00,1.00,280.69,-3.81,-54.38,1.38,2.19,0.19,8.94,1.92
23.00,2.00,291.69,-19.62,16.50,-0.81,-0.19,5.94,8.94,1.92
23.00,0.00,269.38,4.00,-98.62,19.38,7.50,6.69,9.52,1.94
23.00,1.00,280.69,-3.88,-54.44,1.19,1.88,0.12,9.52,1.94
23.00,2.00,291.56,-19.69,16.50,-0.31,-0.94,5.69,9.52,1.94
23.00,0.00,269.06,4.19,-99.00,19.38,7.44,7.12,10.07,1.96
23.00,1.00,280.62,-3.88,-54.44,0.94,2.00,0.06,10.07,1.96
23.00,2.00,291.50,-19.69,16.44,0.56,-1.25,5.50,10.07,1.96
23.00,0.00,268.75,4.31,-99.44,21.38,6.00,7.62,10.66,1.98
23.00,1.00,280.62,-3.88,-54.44,0.88,2.56,-0.12,10.66,1.98
23.00,2.00,291.38,-19.69,16.38,1.12,-1.69,5.25,10.66,1.98
23.00,0.00,268.38,4.50,-99.88,23.19,4.62,8.38,11.32,2.00
23.00,1.00,280.62,-3.94,-54.50,1.06,2.94,-0.25,11.32,2.00
23.00,2.00,291.25,-19.69,16.38,0.81,-2.00,5.94,11.32,2.00
23.00,0.00,268.12,4.69,-100.31,22.44,4.12,7.44,11.97,2.02
23.00,1.00,280.56,-3.94,-54.50,0.94,2.62,0.06,11.97,2.02
23.00,2.00,291.12,-19.69,16.31,0.44,-1.81,6.38,11.97,2.02
23.00,0.00,267.81,4.81,-100.69,20.88,5.19,6.50,12.54,2.04
23.00,1.00,280.56,-4.00,-54.56,0.69,2.38,0.00,12.54,2.04
23.00,2.00,291.00,-19.69,16.25,1.50,-2.62,5.69,12.54,2.04
23.00,0.00,267.50,4.94,-101.12,20.56,6.44,6.56,13.09,2.06
23.00,1.00,280.50,-4.00,-54.56,1.00,2.44,-0.19,13.09,2.06
23.00,2.00,290.88,-19.69,16.19,1.81,-2.75,5.44,13.09,2.06
23.00,0.00,267.19,5.19,-101.56,24.00,3.62,10.06,13.73,2.08
23.00,1.00,280.50,-4.06,-54.56,0.50,2.12,-0.12,13.73,2.08
23.00,2.00,290.75,-19.69,16.06,2.19,-2.81,6.00,13.73,2.08
23.00,0.00,266.88,5.38,-102.00,23.19,4.56,8.88,14.35,2.10
23.00,1.00,280.50,-4.06,-54.56,0.62,1.94,0.19,14.35,2.10
23.00,2.00,290.62,-19.69,16.00,2.19,-2.69,7.31,14.35,2.10
23.00,0.00,266.50,5.50,-102.44,21.88,6.12,7.62,14.95,2.12
23.00,1.00,280.44,-4.12,-54.56,0.81,2.69,0.38,14.95,2.12
23.00,2.00,290.50,-19.69,15.88,1.31,-2.69,6.81,14.95,2.12
23.00,0.00,266.19,5.69,-102.81,21.25,5.75,7.12,15.54,2.14
23.00,1.00,280.44,-4.12,-54.62,0.19,2.56,0.62,15.54,2.14
23.00,2.00,290.38,-19.69,15.81,1.00,-3.38,6.88,15.54,2.14
23.00,0.00,265.88,5.88,-103.25,23.00,3.88,9.31,16.14,2.16
23.00,1.00,280.38,-4.12,-54.62,0.38,3.12,0.75,16.14,2.16
23.00,2.00,290.25,-19.62,15.75,2.56,-3.75,6.25,16.14,2.16
23.00,0.00,265.50,6.06,-103.75,24.19,2.62,10.62,16.77,2.18
23.00,1.00,280.31,-4.19,-54.62,-0.06,3.38,0.62,16.77,2.18
23.00,2.00,290.12,-19.62,15.62,2.94,-3.56,6.69,16.77,2.18
23.00,0.00,265.19,6.25,-104.25,25.00,1.50,10.06,17.46,2.20
23.00,1.00,280.25,-4.19,-54.62,0.38,3.75,1.00,17.46,2.20
23.00,2.00,289.94,-19.56,15.50,1.50,-4.44,8.12,17.46,2.20
23.00,0.00,264.94,6.44,-104.75,24.31,1.88,9.50,18.13,2.22
23.00,1.00,280.19,-4.19,-54.62,0.31,3.62,1.50,18.13,2.22
23.00,2.00,289.75,-19.56,15.44,1.56,-4.56,8.56,18.13,2.22
23.00,0.00,264.62,6.62,-105.19,22.94,2.69,8.12,18.73,2.24
23.00,1.00,280.12,-4.25,-54.62,0.81,4.19,1.12,18.73,2.24
23.00,2.00,289.62,-19.50,15.31,2.31,-4.12,8.94,18.73,2.24
23.00,0.00,264.31,6.81,-105.62,22.62,4.06,7.88,19.33,2.26
23.00,1.00,280.12,-4.25,-54.62,0.69,3.69,1.06,19.33,2.26
23.00,2.00,289.44,-19.50,15.19,2.12,-3.69,9.00,19.33,2.26
23.00,0.00,263.94,7.00,-106.06,24.31,4.62,9.81,20.00,2.28
23.00,1.00,280.06,-4.31,-54.62,0.31,4.00,1.12,20.00,2.28
23.00,2.00,289.25,-19.50,15.12,1.50,-3.69,10.00,20.00,2.28
23.00,0.00,263.50,7.19,-106.56,26.62,4.12,11.38,20.73,2.30
23.00,1.00,279.94,-4.31,-54.69,0.75,4.38,1.19,20.73,2.30
23.00,2.00,289.00,-19.44,15.00,1.75,-3.25,10.12,20.73,2.30
23.00,0.00,263.12,7.44,-107.06,26.44,3.44,10.31,21.45,2.32
23.00,1.00,279.88,-4.31,-54.69,0.94,4.25,1.94,21.45,2.32
23.00,2.00,288.81,-19.44,14.88,2.25,-3.81,10.25,21.45,2.32
23.00,0.00,262.75,7.62,-107.56,23.94,3.50,8.31,22.07,2.34
23.00,1.00,279.81,-4.38,-54.75,1.00,3.81,1.62,22.07,2.34
23.00,2.00,288.62,-19.44,14.75,2.50,-3.56,10.69,22.07,2.34
23.00,0.00,262.44,7.81,-108.00,24.31,3.19,8.81,22.72,2.36
23.00,1.00,279.75,-4.38,-54.75,1.75,4.12,1.44,22.72,2.36
23.00,2.00,288.44,-19.44,14.62,2.44,-3.62,10.69,22.72,2.36
23.00,0.00,262.06,8.00,-108.50,25.44,3.56,9.50,23.42,2.38
23.00,1.00,279.75,-4.38,-54.75,1.38,4.06,1.88,23.42,2.38
23.00,2.00,288.19,-19.38,14.50,1.56,-3.75,10.81,23.42,2.38
23.00,0.00,261.69,8.19,-109.00,26.00,3.25,8.50,24.15,2.40
23.00,1.00,279.56,-4.44,-54.81,0.88,5.00,2.62,24.15,2.40
23.00,2.00,288.00,-19.38,14.44,0.94,-3.62,11.19,24.15,2.40
23.00,0.00,261.31,8.38,-109.50,25.44,4.12,8.31,24.92,2.42
23.00,1.00,279.56,-4.44,-54.81,1.06,5.50,2.19,24.92,2.42
23.00,2.00,287.75,-19.38,14.31,-0.62,-3.69,11.25,24.92,2.42
23.00,0.00,260.94,8.50,-110.00,24.69,4.69,8.06,25.70,2.44
23.00,1.00,279.44,-4.44,-54.88,0.19,5.19,1.94,25.70,2.44
23.00,2.00,287.50,-19.38,14.31,-1.75,-4.19,11.50,25.70,2.44
23.00,0.00,260.56,8.69,-110.50,27.38,2.88,9.88,26.56,2.46
23.00,1.00,279.31,-4.50,-54.88,-0.94,4.44,2.06,26.56,2.46
23.00,2.00,287.25,-19.31,14.25,-2.00,-4.00,12.00,26.56,2.46
23.00,0.00,260.12,8.94,-111.06,28.38,2.81,11.19,27.45,2.48
23.00,1.00,279.25,-4.50,-54.88,1.06,5.81,1.69,27.45,2.48
23.00,2.00,287.00,-19.31,14.19,-1.81,-3.25,13.19,27.45,2.48
23.00,0.00,259.69,9.12,-111.62,27.19,4.00,9.88,28.29,2.50
23.00,1.00,279.12,-4.56,-54.88,0.44,4.88,2.00,28.29,2.50
23.00,2.00,286.75,-19.31,14.12,-1.56,-4.00,13.50,28.29,2.50
23.00,0.00,259.25,9.31,-112.06,25.31,4.88,8.62,29.04,2.52
23.00,1.00,279.06,-4.56,-54.88,-0.56,6.12,2.00,29.04,2.52
23.00,2.00,286.44,-19.31,14.06,-0.06,-3.81,14.31,29.04,2.52
23.00,0.00,258.81,9.50,-112.56,24.56,4.56,8.25,29.69,2.54
23.00,1.00,279.00,-4.62,-54.88,-0.75,5.69,1.69,29.69,2.54
23.00,2.00,286.12,-19.31,13.88,2.44,-3.56,15.12,29.69,2.54
23.00,0.00,258.44,9.69,-113.06,26.69,3.31,10.06,30.40,2.56
23.00,1.00,278.88,-4.62,-54.94,0.25,7.69,1.81,30.40,2.56
23.00,2.00,285.88,-19.38,13.75,2.50,-3.38,15.56,30.40,2.56
23.00,0.00,258.06,9.88,-113.56,27.00,2.06,10.50,31.20,2.58
23.00,1.00,278.75,-4.69,-54.94,-0.50,7.69,2.88,31.20,2.58
23.00,2.00,285.56,-19.38,13.62,-0.50,-3.75,16.38,31.20,2.58
23.00,0.00,257.69,10.06,-114.06,25.50,1.38,8.88,32.00,2.60
23.00,1.00,278.62,-4.75,-54.94,-1.00,7.25,3.19,32.00,2.60
23.00,2.00,285.19,-19.31,13.50,-1.69,-5.25,17.31,32.00,2.60
23.00,0.00,257.38,10.19,-114.56,23.62,0.56,7.44,32.73,2.62
23.00,1.00,278.50,-4.75,-54.94,-1.12,7.50,3.75,32.73,2.62
23.00,2.00,284.81,-19.31,13.44,-1.12,-5.50,17.06,32.73,2.62
23.00,0.00,257.19,10.31,-115.00,21.94,0.56,6.25,33.43,2.64
23.00,1.00,278.31,-4.81,-54.94,-0.94,7.25,3.81,33.43,2.64
23.00,2.00,284.50,-19.31,13.31,-2.06,-5.12,17.50,33.43,2.64
23.00,0.00,256.94,10.44,-115.44,23.06,-1.44,7.75,34.19,2.66
23.00,1.00,278.19,-4.81,-54.88,-0.12,7.56,4.38,34.19,2.66
23.00,2.00,284.12,-19.25,13.25,-2.56,-6.31,17.50,34.19,2.66
23.00,0.00,256.69,10.56,-115.94,24.06,-2.56,9.19,34.92,2.68
23.00,1.00,278.00,-4.81,-54.88,-1.69,5.69,3.94,34.92,2.68
23.00,2.00,283.75,-19.25,13.19,-1.00,-5.81,16.69,34.92,2.68
23.00,0.00,256.44,10.69,-116.38,22.56,-3.00,7.88,35.58,2.70
23.00,1.00,277.88,-4.81,-54.88,-1.12,7.06,4.06,35.58,2.70
23.00,2.00,283.44,-19.19,13.12,0.19,-5.00,15.38,35.58,2.70
23.00,0.00,256.31,10.75,-116.81,21.56,-3.69,7.31,36.19,2.72
23.00,1.00,277.75,-4.81,-54.88,-1.38,6.69,3.38,36.19,2.72
23.00,2.00,283.19,-19.19,13.00,0.69,-3.56,13.81,36.19,2.72
23.00,0.00,256.19,10.81,-117.12,19.69,-3.88,7.19,36.77,2.74
23.00,1.00,277.62,-4.88,-54.88,-1.81,6.94,3.12,36.77,2.74
23.00,2.00,282.94,-19.19,12.94,-0.06,-3.31,13.88,36.77,2.74
23.00,0.00,256.19,10.81,-117.50,18.12,-4.94,5.75,37.34,2.76
23.00,1.00,277.50,-4.88,-54.88,-1.12,7.44,3.31,37.34,2.76
23.00,2.00,282.62,-19.19,12.81,-1.12,-4.19,14.31,37.34,2.76
23.00,0.00,256.19,10.81,-117.81,17.06,-6.38,5.25,37.88,2.78
23.00,1.00,277.31,-4.94,-54.81,-1.25,7.06,3.19,37.88,2.78
23.00,2.00,282.31,-19.19,12.75,-1.38,-4.25,14.81,37.88,2.78
23.00,0.00,256.25,10.81,-118.12,16.44,-8.19,5.12,38.40,2.80
23.00,1.00,277.25,-4.94,-54.81,-1.25,6.19,2.50,38.40,2.80
23.00,2.00,282.06,-19.12,12.69,-1.38,-3.81,14.25,38.40,2.80
23.00,0.00,256.31,10.88,-118.56,18.56,-10.44,7.00,38.96,2.82
23.00,1.00,277.12,-4.94,-54.81,-1.31,4.69,2.56,38.96,2.82
23.00,2.00,281.75,-19.12,12.62,-0.50,-3.12,14.06,38.96,2.82
23.00,0.00,256.38,10.88,-119.00,19.62,-11.19,8.00,39.57,2.84
23.00,1.00,277.00,-5.00,-54.81,-0.69,5.94,2.62,39.57,2.84
23.00,2.00,281.50,-19.19,12.56,-1.12,-2.56,13.62,39.57,2.84
23.00,0.00,256.44,10.94,-119.38,18.44,-9.06,7.94,40.18,2.86
23.00,1.00,276.88,-5.00,-54.81,-1.12,6.19,2.94,40.18,2.86
23.00,2.00,281.19,-19.19,12.50,-2.31,-3.62,13.44,40.18,2.86
23.00,0.00,256.44,11.00,-119.69,14.88,-7.81,6.50,40.67,2.88
23.00,1.00,276.75,-5.06,-54.75,-1.69,6.44,2.56,40.67,2.88
23.00,2.00,280.94,-19.12,12.44,-1.75,-3.56,12.56,40.67,2.88
23.00,0.00,256.44,11.00,-120.00,12.81,-7.69,6.44,41.07,2.90
23.00,1.00,276.69,-5.06,-54.75,-1.69,5.56,2.44,41.07,2.90
23.00,2.00,280.69,-19.12,12.38,-0.69,-2.81,11.75,41.07,2.90
23.00,0.00,256.50,11.06,-120.25,11.75,-7.19,6.31,41.44,2.92
23.00,1.00,276.56,-5.12,-54.75,-1.81,5.81,1.88,41.44,2.92
23.00,2.00,280.50,-19.12,12.31,-0.94,-1.56,11.31,41.44,2.92
23.00,0.00,256.50,11.06,-120.50,12.75,-7.75,7.19,41.87,2.94
23.00,1.00,276.50,-5.12,-54.69,-1.44,5.38,2.12,41.87,2.94
23.00,2.00,280.25,-19.19,12.25,-1.94,-1.88,11.94,41.87,2.94
23.00,0.00,256.50,11.12,-120.81,12.94,-7.56,7.38,42.30,2.96
23.00,1.00,276.38,-5.19,-54.69,-2.00,5.38,2.12,42.30,2.96
23.00,2.00,280.00,-19.19,12.25,-1.88,-2.69,11.94,42.30,2.96
23.00,0.00,256.50,11.19,-121.06,11.56,-6.50,5.88,42.67,2.98
23.00,1.00,276.25,-5.19,-54.69,-1.25,6.25,1.94,42.67,2.98
23.00,2.00,279.75,-19.19,12.19,-0.75,-1.25,11.06,42.67,2.98
23.00,0.00,256.56,11.19,-121.31,11.06,-5.88,5.50,43.03,3.00
23.00,1.00,276.19,-5.25,-54.62,-2.19,5.69,2.00,43.03,3.00
23.00,2.00,279.56,-19.19,12.12,-1.19,-0.94,10.38,43.03,3.00
23.00,0.00,256.50,11.25,-121.56,11.19,-5.19,6.81,43.43,3.02
23.00,1.00,276.06,-5.25,-54.62,-2.19,5.75,2.69,43.43,3.02
23.00,2.00,279.31,-19.25,12.06,-2.44,-1.50,12.06,43.43,3.02
23.00,0.00,256.50,11.25,-121.69,10.44,-4.44,7.62,43.84,3.04
23.00,1.00,275.94,-5.25,-54.56,-1.62,6.19,3.31,43.84,3.04
23.00,2.00,279.06,-19.25,12.06,-3.75,-2.94,13.00,43.84,3.04
23.00,0.00,256.38,11.38,-122.00,10.12,-3.25,7.94,44.25,3.06
23.00,1.00,275.81,-5.31,-54.56,-1.69,6.06,3.56,44.25,3.06
23.00,2.00,278.81,-19.25,12.06,-3.75,-3.62,13.25,44.25,3.06
23.00,0.00,256.31,11.44,-122.06,8.00,-1.38,6.75,44.54,3.08
23.00,1.00,275.69,-5.31,-54.56,-1.75,6.12,3.25,44.54,3.08
23.00,2.00,278.50,-19.19,12.00,-1.94,-3.00,12.75,44.54,3.08
23.00,0.00,256.12,11.56,-122.31,6.12,-1.12,4.94,44.77,3.10
23.00,1.00,275.56,-5.31,-54.56,-1.50,7.31,3.31,44.77,3.10
23.00,2.00,278.25,-19.25,11.94,-1.62,-1.19,12.56,44.77,3.10
23.00,0.00,256.06,11.62,-122.38,6.06,-0.75,4.62,45.03,3.12
23.00,1.00,275.38,-5.38,-54.50,-1.12,7.75,3.19,45.03,3.12
23.00,2.00,278.00,-19.25,11.94,-2.75,-2.00,13.31,45.03,3.12
23.00,0.00,255.94,11.69,-122.50,6.12,0.06,4.31,45.30,3.14
23.00,1.00,275.25,-5.38,-54.50,-1.12,8.31,3.50,45.30,3.14
23.00,2.00,277.69,-19.25,11.88,-3.00,-2.19,14.38,45.30,3.14
23.00,0.00,255.81,11.75,-122.62,6.06,-0.31,3.81,45.56,3.16
23.00,1.00,275.12,-5.44,-54.50,-1.06,7.88,3.81,45.56,3.16
23.00,2.00,277.44,-19.25,11.81,-2.94,-2.81,14.62,45.56,3.16
23.00,0.00,255.69,11.81,-122.75,6.69,-0.56,4.25,45.82,3.18
23.00,1.00,274.94,-5.44,-54.50,-1.38,7.25,3.81,45.82,3.18
23.00,2.00,277.12,-19.25,11.81,-2.25,-3.00,14.56,45.82,3.18
23.00,0.00,255.50,11.88,-122.94,8.69,0.38,7.19,46.10,3.20
23.00,1.00,274.81,-5.50,-54.50,-0.94,8.25,3.31,46.10,3.20
23.00,2.00,276.81,-19.25,11.69,-0.81,-2.50,14.25,46.10,3.20
23.00,0.00,255.31,12.00,-123.06,6.62,2.25,5.69,46.29,3.22
23.00,1.00,274.62,-5.50,-54.50,-0.94,8.06,2.81,46.29,3.22
23.00,2.00,276.56,-19.25,11.62,0.12,-2.69,14.00,46.29,3.22
23.00,0.00,255.06,12.12,-123.19,6.81,2.31,4.88,46.46,3.24
23.00,1.00,274.50,-5.56,-54.50,-0.81,7.62,2.12,46.46,3.24
23.00,2.00,276.31,-19.25,11.50,1.12,-2.62,14.38,46.46,3.24
23.00,0.00,254.88,12.19,-123.31,7.44,2.25,3.75,46.63,3.26
23.00,1.00,274.44,-5.62,-54.50,-0.69,8.06,1.88,46.63,3.26
23.00,2.00,276.00,-19.25,11.38,1.62,-3.44,14.88,46.63,3.26
23.00,0.00,254.69,12.25,-123.44,7.56,2.12,3.88,46.86,3.28
23.00,1.00,274.25,-5.69,-54.50,0.06,8.94,2.44,46.86,3.28
23.00,2.00,275.69,-19.25,11.25,-0.31,-5.38,15.12,46.86,3.28
23.00,0.00,254.56,12.31,-123.56,4.81,1.88,1.50,46.99,3.30
23.00,1.00,274.12,-5.75,-54.50,-1.25,6.88,2.44,46.99,3.30
23.00,2.00,275.38,-19.19,11.19,0.62,-4.38,14.50,46.99,3.30
23.00,0.00,254.50,12.31,-123.62,6.19,-0.44,1.56,47.11,3.32
23.00,1.00,274.06,-5.81,-54.50,-1.50,6.75,2.00,47.11,3.32
23.00,2.00,275.12,-19.19,11.06,2.00,-2.31,13.12,47.11,3.32
23.00,0.00,254.44,12.31,-123.75,7.12,-1.25,2.94,47.30,3.34
23.00,1.00,273.94,-5.88,-54.50,-0.56,8.50,1.69,47.30,3.34
23.00,2.00,274.88,-19.19,10.94,0.44,-2.19,13.62,47.30,3.34
23.00,0.00,254.31,12.38,-123.94,8.25,-0.19,4.06,47.57,3.36
23.00,1.00,273.81,-5.94,-54.50,-0.94,8.50,2.00,47.57,3.36
23.00,2.00,274.62,-19.19,10.88,-0.81,-2.19,13.31,47.57,3.36
23.00,0.00,254.19,12.44,-124.12,8.00,0.50,3.69,47.82,3.38
23.00,1.00,273.69,-6.00,-54.50,-1.62,7.69,2.00,47.82,3.38
23.00,2.00,274.38,-19.19,10.81,-0.62,-3.00,13.25,47.82,3.38
23.00,0.00,254.06,12.50,-124.19,6.50,1.00,2.81,48.00,3.40
23.00,1.00,273.56,-6.00,-54.44,-1.25,7.62,1.56,48.00,3.40
23.00,2.00,274.12,-19.19,10.75,0.44,-1.50,12.19,48.00,3.40
23.00,0.00,254.00,12.50,-124.31,8.25,-1.06,3.06,48.23,3.42
23.00,1.00,273.50,-6.06,-54.44,-0.75,7.38,1.38,48.23,3.42
23.00,2.00,273.88,-19.25,10.62,0.38,-0.31,12.00,48.23,3.42
23.00,0.00,253.94,12.56,-124.50,8.88,-1.38,3.94,48.51,3.44
23.00,1.00,273.38,-6.12,-54.44,-0.94,7.25,1.56,48.51,3.44
23.00,2.00,273.62,-19.25,10.56,-0.44,-0.75,12.12,48.51,3.44
23.00,0.00,253.81,12.56,-124.62,7.00,-0.56,3.00,48.79,3.46
23.00,1.00,273.25,-6.19,-54.44,-0.62,8.06,1.88,48.79,3.46
23.00,2.00,273.38,-19.31,10.50,-2.69,-1.19,12.81,48.79,3.46
23.00,0.00,253.81,12.56,-124.62,3.38,-0.19,0.50,48.98,3.48
23.00,1.00,273.12,-6.25,-54.44,-1.25,7.31,1.81,48.98,3.48
23.00,2.00,273.12,-19.31,10.50,-3.00,-0.69,12.44,48.98,3.48
23.00,0.00,253.81,12.56,-124.62,1.19,0.31,-1.69,49.08,3.50
23.00,1.00,273.06,-6.31,-54.44,-1.81,7.38,1.88,49.08,3.50
23.00,2.00,272.88,-19.38,10.44,-2.31,-0.38,12.12,49.08,3.50
23.00,0.00,253.88,12.50,-124.69,3.31,-1.56,0.06,49.27,3.52
23.00,1.00,272.94,-6.38,-54.44,-1.25,7.88,1.56,49.27,3.52
23.00,2.00,272.62,-19.38,10.44,-3.12,-1.25,12.62,49.27,3.52
23.00,0.00,253.81,12.56,-124.81,6.00,-2.50,3.62,49.53,3.54
23.00,1.00,272.81,-6.44,-54.44,-0.81,8.31,2.06,49.53,3.54
23.00,2.00,272.38,-19.38,10.38,-2.88,-1.25,12.69,49.53,3.54
23.00,0.00,253.75,12.62,-124.94,4.38,-1.56,4.25,49.72,3.56
23.00,1.00,272.69,-6.50,-54.44,-1.31,8.44,2.12,49.72,3.56
23.00,2.00,272.12,-19.44,10.31,-1.94,-0.56,12.69,49.72,3.56
23.00,0.00,253.69,12.62,-124.94,1.81,0.00,3.31,49.85,3.58
23.00,1.00,272.56,-6.56,-54.38,-1.81,8.38,2.56,49.85,3.58
23.00,2.00,271.88,-19.44,10.31,-2.81,-0.81,12.88,49.85,3.58
23.00,0.00,253.62,12.69,-124.94,0.94,0.44,2.62,49.98,3.60
23.00,1.00,272.38,-6.62,-54.38,-0.62,9.81,3.00,49.98,3.60
23.00,2.00,271.62,-19.44,10.25,-3.50,-2.75,13.00,49.98,3.60
23.00,0.00,253.56,12.75,-125.00,3.25,-0.50,3.94,50.10,3.62
23.00,1.00,272.25,-6.69,-54.38,-1.38,8.62,2.69,50.10,3.62
23.00,2.00,271.38,-19.44,10.25,-0.62,-2.00,11.88,50.10,3.62
23.00,0.00,253.38,12.88,-125.00,3.25,2.19,3.75,50.21,3.64
23.00,1.00,272.12,-6.75,-54.38,-1.56,8.06,2.81,50.21,3.64
23.00,2.00,271.12,-19.44,10.19,-0.62,-1.94,11.56,50.21,3.64
23.00,0.00,253.25,12.88,-125.06,3.06,2.31,1.38,50.34,3.66
23.00,1.00,272.00,-6.75,-54.38,-1.44,8.06,2.38,50.34,3.66
23.00,2.00,270.88,-19.44,10.12,-1.25,-2.50,10.69,50.34,3.66
23.00,0.00,253.12,12.94,-125.12,5.25,1.06,2.50,50.54,3.68
23.00,1.00,271.88,-6.81,-54.38,-1.00,8.12,1.88,50.54,3.68
23.00,2.00,270.69,-19.44,10.06,-1.56,-2.12,10.56,50.54,3.68
23.00,0.00,252.94,13.00,-125.25,6.69,1.44,4.62,50.79,3.70
23.00,1.00,271.75,-6.88,-54.38,-0.94,7.38,1.62,50.79,3.70
23.00,2.00,270.50,-19.44,10.06,-1.75,-2.12,10.19,50.79,3.70
23.00,0.00,252.69,13.12,-125.38,5.94,2.06,4.50,51.00,3.72
23.00,1.00,271.62,-6.94,-54.38,-1.69,6.38,1.50,51.00,3.72
23.00,2.00,270.31,-19.38,10.00,-1.44,-1.50,9.06,51.00,3.72
23.00,0.00,252.50,13.19,-125.44,4.81,2.75,3.56,51.19,3.74
23.00,1.00,271.56,-7.00,-54.38,-1.62,6.38,0.88,51.19,3.74
23.00,2.00,270.12,-19.38,10.00,-1.44,-1.62,8.69,51.19,3.74
23.00,0.00,252.31,13.25,-125.56,4.44,3.00,2.94,51.37,3.76
23.00,1.00,271.50,-7.06,-54.31,-2.06,5.50,0.56,51.37,3.76
23.00,2.00,269.94,-19.38,10.00,-1.69,-1.81,8.50,51.37,3.76
23.00,0.00,252.12,13.31,-125.62,6.00,0.88,4.25,51.58,3.78
23.00,1.00,271.44,-7.12,-54.31,-2.06,5.62,0.38,51.58,3.78
23.00,2.00,269.81,-19.38,9.94,-1.38,-0.50,7.75,51.58,3.78
23.00,0.00,252.00,13.38,-125.69,2.50,2.88,2.69,51.73,3.80
23.00,1.00,271.38,-7.19,-54.25,-2.56,5.69,0.81,51.73,3.80
23.00,2.00,269.62,-19.38,9.94,-2.50,-1.19,7.62,51.73,3.80
23.00,0.00,251.94,13.44,-125.62,0.25,2.38,0.44,51.82,3.82
23.00,1.00,271.31,-7.25,-54.19,-3.19,5.19,1.19,51.82,3.82
23.00,2.00,269.44,-19.38,9.94,-2.88,-1.75,8.00,51.82,3.82
23.00,0.00,251.88,13.44,-125.69,2.44,0.62,2.19,51.95,3.84
23.00,1.00,271.19,-7.31,-54.19,-2.75,6.06,0.62,51.95,3.84
23.00,2.00,269.31,-19.38,9.94,-2.12,-0.94,7.75,51.95,3.84
23.00,0.00,251.75,13.50,-125.75,4.81,0.38,4.44,52.15,3.86
23.00,1.00,271.12,-7.38,-54.12,-3.12,6.56,0.50,52.15,3.86
23.00,2.00,269.12,-19.38,9.94,-1.75,0.06,7.38,52.15,3.86
23.00,0.00,251.62,13.56,-125.88,7.00,-0.81,5.12,52.44,3.88
23.00,1.00,271.06,-7.44,-54.06,-3.25,6.75,0.69,52.44,3.88
23.00,2.00,269.00,-19.44,9.94,-3.06,-0.44,7.19,52.44,3.88
23.00,0.00,251.44,13.62,-126.00,5.25,1.31,2.88,52.67,3.90
23.00,1.00,271.00,-7.50,-54.00,-3.50,6.88,0.25,52.67,3.90
23.00,2.00,268.88,-19.44,9.94,-2.56,-0.38,6.88,52.67,3.90
23.00,0.00,251.31,13.69,-126.06,3.75,1.88,0.50,52.83,3.92
23.00,1.00,270.94,-7.56,-53.94,-3.31,6.44,0.19,52.83,3.92
23.00,2.00,268.69,-19.44,9.94,-1.62,0.62,6.75,52.83,3.92
23.00,0.00,251.25,13.69,-126.19,5.44,0.25,2.44,53.06,3.94
23.00,1.00,270.81,-7.62,-53.94,-3.19,6.12,0.12,53.06,3.94
23.00,2.00,268.56,-19.50,9.94,-2.31,0.19,6.81,53.06,3.94
23.00,0.00,251.12,13.75,-126.31,6.19,0.31,4.38,53.34,3.96
23.00,1.00,270.75,-7.69,-53.88,-3.12,5.88,0.56,53.34,3.96
23.00,2.00,268.44,-19.50,9.94,-3.31,-0.56,7.19,53.34,3.96
23.00,0.00,251.00,13.81,-126.38,4.06,1.56,3.25,53.55,3.98
23.00,1.00,270.69,-7.75,-53.81,-3.44,5.25,0.12,53.55,3.98
23.00,2.00,268.31,-19.50,9.94,-3.31,-0.88,6.81,53.55,3.98
23.00,0.00,250.94,13.81,-126.38,-0.31,3.00,-1.56,53.59,4.00
23.00,1.00,270.69,-7.81,-53.75,-3.81,4.25,-0.44,53.59,4.00
23.00,2.00,268.19,-19.50,10.00,-1.62,-1.06,5.94,53.59,4.00
23.00,0.00,251.00,13.75,-126.31,-0.12,0.56,-2.25,53.61,4.02
23.00,1.00,270.62,-7.88,-53.69,-3.31,4.81,-0.62,53.61,4.02
23.00,2.00,268.06,-19.50,9.94,-0.88,0.50,5.25,53.61,4.02
23.00,0.00,251.00,13.75,-126.38,3.38,-1.62,1.56,53.77,4.04
23.00,1.00,270.56,-7.94,-53.62,-3.25,5.62,-0.69,53.77,4.04
23.00,2.00,267.94,-19.56,9.94,-2.06,-0.38,5.31,53.77,4.04
23.00,0.00,250.94,13.81,-126.50,3.81,-0.56,2.62,53.97,4.06
23.00,1.00,270.50,-8.00,-53.56,-3.88,5.25,-0.31,53.97,4.06
23.00,2.00,267.81,-19.56,9.94,-2.88,-0.75,5.94,53.97,4.06
23.00,0.00,250.88,13.81,-126.50,2.56,1.50,1.00,54.15,4.08
23.00,1.00,270.44,-8.06,-53.50,-4.19,5.06,-0.06,54.15,4.08
23.00,2.00,267.69,-19.56,10.00,-3.56,-0.56,6.25,54.15,4.08
23.00,0.00,250.75,13.88,-126.50,1.88,2.94,0.62,54.29,4.10
23.00,1.00,270.38,-8.12,-53.44,-4.00,5.12,-0.12,54.29,4.10
23.00,2.00,267.56,-19.56,10.00,-3.06,-0.31,6.19,54.29,4.10
23.00,0.00,250.69,13.88,-126.56,2.19,2.69,0.38,54.43,4.12
23.00,1.00,270.38,-8.19,-53.38,-3.75,5.31,0.25,54.43,4.12
23.00,2.00,267.44,-19.62,10.06,-2.31,0.56,5.75,54.43,4.12
23.00,0.00,250.56,13.88,-126.62,3.81,1.50,1.50,54.62,4.14
23.00,1.00,270.25,-8.25,-53.31,-3.88,6.38,1.31,54.62,4.14
23.00,2.00,267.31,-19.62,10.06,-2.69,0.62,5.44,54.62,4.14
23.00,0.00,250.50,13.94,-126.62,2.00,2.62,0.19,54.76,4.16
23.00,1.00,270.12,-8.31,-53.25,-3.75,6.31,2.00,54.76,4.16
23.00,2.00,267.19,-19.62,10.06,-3.00,0.31,6.06,54.76,4.16
23.00,0.00,250.56,13.88,-126.62,1.44,0.12,-2.00,54.89,4.18
23.00,1.00,270.06,-8.31,-53.19,-3.62,5.88,1.69,54.89,4.18
23.00,2.00,267.06,-19.69,10.06,-2.81,0.69,5.88,54.89,4.18
23.00,0.00,250.69,13.75,-126.62,2.94,-2.06,-1.12,55.07,4.20
23.00,1.00,270.00,-8.38,-53.19,-4.12,5.00,1.75,55.07,4.20
23.00,2.00,266.94,-19.69,10.12,-3.38,0.94,5.38,55.07,4.20
23.00,0.00,250.94,13.69,-126.69,2.69,-3.56,-0.69,55.26,4.22
23.00,1.00,269.88,-8.44,-53.06,-3.19,5.75,1.12,55.26,4.22
23.00,2.00,266.88,-19.75,10.12,-3.62,1.12,5.38,55.26,4.22
23.00,0.00,251.12,13.56,-126.69,2.19,-4.12,-0.94,55.44,4.24
23.00,1.00,269.81,-8.44,-53.06,-3.62,4.88,0.81,55.44,4.24
23.00,2.00,266.75,-19.75,10.19,-3.81,0.38,5.19,55.44,4.24
23.00,0.00,251.25,13.50,-126.75,1.12,-3.69,-2.06,55.58,4.26
23.00,1.00,269.75,-8.50,-53.00,-3.56,3.88,0.75,55.58,4.26
23.00,2.00,266.62,-19.81,10.25,-3.62,0.56,5.25,55.58,4.26
23.00,0.00,251.44,13.44,-126.69,0.12,-2.44,-2.38,55.68,4.28
23.00,1.00,269.69,-8.50,-52.94,-3.38,3.75,0.75,55.68,4.28
23.00,2.00,266.50,-19.81,10.25,-3.38,0.06,4.69,55.68,4.28
23.00,0.00,251.56,13.38,-126.69,0.00,-1.31,-1.94,55.75,4.30
23.00,1.00,269.69,-8.56,-52.88,-3.44,3.75,0.62,55.75,4.30
23.00,2.00,266.44,-19.81,10.31,-2.31,-0.25,4.44,55.75,4.30
23.00,0.00,251.56,13.38,-126.69,0.62,0.19,-1.19,55.81,4.32
23.00,1.00,269.62,-8.56,-52.81,-3.12,3.12,0.69,55.81,4.32
23.00,2.00,266.31,-19.81,10.31,-1.69,-0.50,4.44,55.81,4.32
23.00,0.00,251.44,13.38,-126.69,0.81,2.50,-0.50,55.89,4.34
23.00,1.00,269.56,-8.62,-52.81,-2.44,3.06,1.00,55.89,4.34
23.00,2.00,266.19,-19.81,10.31,-1.88,-1.12,5.00,55.89,4.34
23.00,0.00,251.31,13.44,-126.62,0.06,4.69,0.00,55.99,4.36
23.00,1.00,269.50,-8.62,-52.75,-2.38,3.06,0.94,55.99,4.36
23.00,2.00,266.12,-19.81,10.31,-3.38,-1.44,5.38,55.99,4.36
23.00,0.00,251.06,13.56,-126.56,-0.75,7.31,0.31,56.10,4.38
23.00,1.00,269.44,-8.62,-52.69,-3.12,2.44,1.12,56.10,4.38
23.00,2.00,266.00,-19.81,10.38,-4.50,-2.25,5.75,56.10,4.38
23.00,0.00,250.75,13.62,-126.50,-1.19,9.75,0.12,56.17,4.40
23.00,1.00,269.38,-8.69,-52.69,-1.50,3.56,1.31,56.17,4.40
23.00,2.00,265.88,-19.75,10.38,-3.56,-2.56,5.12,56.17,4.40
23.00,0.00,250.44,13.75,-126.44,-1.88,10.88,-0.31,56.21,4.42
23.00,1.00,269.31,-8.69,-52.62,-2.50,2.00,1.88,56.21,4.42
23.00,2.00,265.75,-19.75,10.44,-3.12,-2.31,5.25,56.21,4.42
23.00,0.00,250.12,13.88,-126.31,-2.94,8.81,-0.50,56.24,4.44
23.00,1.00,269.25,-8.69,-52.62,-2.94,2.00,1.38,56.24,4.44
23.00,2.00,265.62,-19.75,10.44,-3.94,-1.81,4.81,56.24,4.44
23.00,0.00,249.88,13.94,-126.25,-2.75,6.12,-0.38,56.23,4.46
23.00,1.00,269.25,-8.69,-52.56,-1.62,3.06,0.50,56.23,4.46
23.00,2.00,265.50,-19.69,10.50,-2.56,-1.19,3.94,56.23,4.46
23.00,0.00,249.81,14.00,-126.19,-2.25,3.69,-1.44,56.22,4.48
23.00,1.00,269.19,-8.69,-52.50,-2.12,2.56,0.75,56.22,4.48
23.00,2.00,265.44,-19.75,10.50,-1.69,0.25,3.50,56.22,4.48
23.00,0.00,249.94,13.88,-126.12,-2.50,0.19,-2.62,56.24,4.50
23.00,1.00,269.12,-8.75,-52.50,-2.44,2.56,1.06,56.24,4.50
23.00,2.00,265.38,-19.75,10.56,-3.12,0.88,3.19,56.24,4.50
23.00,0.00,250.12,13.81,-126.00,-3.31,-1.50,-3.12,56.26,4.52
23.00,1.00,269.12,-8.75,-52.44,-2.81,3.00,0.69,56.26,4.52
23.00,2.00,265.31,-19.75,10.56,-4.19,0.31,3.56,56.26,4.52
23.00,0.00,250.31,13.75,-125.94,-3.50,-1.81,-3.31,56.27,4.54
23.00,1.00,269.06,-8.81,-52.38,-3.06,3.25,0.31,56.27,4.54
23.00,2.00,265.19,-19.81,10.62,-3.81,0.94,3.06,56.27,4.54
23.00,0.00,250.50,13.69,-125.88,-3.00,-2.56,-3.06,56.28,4.56
23.00,1.00,269.00,-8.81,-52.38,-3.12,3.12,0.06,56.28,4.56
23.00,2.00,265.19,-19.81,10.69,-3.12,1.56,2.69,56.28,4.56
23.00,0.00,250.62,13.56,-125.81,-2.88,-2.50,-2.62,56.30,4.58
23.00,1.00,269.00,-8.88,-52.31,-3.62,3.50,-0.12,56.30,4.58
23.00,2.00,265.12,-19.88,10.75,-3.62,1.38,2.69,56.30,4.58
23.00,0.00,250.81,13.50,-125.81,-3.12,-1.88,-2.44,56.34,4.60
23.00,1.00,268.94,-8.88,-52.25,-3.44,3.38,0.12,56.34,4.60
23.00,2.00,265.00,-19.88,10.81,-4.62,0.62,3.25,56.34,4.60
23.00,0.00,250.88,13.50,-125.75,-2.62,-0.31,-1.94,56.37,4.62
23.00,1.00,268.88,-8.94,-52.19,-3.38,3.12,-0.44,56.37,4.62
23.00,2.00,264.94,-19.94,10.88,-3.44,1.19,3.06,56.37,4.62
23.00,0.00,250.94,13.44,-125.69,-1.56,0.44,-1.62,56.42,4.64
23.00,1.00,268.88,-9.00,-52.12,-3.00,3.44,-0.81,56.42,4.64
23.00,2.00,264.88,-19.94,10.94,-3.38,1.31,2.75,56.42,4.64
23.00,0.00,251.00,13.44,-125.69,-0.31,0.75,-1.62,56.49,4.66
23.00,1.00,268.88,-9.06,-52.06,-3.00,3.69,-0.69,56.49,4.66
23.00,2.00,264.81,-20.00,10.94,-2.81,1.44,2.81,56.49,4.66
23.00,0.00,251.00,13.44,-125.69,0.69,0.56,-1.12,56.59,4.68
23.00,1.00,268.81,-9.12,-52.00,-2.75,4.00,-0.94,56.59,4.68
23.00,2.00,264.75,-20.06,11.00,-2.81,1.56,2.62,56.59,4.68
23.00,0.00,251.00,13.38,-125.69,1.38,-0.56,-1.00,56.72,4.70
23.00,1.00,268.81,-9.19,-51.94,-2.25,4.62,-0.94,56.72,4.70
23.00,2.00,264.69,-20.06,11.00,-2.88,1.50,2.00,56.72,4.70
23.00,0.00,251.06,13.38,-125.75,2.31,-1.88,-1.00,56.85,4.72
23.00,1.00,268.75,-9.25,-51.94,-2.62,2.88,-0.94,56.85,4.72
23.00,2.00,264.69,-20.12,11.06,-2.00,0.81,1.69,56.85,4.72
23.00,0.00,251.12,13.31,-125.75,2.69,-3.06,-1.81,56.97,4.74
23.00,1.00,268.75,-9.25,-51.88,-2.38,2.50,-1.00,56.97,4.74
23.00,2.00,264.62,-20.12,11.06,-1.38,1.62,1.38,56.97,4.74
23.00,0.00,251.25,13.25,-125.81,3.25,-3.94,-1.88,57.12,4.76
23.00,1.00,268.75,-9.31,-51.81,-2.75,2.06,-0.81,57.12,4.76
23.00,2.00,264.62,-20.19,11.12,-2.12,1.56,1.25,57.12,4.76
23.00,0.00,251.38,13.19,-125.94,4.06,-4.06,-1.56,57.31,4.78
23.00,1.00,268.75,-9.38,-51.81,-1.38,3.38,-1.31,57.31,4.78
23.00,2.00,264.56,-20.19,11.12,-2.31,0.44,1.75,57.31,4.78
23.00,0.00,251.50,13.12,-126.00,4.25,-3.75,-1.38,57.48,4.80
23.00,1.00,268.75,-9.44,-51.75,-1.56,3.12,-0.94,57.48,4.80
23.00,2.00,264.56,-20.19,11.19,-1.38,1.06,0.88,57.48,4.80
23.00,0.00,251.62,13.06,-126.06,4.31,-2.56,-0.81,57.65,4.82
23.00,1.00,268.75,-9.44,-51.75,-2.38,2.19,-0.94,57.65,4.82
23.00,2.00,264.50,-20.25,11.19,-1.62,1.06,0.88,57.65,4.82
23.00,0.00,251.69,13.00,-126.19,4.94,-3.12,0.25,57.85,4.84
23.00,1.00,268.69,-9.50,-51.69,-2.69,2.38,-1.00,57.85,4.84
23.00,2.00,264.50,-20.25,11.25,-1.75,0.94,0.88,57.85,4.84
23.00,0.00,251.69,13.00,-126.31,6.00,-2.31,2.19,58.05,4.86
23.00,1.00,268.69,-9.56,-51.62,-2.81,1.88,-1.19,58.05,4.86
23.00,2.00,264.50,-20.25,11.25,-0.81,1.12,0.62,58.05,4.86
23.00,0.00,251.69,13.00,-126.44,3.50,-0.75,-0.19,58.17,4.88
23.00,1.00,268.69,-9.56,-51.62,-2.50,1.62,-0.94,58.17,4.88
23.00,2.00,264.50,-20.31,11.25,-0.69,1.50,0.31,58.17,4.88
23.00,0.00,251.75,13.00,-126.44,2.38,-1.06,-1.69,58.27,4.90
23.00,1.00,268.69,-9.62,-51.56,-2.62,1.88,-0.44,58.27,4.90
23.00,2.00,264.50,-20.31,11.25,-1.06,1.31,0.31,58.27,4.90
23.00,0.00,251.81,12.94,-126.50,2.81,-2.75,-1.00,58.40,4.92
23.00,1.00,268.69,-9.62,-51.50,-1.88,1.94,-0.94,58.40,4.92
23.00,2.00,264.44,-20.31,11.31,-1.44,0.25,0.81,58.40,4.92
23.00,0.00,251.94,12.88,-126.56,3.38,-3.50,0.00,58.52,4.94
23.00,1.00,268.69,-9.69,-51.50,-1.75,2.00,-0.56,58.52,4.94
23.00,2.00,264.44,-20.38,11.31,-0.81,0.69,0.81,58.52,4.94
23.00,0.00,252.00,12.81,-126.62,3.62,-4.00,2.00,58.66,4.96
23.00,1.00,268.62,-9.69,-51.44,-1.94,1.69,-0.50,58.66,4.96
23.00,2.00,264.44,-20.38,11.31,-1.12,0.75,0.94,58.66,4.96
23.00,0.00,252.12,12.81,-126.69,2.00,-2.56,1.50,58.75,4.98
23.00,1.00,268.62,-9.75,-51.44,-1.31,2.12,-0.69,58.75,4.98
23.00,2.00,264.44,-20.38,11.38,-1.19,1.12,0.75,58.75,4.98
23.00,0.00,252.12,12.81,-126.75,1.56,-2.00,1.00,58.83,5.00
23.00,1.00,268.62,-9.75,-51.38,-2.19,0.81,-0.56,58.83,5.00
23.00,2.00,264.44,-20.44,11.38,-1.00,1.25,0.19,58.83,5.00
23.00,0.00,252.19,12.81,-126.75,1.00,-2.25,0.50,58.88,5.02
23.00,1.00,268.62,-9.75,-51.38,-1.25,1.62,-0.81,58.88,5.02
23.00,2.00,264.44,-20.44,11.38,-0.81,1.44,-0.12,58.88,5.02
23.00,0.00,252.31,12.75,-126.75,1.00,-3.19,0.50,58.93,5.04
23.00,1.00,268.62,-9.81,-51.31,-2.00,0.88,-0.69,58.93,5.04
23.00,2.00,264.44,-20.44,11.38,-0.56,0.88,0.50,58.93,5.04
23.00,0.00,252.50,12.69,-126.81,1.12,-4.38,0.88,58.97,5.06
23.00,1.00,268.62,-9.81,-51.31,-1.25,1.44,-1.00,58.97,5.06
23.00,2.00,264.44,-20.50,11.38,-0.31,0.38,0.12,58.97,5.06
23.00,0.00,252.62,12.69,-126.81,1.12,-4.12,1.12,58.99,5.08
23.00,1.00,268.62,-9.88,-51.25,-1.31,1.25,-1.06,58.99,5.08
23.00,2.00,264.44,-20.50,11.38,0.31,0.50,0.00,58.99,5.08
23.00,0.00,252.69,12.62,-126.88,0.81,-3.06,0.94,59.02,5.10
23.00,1.00,268.62,-9.88,-51.25,-1.25,0.94,-1.12,59.02,5.10
23.00,2.00,264.44,-20.50,11.38,-0.06,0.19,0.19,59.02,5.10
23.00,0.00,252.75,12.62,-126.88,-0.19,-0.94,0.69,59.05,5.12
23.00,1.00,268.62,-9.94,-51.25,-1.62,0.69,-0.69,59.05,5.12
23.00,2.00,264.38,-20.50,11.44,-1.19,0.19,1.06,59.05,5.12
23.00,0.00,252.69,12.69,-126.88,-0.94,1.19,0.94,59.07,5.14
23.00,1.00,268.62,-9.94,-51.19,-1.62,1.00,-0.69,59.07,5.14
23.00,2.00,264.38,-20.50,11.44,-1.69,-0.06,1.19,59.07,5.14
23.00,0.00,252.56,12.69,-126.81,-0.19,3.19,1.50,59.13,5.16
23.00,1.00,268.62,-9.94,-51.19,-1.56,1.25,-0.44,59.13,5.16
23.00,2.00,264.31,-20.50,11.44,-2.25,-0.12,1.56,59.13,5.16
23.00,0.00,252.44,12.75,-126.81,-0.56,3.88,1.44,59.16,5.18
23.00,1.00,268.62,-9.94,-51.12,-1.62,1.56,-0.38,59.16,5.18
23.00,2.00,264.31,-20.50,11.50,-1.69,0.81,1.44,59.16,5.20
23.00,0.00,252.31,12.81,-126.81,-1.25,3.50,1.00,59.16,5.20
23.00,1.00,268.56,-10.00,-51.12,-1.19,1.88,-0.56,59.16,5.20
23.00,2.00,264.25,-20.56,11.50,-1.25,1.00,1.69,59.16,5.20
23.00,0.00,252.19,12.88,-126.75,-1.12,2.44,0.31,59.17,5.22
23.00,1.00,268.56,-10.00,-51.06,-1.94,1.38,-0.81,59.17,5.22
23.00,2.00,264.25,-20.56,11.50,-1.38,1.62,1.25,59.17,5.24
23.00,0.00,252.19,12.88,-126.69,-1.19,1.44,-0.81,59.24,5.24
23.00,1.00,268.56,-10.06,-51.06,-1.75,2.06,-0.69,59.24,5.24
23.00,2.00,264.19,-20.56,11.56,-3.62,1.12,1.81,59.24,5.24
23.00,0.00,252.25,12.81,-126.69,-1.50,0.19,-1.50,59.29,5.26
23.00,1.00,268.56,-10.06,-51.00,-2.25,2.06,-0.56,59.29,5.26
23.00,2.00,264.12,-20.62,11.62,-3.06,1.38,1.62,59.29,5.26
23.00,0.00,252.31,12.75,-126.62,-1.62,-0.19,-2.06,59.30,5.28
23.00,1.00,268.56,-10.12,-51.00,-1.94,2.25,-0.81,59.30,5.28
23.00,2.00,264.12,-20.69,11.69,-1.94,2.38,1.31,59.30,5.30
23.00,0.00,252.44,12.75,-126.62,-1.50,-0.38,-2.25,59.34,5.30
23.00,1.00,268.56,-10.12,-50.94,-1.94,2.50,-1.12,59.34,5.30
23.00,2.00,264.06,-20.69,11.75,-2.88,2.38,1.12,59.34,5.30
23.00,0.00,252.50,12.69,-126.56,-1.50,-0.81,-2.69,59.36,5.32
23.00,1.00,268.56,-10.19,-50.94,-1.94,2.50,-1.50,59.36,5.32
23.00,2.00,264.06,-20.75,11.75,-2.31,3.06,0.62,59.36,5.34
23.00,0.00,252.69,12.62,-126.56,-1.19,-1.88,-2.81,59.37,5.34
23.00,1.00,268.56,-10.25,-50.88,-2.44,2.62,-2.06,59.37,5.34
23.00,2.00,264.06,-20.81,11.81,-1.62,3.94,0.12,59.37,5.36
23.00,0.00,252.88,12.50,-126.50,-0.75,-3.19,-3.44,59.43,5.36
23.00,1.00,268.56,-10.31,-50.81,-2.56,2.81,-2.38,59.43,5.36
23.00,2.00,264.06,-20.88,11.88,-2.75,3.69,-0.25,59.43,5.36
23.00,0.00,253.06,12.38,-126.50,-1.06,-3.62,-4.19,59.49,5.38
23.00,1.00,268.56,-10.38,-50.75,-2.81,2.75,-1.94,59.49,5.38
23.00,2.00,264.06,-20.94,11.94,-3.00,3.06,0.19,59.49,5.40
23.00,0.00,253.31,12.31,-126.50,-1.50,-3.06,-3.81,59.50,5.40
23.00,1.00,268.56,-10.50,-50.75,-2.44,3.00,-2.44,59.50,5.40
23.00,2.00,264.06,-21.00,11.94,-1.75,3.56,-0.12,59.50,5.40
23.00,0.00,253.44,12.25,-126.44,-1.69,-2.06,-3.31,59.51,5.42
23.00,1.00,268.62,-10.56,-50.69,-2.75,2.25,-2.38,59.51,5.42
23.00,2.00,264.06,-21.06,12.00,-2.19,3.38,0.38,59.51,5.44
23.00,0.00,253.56,12.19,-126.44,-1.94,-0.06,-2.81,59.52,5.44
23.00,1.00,268.62,-10.62,-50.62,-2.50,2.44,-2.12,59.52,5.44
23.00,2.00,264.06,-21.12,12.06,-2.38,2.56,0.94,59.52,5.46
23.00,0.00,253.56,12.19,-126.38,-1.62,1.69,-1.88,59.54,5.46
23.00,1.00,268.62,-10.69,-50.56,-2.06,2.81,-1.50,59.54,5.46
23.00,2.00,264.00,-21.19,12.06,-2.06,2.44,0.88,59.54,5.46
23.00,0.00,253.44,12.19,-126.31,-1.44,3.75,-1.06,59.56,5.48
23.00,1.00,268.62,-10.75,-50.56,-2.19,2.75,-1.38,59.56,5.48
23.00,2.00,264.00,-21.25,12.12,-2.38,1.75,1.31,59.56,5.50
23.00,0.00,253.31,12.25,-126.31,-0.69,5.19,-0.88,59.62,5.50
23.00,1.00,268.62,-10.75,-50.50,-2.19,2.31,-0.69,59.62,5.50
23.00,2.00,263.94,-21.25,12.19,-2.44,1.94,1.38,59.62,5.50
23.00,0.00,253.06,12.31,-126.25,-0.44,6.31,-0.62,59.67,5.52
23.00,1.00,268.62,-10.81,-50.50,-2.19,2.06,-1.00,59.67,5.52
23.00,2.00,263.94,-21.31,12.19,-2.25,1.94,1.06,59.67,5.54
23.00,0.00,252.81,12.38,-126.25,-0.19,7.25,-0.44,59.75,5.54
23.00,1.00,268.56,-10.81,-50.44,-2.12,2.31,-0.69,59.75,5.54
23.00,2.00,263.88,-21.38,12.25,-2.94,1.19,1.38,59.75,5.56
23.00,0.00,252.62,12.44,-126.19,-0.12,6.06,-0.62,59.82,5.56
23.00,1.00,268.56,-10.88,-50.44,-1.56,3.00,-0.50,59.82,5.56
23.00,2.00,263.88,-21.38,12.31,-2.62,0.62,1.25,59.82,5.56
23.00,0.00,252.56,12.44,-126.19,-0.44,3.56,-1.62,59.87,5.58
23.00,1.00,268.56,-10.88,-50.38,-1.88,1.88,-0.25,59.87,5.58
23.00,2.00,263.88,-21.38,12.38,-2.19,0.88,0.81,59.87,5.60
23.00,0.00,252.69,12.38,-126.19,0.38,-2.31,-2.50,59.97,5.60
23.00,1.00,268.50,-10.94,-50.38,-2.06,1.69,-0.19,59.97,5.60
23.00,2.00,263.81,-21.38,12.38,-2.94,0.56,0.94,59.97,5.60
23.00,0.00,252.88,12.25,-126.19,0.38,-5.00,-1.81,60.07,5.62
23.00,1.00,268.50,-10.94,-50.31,-2.12,1.62,0.06,60.07,5.62
23.00,2.00,263.81,-21.44,12.44,-2.94,0.94,0.81,60.07,5.64
23.00,0.00,253.06,12.19,-126.19,0.44,-3.81,-1.44,60.13,5.64
23.00,1.00,268.50,-10.94,-50.25,-1.94,1.94,-0.25,60.13,5.64
23.00,2.00,263.75,-21.44,12.50,-1.75,1.06,0.62,60.13,5.64
23.00,0.00,253.19,12.19,-126.25,0.38,-2.12,-0.44,60.19,5.66
23.00,1.00,268.44,-11.00,-50.25,-1.56,1.38,-0.38,60.19,5.66
23.00,2.00,263.75,-21.50,12.56,-1.44,1.19,0.25,60.19,5.66
23.00,0.00,253.25,12.12,-126.25,-0.50,-1.38,-0.56,60.22,5.68
23.00,1.00,268.44,-11.00,-50.25,-1.69,0.44,-0.06,60.22,5.68
23.00,2.00,263.75,-21.50,12.56,-1.75,1.00,0.06,60.22,5.68
23.00,0.00,253.31,12.12,-126.25,-0.25,-1.06,-0.94,60.26,5.70
23.00,1.00,268.44,-11.00,-50.19,-1.31,0.69,-0.44,60.26,5.70
23.00,2.00,263.75,-21.50,12.62,-1.56,0.38,0.06,60.26,5.70
23.00,0.00,253.38,12.06,-126.25,-0.06,-1.00,-1.19,60.29,5.72
23.00,1.00,268.44,-11.00,-50.19,-1.19,0.25,-0.38,60.29,5.72
23.00,2.00,263.75,-21.50,12.62,-0.94,-0.06,-0.81,60.29,5.72
23.00,0.00,253.38,12.06,-126.19,-0.31,0.12,-0.75,60.31,5.74
23.00,1.00,268.44,-11.00,-50.12,-0.88,-0.06,-0.12,60.31,5.74
23.00,2.00,263.81,-21.50,12.69,-1.06,0.25,-1.06,60.31,5.74
23.00,0.00,253.38,12.06,-126.19,-0.38,0.25,0.31,60.33,5.76
23.00,1.00,268.44,-11.00,-50.12,-0.88,-0.44,-0.44,60.33,5.76
23.00,2.00,263.81,-21.50,12.75,-1.00,0.12,-1.06,60.33,5.76
23.00,0.00,253.38,12.06,-126.19,0.06,0.56,0.69,60.33,5.78
23.00,1.00,268.44,-11.00,-50.12,-0.25,-0.81,-0.56,60.33,5.78
23.00,2.00,263.81,-21.50,12.75,-0.12,0.12,-1.31,60.33,5.78
23.00,0.00,253.31,12.12,-126.19,0.31,1.06,0.50,60.34,5.80
23.00,1.00,268.44,-11.00,-50.12,0.12,-1.00,-0.19,60.34,5.80
23.00,2.00,263.88,-21.50,12.75,0.25,-0.06,-1.62,60.34,5.80
23.00,0.00,253.31,12.12,-126.12,0.31,1.75,0.50,60.34,5.82
23.00,1.00,268.44,-10.94,-50.12,0.25,-1.25,0.31,60.34,5.82
23.00,2.00,263.88,-21.50,12.81,0.12,-0.38,-2.31,60.34,5.82
23.00,0.00,253.19,12.19,-126.12,0.06,2.50,1.12,60.32,5.84
23.00,1.00,268.50,-10.94,-50.12,0.50,-1.88,0.19,60.32,5.84
23.00,2.00,263.94,-21.50,12.81,0.81,-0.44,-2.69,60.32,5.84
23.00,0.00,253.12,12.19,-126.12,-0.25,1.31,1.38,60.25,5.86
23.00,1.00,268.50,-10.88,-50.12,0.88,-2.38,0.50,60.25,5.86
23.00,2.00,264.00,-21.50,12.81,2.12,-0.56,-3.06,60.25,5.86
23.00,0.00,253.12,12.19,-126.06,-0.88,-0.12,0.69,60.19,5.88
23.00,1.00,268.50,-10.88,-50.12,1.06,-2.19,0.69,60.19,5.88
23.00,2.00,264.06,-21.44,12.81,1.25,-1.12,-3.06,60.19,5.88
23.00,0.00,253.19,12.19,-126.06,-1.06,-0.75,1.19,60.15,5.90
23.00,1.00,268.50,-10.81,-50.12,0.75,-2.31,1.00,60.15,5.90
23.00,2.00,264.12,-21.44,12.81,0.31,-0.69,-3.56,60.15,5.90
23.00,0.00,253.19,12.19,-126.00,-0.25,-0.75,1.12,60.13,5.92
23.00,1.00,268.50,-10.81,-50.19,0.75,-2.69,0.88,60.13,5.92
23.00,2.00,264.25,-21.38,12.88,0.19,-0.12,-4.19,60.13,5.92
