Iteration,IMUNo,OrientationX (deg),OrientationY,OrientationZ,GyroX (20rad/sec),GyroY,GyroZ,Elbow_Pos (rad),Time (sec)
24.00,0.00,272.88,1.44,-93.81,-0.62,-0.19,-0.62,-0.04,1.02
24.00,1.00,280.94,-3.06,-53.31,-0.38,-0.25,0.00,-0.04,1.02
24.00,2.00,291.31,-18.50,17.44,0.06,-0.12,-0.38,-0.04,1.02
24.00,0.00,272.88,1.44,-93.81,-0.12,0.38,-0.19,-0.03,1.02
24.00,1.00,280.94,-3.06,-53.31,-0.25,-0.25,0.06,-0.03,1.04
24.00,2.00,291.31,-18.50,17.44,-0.44,-0.25,-0.19,-0.03,1.04
24.00,0.00,272.88,1.44,-93.81,0.12,0.31,0.19,-0.01,1.04
24.00,1.00,280.94,-3.06,-53.31,-0.06,0.00,0.00,-0.01,1.04
24.00,2.00,291.31,-18.50,17.44,-0.62,-0.31,0.00,-0.01,1.06
24.00,0.00,272.88,1.44,-93.81,0.06,0.38,0.31,0.00,1.06
24.00,1.00,280.94,-3.06,-53.31,-0.25,0.06,-0.12,0.00,1.06
24.00,2.00,291.31,-18.50,17.44,0.00,0.25,0.06,0.00,1.06
24.00,0.00,272.88,1.44,-93.81,-0.06,0.25,0.19,-0.01,1.08
24.00,1.00,280.94,-3.06,-53.31,-0.06,0.25,-0.06,-0.01,1.08
24.00,2.00,291.31,-18.50,17.44,0.19,0.06,-0.31,-0.01,1.08
24.00,0.00,272.88,1.44,-93.81,-0.38,-0.12,-0.12,-0.02,1.10
24.00,1.00,280.94,-3.06,-53.31,-0.06,0.12,0.00,-0.02,1.10
24.00,2.00,291.31,-18.50,17.44,0.00,0.06,-0.25,-0.02,1.10
24.00,0.00,272.88,1.44,-93.81,-0.31,-0.19,-0.25,-0.01,1.12
24.00,1.00,280.94,-3.06,-53.31,-0.31,0.00,0.00,-0.01,1.12
24.00,2.00,291.31,-18.50,17.44,-0.56,-0.25,0.25,-0.01,1.12
24.00,0.00,272.88,1.44,-93.81,-0.25,-0.25,-0.56,0.00,1.14
24.00,1.00,280.94,-3.06,-53.31,-0.31,0.06,0.12,0.00,1.14
24.00,2.00,291.31,-18.50,17.50,-0.69,-0.06,0.06,0.00,1.14
24.00,0.00,272.88,1.44,-93.81,-0.31,-0.31,-0.38,0.00,1.16
24.00,1.00,280.94,-3.06,-53.31,-0.44,0.19,0.00,0.00,1.16
24.00,2.00,291.31,-18.50,17.50,-0.38,0.06,0.19,0.00,1.16
24.00,0.00,272.88,1.44,-93.81,0.00,0.06,0.00,0.00,1.18
24.00,1.00,280.94,-3.06,-53.31,-0.12,0.44,0.06,0.00,1.18
24.00,2.00,291.31,-18.50,17.50,0.00,0.25,0.19,0.00,1.18
24.00,0.00,272.88,1.44,-93.81,-0.38,0.25,-0.06,-0.01,1.20
24.00,1.00,280.94,-3.06,-53.31,-0.31,0.56,0.06,-0.01,1.20
24.00,2.00,291.31,-18.50,17.50,-0.06,0.19,0.00,-0.01,1.20
24.00,0.00,272.88,1.44,-93.81,-0.38,0.25,-0.19,0.00,1.22
24.00,1.00,280.94,-3.06,-53.31,-0.19,0.19,0.19,0.00,1.22
24.00,2.00,291.31,-18.50,17.50,-0.69,-0.38,0.06,0.00,1.22
24.00,0.00,272.88,1.44,-93.81,-0.38,0.31,-0.31,0.01,1.24
24.00,1.00,280.94,-3.06,-53.31,-0.06,-0.06,0.19,0.01,1.24
24.00,2.00,291.31,-18.50,17.50,-0.56,-0.25,0.06,0.01,1.24
24.00,0.00,272.88,1.44,-93.81,-0.31,0.31,-0.12,-0.01,1.26
24.00,1.00,280.94,-3.06,-53.31,0.00,-0.06,-0.06,-0.01,1.26
24.00,2.00,291.31,-18.50,17.50,0.12,0.25,0.19,-0.01,1.26
24.00,0.00,272.88,1.44,-93.81,-0.06,0.19,0.06,-0.01,1.28
24.00,1.00,280.94,-3.06,-53.31,0.00,0.31,-0.06,-0.01,1.28
24.00,2.00,291.31,-18.50,17.50,0.06,0.12,0.25,-0.01,1.28
24.00,0.00,272.88,1.44,-93.81,0.06,-0.12,0.44,0.00,1.30
24.00,1.00,280.94,-3.12,-53.31,0.25,0.62,0.12,0.00,1.30
24.00,2.00,291.31,-18.50,17.50,-0.19,0.19,0.31,0.00,1.30
24.00,0.00,272.88,1.44,-93.81,0.00,-0.19,0.25,0.02,1.32
24.00,1.00,280.94,-3.12,-53.31,0.12,0.25,0.06,0.02,1.32
24.00,2.00,291.31,-18.50,17.50,-0.69,0.25,0.38,0.02,1.32
24.00,0.00,272.88,1.44,-93.81,0.19,0.12,0.06,0.04,1.34
24.00,1.00,280.94,-3.12,-53.31,0.12,0.31,0.19,0.04,1.34
24.00,2.00,291.31,-18.50,17.50,-0.62,-0.06,0.44,0.04,1.34
24.00,0.00,272.88,1.44,-93.81,-0.12,0.62,0.06,0.04,1.36
24.00,1.00,280.94,-3.12,-53.31,-0.06,0.12,0.19,0.04,1.36
24.00,2.00,291.31,-18.50,17.50,-0.31,-0.19,0.12,0.04,1.36
24.00,0.00,272.81,1.44,-93.81,-0.12,0.94,0.19,0.04,1.38
24.00,1.00,280.94,-3.12,-53.31,-0.19,0.12,0.06,0.04,1.38
24.00,2.00,291.31,-18.50,17.50,-0.12,-0.06,0.38,0.04,1.38
24.00,0.00,272.81,1.44,-93.81,-0.25,0.75,0.31,0.05,1.40
24.00,1.00,280.94,-3.12,-53.31,0.12,0.25,0.00,0.05,1.40
24.00,2.00,291.31,-18.50,17.50,-0.56,0.25,0.75,0.05,1.40
24.00,0.00,272.81,1.44,-93.81,0.19,0.44,0.38,0.09,1.42
24.00,1.00,280.94,-3.12,-53.31,0.00,0.44,0.06,0.09,1.42
24.00,2.00,291.31,-18.50,17.50,-0.94,0.00,0.50,0.09,1.42
24.00,0.00,272.81,1.44,-93.81,0.69,0.62,0.31,0.14,1.44
24.00,1.00,280.94,-3.12,-53.31,0.00,-0.06,0.25,0.14,1.44
24.00,2.00,291.31,-18.50,17.56,-1.12,-0.19,0.38,0.14,1.44
24.00,0.00,272.75,1.44,-93.88,0.88,1.25,0.31,0.18,1.46
24.00,1.00,280.94,-3.12,-53.31,-0.19,0.06,0.06,0.18,1.46
24.00,2.00,291.31,-18.50,17.56,-0.75,0.00,-0.25,0.18,1.46
24.00,0.00,272.75,1.44,-93.88,1.12,2.12,0.31,0.23,1.48
24.00,1.00,280.94,-3.12,-53.31,-0.19,-0.38,-0.19,0.23,1.48
24.00,2.00,291.31,-18.50,17.56,-0.44,0.25,0.06,0.23,1.48
24.00,0.00,272.69,1.44,-93.88,1.12,2.62,0.56,0.29,1.50
24.00,1.00,280.94,-3.12,-53.31,-0.25,-0.19,-0.50,0.29,1.50
24.00,2.00,291.31,-18.50,17.56,-1.00,0.25,0.12,0.29,1.50
24.00,0.00,272.62,1.50,-93.94,1.25,2.50,0.81,0.36,1.52
24.00,1.00,280.94,-3.12,-53.31,-0.19,0.19,-0.44,0.36,1.52
24.00,2.00,291.31,-18.50,17.56,-1.25,0.38,0.50,0.36,1.52
24.00,0.00,272.56,1.50,-93.94,1.25,2.50,0.75,0.43,1.54
24.00,1.00,280.94,-3.12,-53.31,-0.25,0.44,-0.31,0.43,1.54
24.00,2.00,291.25,-18.50,17.62,-1.25,0.19,0.38,0.43,1.54
24.00,0.00,272.50,1.50,-94.00,1.25,2.38,0.06,0.50,1.56
24.00,1.00,280.94,-3.12,-53.31,-0.19,0.62,-0.19,0.50,1.56
24.00,2.00,291.25,-18.50,17.62,-1.31,0.00,0.88,0.50,1.56
24.00,0.00,272.44,1.50,-94.00,1.56,2.62,-0.25,0.58,1.58
24.00,1.00,280.88,-3.12,-53.31,-0.31,0.75,-0.19,0.58,1.58
24.00,2.00,291.25,-18.56,17.62,-1.00,-0.38,1.12,0.58,1.58
24.00,0.00,272.38,1.50,-94.00,2.06,3.12,-0.44,0.66,1.60
24.00,1.00,280.88,-3.12,-53.31,-0.12,0.81,-0.12,0.66,1.60
24.00,2.00,291.19,-18.56,17.62,-0.69,-0.25,1.69,0.66,1.60
24.00,0.00,272.31,1.50,-94.06,2.56,3.69,-0.06,0.78,1.62
24.00,1.00,280.88,-3.12,-53.31,0.00,1.06,0.06,0.78,1.62
24.00,2.00,291.19,-18.56,17.69,-1.75,-0.44,2.25,0.78,1.62
24.00,0.00,272.25,1.50,-94.12,3.62,5.12,-0.25,0.95,1.64
24.00,1.00,280.88,-3.12,-53.31,-0.19,1.38,0.06,0.95,1.64
24.00,2.00,291.12,-18.56,17.69,-2.31,-0.56,2.44,0.95,1.64
24.00,0.00,272.12,1.56,-94.19,4.62,6.25,-0.25,1.13,1.66
24.00,1.00,280.88,-3.19,-53.31,-0.31,1.19,0.38,1.13,1.66
24.00,2.00,291.06,-18.56,17.69,-1.62,0.12,2.44,1.13,1.66
24.00,0.00,272.00,1.56,-94.31,5.69,7.19,-0.06,1.33,1.68
24.00,1.00,280.88,-3.19,-53.31,0.44,1.44,0.06,1.33,1.68
24.00,2.00,291.00,-18.62,17.75,-1.38,0.62,2.62,1.33,1.68
24.00,0.00,271.81,1.56,-94.44,6.12,7.50,0.00,1.53,1.70
24.00,1.00,280.81,-3.19,-53.31,-0.19,1.38,-0.06,1.53,1.70
24.00,2.00,290.94,-18.62,17.75,-0.88,0.25,2.56,1.53,1.70
24.00,0.00,271.62,1.56,-94.56,6.88,8.00,0.62,1.75,1.72
24.00,1.00,280.81,-3.19,-53.31,0.25,1.94,-0.12,1.75,1.72
24.00,2.00,290.88,-18.62,17.75,-0.81,0.50,2.19,1.75,1.72
24.00,0.00,271.50,1.62,-94.75,7.38,8.06,0.56,2.01,1.74
24.00,1.00,280.81,-3.25,-53.31,-0.25,2.38,0.12,2.01,1.74
24.00,2.00,290.81,-18.69,17.75,-1.75,0.69,2.69,2.01,1.74
24.00,0.00,271.31,1.62,-94.88,8.31,7.38,1.12,2.30,1.76
24.00,1.00,280.75,-3.25,-53.31,0.31,2.69,0.69,2.30,1.76
24.00,2.00,290.75,-18.69,17.75,-2.12,-0.31,3.81,2.30,1.76
24.00,0.00,271.12,1.69,-95.06,9.44,6.50,1.88,2.62,1.78
24.00,1.00,280.75,-3.31,-53.31,0.38,2.38,0.62,2.62,1.78
24.00,2.00,290.69,-18.69,17.81,-1.62,-0.44,4.06,2.62,1.78
24.00,0.00,270.94,1.69,-95.25,10.31,5.75,1.88,2.95,1.80
24.00,1.00,280.69,-3.31,-53.31,0.19,2.50,0.38,2.95,1.80
24.00,2.00,290.62,-18.75,17.81,-1.31,-0.31,4.62,2.95,1.80
24.00,0.00,270.81,1.75,-95.44,8.75,4.75,-0.19,3.25,1.82
24.00,1.00,280.69,-3.38,-53.31,0.31,3.00,0.38,3.25,1.82
24.00,2.00,290.50,-18.75,17.81,-1.62,0.00,4.81,3.25,1.82
24.00,0.00,270.69,1.75,-95.62,9.56,4.31,0.19,3.57,1.84
24.00,1.00,280.62,-3.38,-53.38,0.62,3.50,0.56,3.57,1.84
24.00,2.00,290.38,-18.81,17.81,-1.62,-0.56,4.88,3.57,1.84
24.00,0.00,270.62,1.81,-95.88,12.75,2.00,3.38,3.94,1.86
24.00,1.00,280.62,-3.44,-53.38,0.69,3.00,0.06,3.94,1.86
24.00,2.00,290.31,-18.81,17.75,-0.19,0.31,5.06,3.94,1.86
24.00,0.00,270.50,1.88,-96.12,12.88,1.62,3.25,4.31,1.88
24.00,1.00,280.56,-3.44,-53.38,0.69,3.12,-0.06,4.31,1.88
24.00,2.00,290.19,-18.88,17.75,-0.12,0.62,5.12,4.31,1.88
24.00,0.00,270.38,1.94,-96.38,12.50,1.88,2.81,4.68,1.90
24.00,1.00,280.56,-3.50,-53.38,0.56,3.25,-0.25,4.68,1.90
24.00,2.00,290.12,-18.88,17.69,-0.69,0.94,5.50,4.68,1.90
24.00,0.00,270.25,2.00,-96.69,14.19,1.38,4.12,5.13,1.92
24.00,1.00,280.50,-3.56,-53.38,0.56,3.38,-0.50,5.13,1.92
24.00,2.00,290.00,-18.94,17.69,-1.44,1.81,6.12,5.13,1.92
24.00,0.00,270.12,2.12,-97.00,16.06,0.00,6.12,5.65,1.94
24.00,1.00,280.50,-3.56,-53.38,0.88,3.06,0.06,5.65,1.94
24.00,2.00,289.88,-19.06,17.69,-2.38,1.50,6.75,5.65,1.94
24.00,0.00,269.94,2.25,-97.38,17.88,-1.06,7.31,6.20,1.96
24.00,1.00,280.44,-3.62,-53.44,0.94,3.25,0.06,6.20,1.96
24.00,2.00,289.75,-19.06,17.69,-1.25,0.44,5.56,6.20,1.96
24.00,0.00,269.81,2.44,-97.81,19.69,-1.56,8.44,6.77,1.98
24.00,1.00,280.44,-3.62,-53.44,0.81,3.06,-0.25,6.77,1.98
24.00,2.00,289.62,-19.12,17.69,-0.19,0.06,5.44,6.77,1.98
24.00,0.00,269.69,2.62,-98.25,21.44,-3.00,9.44,7.34,2.00
24.00,1.00,280.38,-3.69,-53.44,0.50,2.75,-0.50,7.34,2.00
24.00,2.00,289.50,-19.19,17.62,1.50,-0.25,5.38,7.34,2.00
24.00,0.00,269.50,2.81,-98.69,21.44,-3.19,9.69,7.89,2.02
24.00,1.00,280.38,-3.69,-53.44,0.44,2.44,-0.25,7.89,2.02
24.00,2.00,289.44,-19.19,17.56,2.06,-1.38,5.38,7.89,2.02
24.00,0.00,269.31,3.00,-99.12,21.06,-1.38,9.38,8.43,2.04
24.00,1.00,280.38,-3.75,-53.44,0.50,2.69,-0.12,8.43,2.04
24.00,2.00,289.31,-19.19,17.50,2.12,-2.19,5.88,8.43,2.04
24.00,0.00,269.12,3.19,-99.56,21.62,-0.25,9.94,9.02,2.06
24.00,1.00,280.31,-3.75,-53.50,0.75,2.88,0.38,9.02,2.06
24.00,2.00,289.19,-19.12,17.38,0.94,-3.19,7.75,9.02,2.06
24.00,0.00,268.88,3.38,-100.00,24.06,0.31,11.56,9.68,2.08
24.00,1.00,280.31,-3.81,-53.50,1.06,2.81,0.62,9.68,2.08
24.00,2.00,289.00,-19.12,17.31,0.75,-2.81,8.06,9.68,2.08
24.00,0.00,268.56,3.62,-100.50,24.44,1.56,11.44,10.35,2.10
24.00,1.00,280.25,-3.81,-53.50,0.75,2.62,0.75,10.35,2.10
24.00,2.00,288.81,-19.12,17.25,1.00,-3.12,8.88,10.35,2.10
24.00,0.00,268.25,3.88,-101.00,26.38,1.38,11.62,11.05,2.12
24.00,1.00,280.19,-3.88,-53.50,0.75,3.31,0.81,11.05,2.12
24.00,2.00,288.69,-19.12,17.12,1.94,-3.31,8.06,11.05,2.12
24.00,0.00,267.94,4.06,-101.56,28.06,0.75,12.31,11.82,2.14
24.00,1.00,280.12,-3.88,-53.56,0.88,3.38,1.00,11.82,2.14
24.00,2.00,288.50,-19.12,17.06,0.94,-3.06,7.81,11.82,2.14
24.00,0.00,267.69,4.31,-102.12,28.62,-0.56,11.44,12.65,2.16
24.00,1.00,280.06,-3.88,-53.56,0.31,3.00,1.81,12.65,2.16
24.00,2.00,288.38,-19.06,17.00,-0.25,-3.69,7.69,12.65,2.16
24.00,0.00,267.44,4.50,-102.69,28.56,0.25,11.06,13.46,2.18
24.00,1.00,280.06,-3.88,-53.56,-0.31,2.75,1.44,13.46,2.18
24.00,2.00,288.19,-19.06,16.94,0.12,-3.69,8.06,13.46,2.18
24.00,0.00,267.12,4.75,-103.25,27.69,1.75,10.44,14.22,2.20
24.00,1.00,280.00,-3.88,-53.56,-0.12,2.94,1.50,14.22,2.20
24.00,2.00,288.00,-19.06,16.88,0.88,-3.31,8.88,14.22,2.20
24.00,0.00,266.81,4.88,-103.75,26.81,2.75,8.81,14.96,2.22
24.00,1.00,279.94,-3.94,-53.56,-0.12,3.19,1.75,14.96,2.22
24.00,2.00,287.81,-19.00,16.81,1.00,-3.94,9.44,14.96,2.22
24.00,0.00,266.56,5.06,-104.31,29.12,0.50,10.75,15.79,2.24
24.00,1.00,279.88,-3.94,-53.56,-0.19,3.62,1.69,15.79,2.24
24.00,2.00,287.62,-19.00,16.69,-0.12,-4.00,9.88,15.79,2.24
24.00,0.00,266.31,5.31,-104.88,29.94,-1.12,11.75,16.66,2.26
24.00,1.00,279.75,-3.94,-53.56,-0.06,4.38,2.12,16.66,2.26
24.00,2.00,287.44,-19.00,16.62,-0.69,-3.81,10.38,16.66,2.26
24.00,0.00,266.06,5.50,-105.44,29.69,-1.81,10.50,17.52,2.28
24.00,1.00,279.69,-3.94,-53.56,-0.75,4.19,1.81,17.52,2.28
24.00,2.00,287.19,-19.00,16.56,-0.38,-3.56,10.00,17.52,2.28
24.00,0.00,265.88,5.62,-106.06,29.00,-2.38,9.12,18.35,2.30
24.00,1.00,279.62,-4.00,-53.56,-0.50,4.62,1.62,18.35,2.30
24.00,2.00,287.00,-19.00,16.50,0.06,-3.50,9.25,18.35,2.30
24.00,0.00,265.69,5.75,-106.56,28.31,-2.50,8.56,19.12,2.32
24.00,1.00,279.50,-4.00,-53.56,-0.56,4.31,1.81,19.12,2.32
24.00,2.00,286.81,-18.94,16.44,1.12,-3.12,9.56,19.12,2.32
24.00,0.00,265.56,5.94,-107.12,25.81,-2.38,8.00,19.85,2.34
24.00,1.00,279.50,-4.00,-53.56,-0.62,4.94,1.75,19.85,2.34
24.00,2.00,286.62,-18.94,16.38,0.31,-2.94,10.81,19.85,2.34
24.00,0.00,265.38,6.06,-107.56,25.56,-1.50,8.88,20.58,2.36
24.00,1.00,279.38,-4.06,-53.56,-0.62,5.50,2.00,20.58,2.36
24.00,2.00,286.38,-19.00,16.25,-0.12,-3.12,12.12,20.58,2.36
24.00,0.00,265.19,6.19,-108.06,24.56,-1.25,9.31,21.29,2.38
24.00,1.00,279.25,-4.12,-53.56,-1.06,6.00,2.31,21.29,2.38
24.00,2.00,286.12,-19.00,16.19,-0.38,-3.31,13.50,21.29,2.38
24.00,0.00,265.00,6.31,-108.50,23.12,-2.50,8.69,22.00,2.40
24.00,1.00,279.19,-4.12,-53.56,-1.12,6.44,2.06,22.00,2.40
24.00,2.00,285.81,-19.00,16.06,-1.75,-3.12,14.62,22.00,2.40
24.00,0.00,264.81,6.44,-108.94,21.00,-2.50,8.06,22.71,2.42
24.00,1.00,279.00,-4.19,-53.56,-0.88,7.44,2.62,22.71,2.42
24.00,2.00,285.50,-19.06,16.06,-3.62,-3.00,15.56,22.71,2.42
24.00,0.00,264.69,6.56,-109.31,20.81,-2.19,7.50,23.41,2.44
24.00,1.00,278.94,-4.19,-53.56,-0.94,7.25,2.75,23.41,2.44
24.00,2.00,285.19,-19.06,16.00,-3.94,-3.00,16.12,23.41,2.44
24.00,0.00,264.56,6.69,-109.75,20.12,-2.12,7.06,24.06,2.46
24.00,1.00,278.81,-4.25,-53.56,-1.00,7.44,2.81,24.06,2.46
24.00,2.00,284.88,-19.12,15.94,-2.62,-2.12,15.94,24.06,2.46
24.00,0.00,264.44,6.75,-110.12,19.44,-2.94,6.81,24.72,2.48
24.00,1.00,278.62,-4.31,-53.56,-0.81,7.81,2.81,24.72,2.48
24.00,2.00,284.50,-19.19,15.94,-3.81,-0.81,15.88,24.72,2.48
24.00,0.00,264.31,6.88,-110.44,18.38,-2.56,6.62,25.37,2.50
24.00,1.00,278.56,-4.38,-53.56,-0.56,7.62,3.12,25.37,2.50
24.00,2.00,284.19,-19.25,15.94,-4.44,-1.38,15.62,25.37,2.50
24.00,0.00,264.19,7.00,-110.81,18.62,-2.12,7.56,26.01,2.52
24.00,1.00,278.44,-4.38,-53.56,-0.94,8.31,2.31,26.01,2.52
24.00,2.00,283.88,-19.31,15.88,-3.69,-1.00,15.50,26.01,2.52
24.00,0.00,264.06,7.12,-111.19,17.38,-1.56,6.69,26.60,2.54
24.00,1.00,278.31,-4.44,-53.56,-1.19,8.44,2.25,26.60,2.54
24.00,2.00,283.56,-19.38,15.88,-3.12,-0.94,14.94,26.60,2.54
24.00,0.00,263.94,7.19,-111.50,17.69,-2.56,6.31,27.22,2.56
24.00,1.00,278.19,-4.50,-53.50,-1.12,8.62,2.62,27.22,2.56
24.00,2.00,283.25,-19.44,15.81,-4.12,-2.12,14.94,27.22,2.56
24.00,0.00,263.88,7.25,-111.88,18.88,-3.81,7.69,27.87,2.58
24.00,1.00,278.06,-4.56,-53.50,-1.25,7.56,3.06,27.87,2.58
24.00,2.00,282.94,-19.50,15.81,-3.88,-2.81,15.50,27.87,2.58
24.00,0.00,263.81,7.38,-112.25,18.75,-5.12,7.94,28.49,2.60
24.00,1.00,277.88,-4.56,-53.50,-1.06,7.94,3.00,28.49,2.60
24.00,2.00,282.62,-19.50,15.75,-3.12,-2.31,15.25,28.49,2.60
24.00,0.00,263.75,7.44,-112.62,17.00,-4.44,6.12,29.08,2.62
24.00,1.00,277.75,-4.62,-53.50,-0.75,7.38,2.88,29.08,2.62
24.00,2.00,282.31,-19.56,15.75,-3.50,-2.19,15.12,29.08,2.62
24.00,0.00,263.75,7.50,-112.94,16.69,-4.44,4.56,29.66,2.64
24.00,1.00,277.62,-4.69,-53.50,-0.94,7.50,3.12,29.66,2.64
24.00,2.00,282.00,-19.62,15.69,-3.81,-2.44,16.31,29.66,2.64
24.00,0.00,263.75,7.50,-113.31,18.00,-7.06,4.81,30.29,2.66
24.00,1.00,277.50,-4.75,-53.50,-0.88,7.69,2.69,30.29,2.66
24.00,2.00,281.69,-19.62,15.69,-4.06,-2.94,15.38,30.29,2.66
24.00,0.00,263.81,7.56,-113.69,19.44,-10.81,6.44,30.94,2.68
24.00,1.00,277.38,-4.75,-53.50,-1.00,7.25,2.56,30.94,2.68
24.00,2.00,281.38,-19.69,15.69,-3.56,-2.25,14.38,30.94,2.68
24.00,0.00,264.00,7.56,-114.12,19.50,-13.06,5.88,31.59,2.70
24.00,1.00,277.25,-4.81,-53.50,-1.06,7.19,2.50,31.59,2.70
24.00,2.00,281.12,-19.69,15.62,-3.12,-2.06,13.44,31.59,2.70
24.00,0.00,264.25,7.56,-114.56,22.62,-15.88,6.19,32.30,2.72
24.00,1.00,277.12,-4.88,-53.44,-1.50,6.81,2.00,32.30,2.72
24.00,2.00,280.81,-19.75,15.62,-2.25,-1.62,13.44,32.30,2.72
24.00,0.00,264.56,7.50,-115.12,24.75,-17.38,6.31,33.04,2.74
24.00,1.00,277.06,-4.94,-53.44,-0.50,7.56,2.00,33.04,2.74
24.00,2.00,280.56,-19.81,15.56,-1.06,-1.31,13.31,33.04,2.74
24.00,0.00,264.94,7.44,-115.62,24.81,-18.38,5.12,33.76,2.76
24.00,1.00,276.94,-4.94,-53.44,-1.44,6.75,2.38,33.76,2.76
24.00,2.00,280.31,-19.81,15.50,-0.69,-1.81,12.69,33.76,2.76
24.00,0.00,265.25,7.38,-116.19,24.12,-17.19,5.19,34.46,2.78
24.00,1.00,276.81,-5.00,-53.44,-1.94,6.19,1.88,34.46,2.78
24.00,2.00,280.06,-19.88,15.44,-0.19,-1.62,13.31,34.46,2.78
24.00,0.00,265.50,7.31,-116.69,24.06,-15.44,4.56,35.13,2.80
24.00,1.00,276.75,-5.06,-53.44,-0.94,6.75,1.88,35.13,2.80
24.00,2.00,279.81,-19.94,15.31,0.31,-1.69,13.06,35.13,2.80
24.00,0.00,265.75,7.31,-117.19,26.62,-14.12,6.75,35.88,2.82
24.00,1.00,276.62,-5.06,-53.38,-0.69,6.06,2.06,35.88,2.82
24.00,2.00,279.50,-19.94,15.25,0.56,-1.50,13.94,35.88,2.82
24.00,0.00,265.88,7.31,-117.75,27.19,-12.31,8.25,36.65,2.84
24.00,1.00,276.50,-5.12,-53.44,-0.50,6.75,1.94,36.65,2.84
24.00,2.00,279.25,-20.00,15.12,0.25,-2.38,14.38,36.65,2.84
24.00,0.00,265.94,7.38,-118.31,25.50,-9.38,7.81,37.38,2.86
24.00,1.00,276.38,-5.19,-53.44,-0.88,7.00,2.31,37.38,2.86
24.00,2.00,278.94,-20.00,15.00,-0.19,-3.38,14.94,37.38,2.86
24.00,0.00,265.88,7.44,-118.75,22.00,-6.00,5.25,38.01,2.88
24.00,1.00,276.31,-5.25,-53.44,0.12,7.50,2.31,38.01,2.88
24.00,2.00,278.62,-20.00,14.94,-0.31,-4.00,15.44,38.01,2.88
24.00,0.00,265.88,7.44,-119.19,21.56,-4.56,4.88,38.58,2.90
24.00,1.00,276.19,-5.25,-53.44,-1.31,5.81,1.94,38.58,2.90
24.00,2.00,278.31,-20.00,14.75,1.75,-3.00,15.50,38.58,2.90
24.00,0.00,265.75,7.50,-119.69,23.06,-4.19,7.25,39.21,2.92
24.00,1.00,276.06,-5.31,-53.44,-0.06,7.69,2.19,39.21,2.92
24.00,2.00,278.00,-20.06,14.62,1.06,-2.69,15.75,39.21,2.92
24.00,0.00,265.56,7.62,-120.12,22.38,-2.81,8.44,39.85,2.94
24.00,1.00,275.94,-5.38,-53.44,-0.12,7.75,2.50,39.85,2.94
24.00,2.00,277.69,-20.06,14.50,-0.19,-2.88,16.38,39.85,2.94
24.00,0.00,265.38,7.75,-120.50,18.56,0.50,5.06,40.40,2.96
24.00,1.00,275.81,-5.44,-53.44,0.06,9.12,2.81,40.40,2.96
24.00,2.00,277.38,-20.12,14.38,-0.69,-3.88,17.94,40.40,2.96
24.00,0.00,265.19,7.75,-120.81,16.75,2.19,1.94,40.93,2.98
24.00,1.00,275.69,-5.50,-53.44,-0.94,9.25,2.81,40.93,2.98
24.00,2.00,276.94,-20.12,14.25,-1.81,-3.94,19.06,40.93,2.98
24.00,0.00,265.00,7.81,-121.12,17.50,1.94,2.81,41.51,3.00
24.00,1.00,275.50,-5.56,-53.50,-0.06,10.50,2.88,41.51,3.00
24.00,2.00,276.56,-20.12,14.19,-2.94,-4.19,18.94,41.51,3.00
24.00,0.00,264.75,7.94,-121.50,19.81,1.44,5.88,42.16,3.02
24.00,1.00,275.38,-5.62,-53.50,-0.19,10.88,3.12,42.16,3.02
24.00,2.00,276.19,-20.12,14.12,-2.81,-4.44,19.19,42.16,3.02
24.00,0.00,264.44,8.06,-121.88,19.44,2.38,6.50,42.78,3.04
24.00,1.00,275.19,-5.69,-53.50,-0.56,10.75,3.50,42.78,3.04
24.00,2.00,275.81,-20.19,14.00,-2.50,-3.50,18.81,42.78,3.04
24.00,0.00,264.12,8.19,-122.19,15.38,4.75,3.19,43.31,3.06
24.00,1.00,275.00,-5.75,-53.50,-0.88,10.50,3.56,43.31,3.06
24.00,2.00,275.44,-20.19,13.94,-2.94,-3.56,18.62,43.31,3.06
24.00,0.00,263.81,8.25,-122.44,11.44,6.19,-0.44,43.70,3.08
24.00,1.00,274.81,-5.81,-53.50,-0.88,11.19,3.88,43.70,3.08
24.00,2.00,275.06,-20.19,13.88,-2.56,-3.44,17.75,43.70,3.08
24.00,0.00,263.62,8.25,-122.62,12.38,4.56,-1.44,44.16,3.10
24.00,1.00,274.62,-5.94,-53.50,-1.31,12.56,4.06,44.16,3.10
24.00,2.00,274.69,-20.19,13.81,-3.44,-4.69,16.88,44.16,3.10
24.00,0.00,263.50,8.31,-122.94,16.25,0.81,2.00,44.73,3.12
24.00,1.00,274.44,-6.00,-53.50,-1.12,11.88,4.44,44.73,3.12
24.00,2.00,274.38,-20.19,13.75,-3.88,-4.62,17.31,44.73,3.12
24.00,0.00,263.31,8.31,-123.25,15.38,0.38,2.31,45.26,3.14
24.00,1.00,274.25,-6.06,-53.50,-1.44,11.31,4.56,45.26,3.14
24.00,2.00,274.00,-20.19,13.69,-3.19,-5.06,17.62,45.26,3.14
24.00,0.00,263.19,8.38,-123.50,13.75,1.44,0.75,45.73,3.16
24.00,1.00,274.00,-6.12,-53.50,-1.31,11.88,4.12,45.73,3.16
24.00,2.00,273.62,-20.19,13.62,-2.69,-4.75,17.38,45.73,3.16
24.00,0.00,263.06,8.38,-123.69,11.62,3.31,-0.25,46.13,3.18
24.00,1.00,273.81,-6.19,-53.50,-1.25,11.38,4.25,46.13,3.18
24.00,2.00,273.31,-20.19,13.56,-2.38,-4.00,16.44,46.13,3.18
24.00,0.00,262.88,8.44,-123.81,10.25,4.69,-0.88,46.48,3.20
24.00,1.00,273.62,-6.25,-53.50,-1.56,10.94,4.38,46.48,3.20
24.00,2.00,272.94,-20.19,13.50,-2.19,-4.06,15.88,46.48,3.20
24.00,0.00,262.69,8.44,-123.94,10.88,4.31,1.44,46.85,3.22
24.00,1.00,273.44,-6.31,-53.50,-2.19,10.31,4.19,46.85,3.22
24.00,2.00,272.62,-20.19,13.44,-2.06,-3.94,15.06,46.85,3.22
24.00,0.00,262.44,8.50,-124.12,10.69,3.25,2.62,47.20,3.24
24.00,1.00,273.25,-6.38,-53.50,-1.44,10.94,4.06,47.20,3.24
24.00,2.00,272.31,-20.12,13.38,-1.50,-3.94,15.75,47.20,3.24
24.00,0.00,262.38,8.56,-124.25,11.62,1.50,3.62,47.56,3.26
24.00,1.00,273.06,-6.44,-53.50,-1.50,10.75,3.88,47.56,3.26
24.00,2.00,272.00,-20.19,13.25,-1.00,-2.44,15.88,47.56,3.26
24.00,0.00,262.12,8.62,-124.50,12.69,0.69,5.19,47.96,3.28
24.00,1.00,272.88,-6.50,-53.44,-1.56,11.38,3.81,47.96,3.28
24.00,2.00,271.69,-20.19,13.19,-1.38,-2.94,16.38,47.96,3.28
24.00,0.00,261.94,8.69,-124.69,10.25,1.31,4.44,48.30,3.30
24.00,1.00,272.69,-6.56,-53.44,-1.19,11.69,3.50,48.30,3.30
24.00,2.00,271.38,-20.19,13.06,-1.62,-3.12,15.94,48.30,3.30
24.00,0.00,261.75,8.81,-124.88,8.06,0.75,3.12,48.58,3.32
24.00,1.00,272.50,-6.62,-53.44,-1.75,10.69,3.75,48.58,3.32
24.00,2.00,271.06,-20.19,13.00,-1.88,-2.75,15.00,48.58,3.32
24.00,0.00,261.62,8.81,-125.06,8.06,-0.06,3.56,48.89,3.34
24.00,1.00,272.31,-6.69,-53.44,-2.25,11.06,3.69,48.89,3.34
24.00,2.00,270.75,-20.19,12.94,-2.69,-3.25,14.75,48.89,3.34
24.00,0.00,261.56,8.88,-125.19,8.50,-0.31,3.50,49.22,3.36
24.00,1.00,272.12,-6.75,-53.44,-1.44,10.88,3.56,49.22,3.36
24.00,2.00,270.44,-20.19,12.94,-3.06,-3.38,14.62,49.22,3.36
24.00,0.00,261.44,8.94,-125.31,9.69,-0.19,4.12,49.55,3.38
24.00,1.00,272.00,-6.81,-53.44,-1.94,9.94,3.75,49.55,3.38
24.00,2.00,270.19,-20.19,12.88,-1.81,-3.25,13.50,49.55,3.38
24.00,0.00,261.31,9.00,-125.50,9.88,-0.12,4.25,49.83,3.40
24.00,1.00,271.81,-6.88,-53.38,-1.62,7.88,3.25,49.83,3.40
24.00,2.00,269.94,-20.19,12.81,0.06,-2.31,12.44,49.83,3.40
24.00,0.00,261.19,9.06,-125.62,9.44,0.19,4.75,50.10,3.42
24.00,1.00,271.69,-6.94,-53.38,-1.38,9.06,3.06,50.10,3.42
24.00,2.00,269.69,-20.19,12.75,-0.25,-2.19,12.06,50.10,3.42
24.00,0.00,261.00,9.12,-125.81,7.81,1.25,4.25,50.31,3.44
24.00,1.00,271.56,-7.00,-53.38,-1.56,7.88,2.12,50.31,3.44
24.00,2.00,269.50,-20.19,12.69,0.56,-2.50,10.88,50.31,3.44
24.00,0.00,260.88,9.19,-125.94,7.62,1.12,3.56,50.50,3.46
24.00,1.00,271.44,-7.06,-53.38,-1.25,7.62,1.88,50.50,3.46
24.00,2.00,269.25,-20.19,12.62,0.75,-2.56,10.50,50.50,3.46
24.00,0.00,260.75,9.25,-126.06,5.81,0.88,2.44,50.64,3.48
24.00,1.00,271.31,-7.12,-53.38,-1.56,6.44,1.56,50.64,3.48
24.00,2.00,269.06,-20.19,12.50,1.06,-2.94,9.81,50.64,3.48
24.00,0.00,260.69,9.25,-126.19,5.94,0.81,2.19,50.76,3.50
24.00,1.00,271.25,-7.19,-53.38,-1.75,6.19,1.38,50.76,3.50
24.00,2.00,268.88,-20.19,12.44,1.56,-3.00,9.50,50.76,3.50
24.00,0.00,260.56,9.31,-126.25,4.56,1.81,3.38,50.87,3.52
24.00,1.00,271.12,-7.25,-53.31,-2.50,7.38,1.44,50.87,3.52
24.00,2.00,268.69,-20.12,12.38,1.00,-3.25,8.81,50.87,3.52
24.00,0.00,260.38,9.38,-126.31,1.94,4.31,1.94,50.91,3.54
24.00,1.00,271.00,-7.31,-53.31,-2.69,7.50,1.69,50.91,3.54
24.00,2.00,268.50,-20.12,12.25,0.50,-4.19,8.62,50.91,3.54
24.00,0.00,260.19,9.50,-126.31,1.62,4.69,1.38,50.94,3.56
24.00,1.00,270.94,-7.31,-53.25,-3.38,6.44,2.19,50.94,3.56
24.00,2.00,268.38,-20.06,12.19,0.44,-3.88,8.50,50.94,3.56
24.00,0.00,259.94,9.56,-126.31,3.44,4.50,2.88,51.05,3.58
24.00,1.00,270.81,-7.38,-53.19,-3.69,6.06,2.25,51.05,3.58
24.00,2.00,268.19,-20.00,12.12,-0.38,-3.88,9.12,51.05,3.58
24.00,0.00,259.56,9.69,-126.44,5.69,5.81,5.81,51.24,3.60
24.00,1.00,270.69,-7.38,-53.12,-3.50,5.81,2.44,51.24,3.60
24.00,2.00,268.00,-20.00,12.06,-1.06,-4.06,9.56,51.24,3.60
24.00,0.00,259.12,9.88,-126.50,6.19,6.81,7.69,51.47,3.62
24.00,1.00,270.56,-7.44,-53.12,-2.00,8.00,2.31,51.47,3.62
24.00,2.00,267.81,-19.94,12.06,-1.69,-3.88,9.69,51.47,3.62
24.00,0.00,258.62,10.12,-126.62,5.38,9.19,6.38,51.65,3.64
24.00,1.00,270.44,-7.50,-53.06,-2.31,6.75,2.12,51.65,3.64
24.00,2.00,267.62,-19.88,12.06,-1.06,-3.06,8.44,51.65,3.64
24.00,0.00,258.12,10.31,-126.69,4.88,10.94,4.75,51.80,3.66
24.00,1.00,270.38,-7.50,-53.06,-3.00,4.44,1.94,51.80,3.66
24.00,2.00,267.44,-19.88,12.00,-0.44,-2.44,8.25,51.80,3.66
24.00,0.00,257.75,10.44,-126.69,4.69,9.56,4.56,51.96,3.68
24.00,1.00,270.31,-7.56,-53.00,-2.00,5.00,1.56,51.96,3.68
24.00,2.00,267.31,-19.88,12.00,-0.69,-2.06,7.75,51.96,3.68
24.00,0.00,257.38,10.56,-126.75,4.75,8.31,4.81,52.13,3.70
24.00,1.00,270.19,-7.56,-53.00,-2.56,4.31,1.12,52.13,3.70
24.00,2.00,267.12,-19.81,11.94,-1.25,-1.81,8.44,52.13,3.70
24.00,0.00,257.06,10.69,-126.81,4.56,6.44,4.50,52.31,3.72
24.00,1.00,270.12,-7.62,-52.94,-1.88,5.00,0.94,52.31,3.72
24.00,2.00,266.94,-19.81,11.94,-1.75,-2.50,8.38,52.31,3.72
24.00,0.00,256.88,10.75,-126.88,3.62,4.12,3.38,52.44,3.74
24.00,1.00,270.06,-7.62,-52.94,-3.06,3.50,1.00,52.44,3.74
24.00,2.00,266.81,-19.81,11.94,-1.12,-1.62,7.25,52.44,3.74
24.00,0.00,256.81,10.81,-126.94,2.88,0.88,2.94,52.55,3.76
24.00,1.00,270.00,-7.69,-52.88,-1.88,5.50,0.62,52.55,3.76
24.00,2.00,266.62,-19.81,11.88,-0.75,-0.69,7.06,52.55,3.76
24.00,0.00,256.75,10.81,-126.94,2.06,-0.81,2.81,52.63,3.78
24.00,1.00,269.94,-7.75,-52.81,-2.38,4.94,0.44,52.63,3.78
24.00,2.00,266.50,-19.81,11.88,-1.06,-0.81,7.19,52.63,3.78
24.00,0.00,256.69,10.88,-127.00,2.19,-0.06,2.75,52.75,3.80
24.00,1.00,269.94,-7.81,-52.81,-3.00,3.88,0.81,52.75,3.80
24.00,2.00,266.38,-19.81,11.88,-1.81,-0.44,7.25,52.75,3.80
24.00,0.00,256.56,10.94,-127.06,2.69,0.88,2.44,52.89,3.82
24.00,1.00,269.88,-7.88,-52.75,-1.44,5.44,0.50,52.89,3.82
24.00,2.00,266.19,-19.81,11.88,-2.38,-1.94,6.81,52.89,3.82
24.00,0.00,256.44,11.00,-127.12,3.06,2.81,2.81,53.04,3.84
24.00,1.00,269.81,-7.94,-52.75,-2.00,4.62,0.38,53.04,3.84
24.00,2.00,266.06,-19.81,11.88,-2.06,-1.19,6.50,53.04,3.84
24.00,0.00,256.12,11.12,-127.12,3.12,5.62,4.00,53.19,3.86
24.00,1.00,269.75,-7.94,-52.69,-2.56,4.31,0.12,53.19,3.86
24.00,2.00,265.94,-19.81,11.88,-2.00,-0.81,6.06,53.19,3.86
24.00,0.00,255.69,11.25,-127.19,3.12,8.75,4.62,53.33,3.88
24.00,1.00,269.69,-8.00,-52.69,-1.88,4.56,-0.19,53.33,3.88
24.00,2.00,265.81,-19.81,11.88,-2.06,-1.62,6.56,53.33,3.88
24.00,0.00,255.19,11.50,-127.19,3.31,11.19,4.75,53.47,3.90
24.00,1.00,269.69,-8.06,-52.62,-2.25,3.62,0.25,53.47,3.90
24.00,2.00,265.69,-19.81,11.88,-1.50,-1.38,6.25,53.47,3.90
24.00,0.00,254.69,11.69,-127.19,2.94,11.94,4.81,53.59,3.92
24.00,1.00,269.62,-8.12,-52.62,-1.25,4.69,0.62,53.59,3.92
24.00,2.00,265.56,-19.81,11.81,-1.31,-1.50,5.69,53.59,3.92
24.00,0.00,254.31,11.81,-127.12,2.19,11.38,4.56,53.70,3.94
24.00,1.00,269.56,-8.19,-52.56,-2.50,4.25,0.56,53.70,3.94
24.00,2.00,265.44,-19.81,11.81,-1.62,-0.69,5.62,53.70,3.94
24.00,0.00,254.00,11.88,-127.06,1.06,9.19,3.69,53.79,3.96
24.00,1.00,269.50,-8.19,-52.56,-2.38,4.38,0.19,53.79,3.96
24.00,2.00,265.31,-19.81,11.88,-2.19,-1.25,4.81,53.79,3.96
24.00,0.00,253.81,11.94,-127.00,1.19,6.62,2.31,53.86,3.98
24.00,1.00,269.50,-8.25,-52.50,-2.31,3.69,0.12,53.86,3.98
24.00,2.00,265.25,-19.81,11.88,-1.00,-0.75,4.56,53.86,3.98
24.00,0.00,253.75,12.00,-127.00,0.88,4.06,0.38,53.91,4.00
24.00,1.00,269.44,-8.31,-52.44,-2.94,3.81,0.25,53.91,4.00
24.00,2.00,265.19,-19.81,11.88,-1.06,0.38,4.62,53.91,4.00
24.00,0.00,253.81,11.94,-127.00,0.56,1.12,-0.88,53.98,4.02
24.00,1.00,269.38,-8.38,-52.44,-2.00,5.12,-0.44,53.98,4.02
24.00,2.00,265.06,-19.81,11.88,-1.69,0.56,4.19,53.98,4.02
24.00,0.00,253.88,11.88,-126.94,-0.38,0.25,-1.50,54.03,4.04
24.00,1.00,269.31,-8.44,-52.38,-3.38,4.31,-0.31,54.03,4.04
24.00,2.00,265.00,-19.88,11.88,-2.38,1.06,4.31,54.03,4.04
24.00,0.00,253.94,11.88,-126.94,-1.12,0.69,-1.81,54.08,4.06
24.00,1.00,269.31,-8.50,-52.31,-3.06,5.25,-0.94,54.08,4.06
24.00,2.00,264.88,-19.88,11.88,-2.75,1.31,3.94,54.08,4.06
24.00,0.00,253.94,11.81,-126.88,-1.12,1.56,-1.81,54.13,4.08
24.00,1.00,269.25,-8.56,-52.31,-3.19,4.62,-1.00,54.13,4.08
24.00,2.00,264.81,-19.94,11.94,-3.00,1.62,3.69,54.13,4.08
24.00,0.00,253.94,11.81,-126.81,-0.94,2.50,-1.75,54.20,4.10
24.00,1.00,269.25,-8.62,-52.25,-3.38,4.25,-0.94,54.20,4.10
24.00,2.00,264.75,-20.00,12.00,-3.38,2.31,3.69,54.20,4.10
24.00,0.00,253.88,11.81,-126.81,-0.88,3.12,-1.69,54.28,4.12
24.00,1.00,269.19,-8.69,-52.19,-2.56,4.81,-0.94,54.28,4.12
24.00,2.00,264.69,-20.00,12.06,-3.69,1.81,3.56,54.28,4.12
24.00,0.00,253.81,11.81,-126.75,-0.62,3.94,-1.56,54.36,4.14
24.00,1.00,269.19,-8.75,-52.12,-3.06,4.50,-1.19,54.36,4.14
24.00,2.00,264.62,-20.06,12.06,-3.31,2.56,3.38,54.36,4.14
24.00,0.00,253.75,11.81,-126.69,-0.69,3.44,-2.00,54.42,4.16
24.00,1.00,269.19,-8.81,-52.12,-2.44,5.19,-1.44,54.42,4.16
24.00,2.00,264.50,-20.12,12.12,-2.81,2.56,3.62,54.42,4.16
24.00,0.00,253.69,11.81,-126.69,-0.75,2.69,-2.38,54.48,4.18
24.00,1.00,269.12,-8.94,-52.06,-2.25,5.19,-1.56,54.48,4.18
24.00,2.00,264.44,-20.19,12.19,-2.94,2.00,3.88,54.48,4.18
24.00,0.00,253.75,11.75,-126.62,-0.56,0.44,-2.62,54.54,4.20
24.00,1.00,269.12,-9.00,-52.00,-2.94,3.62,-0.81,54.54,4.20
24.00,2.00,264.38,-20.25,12.19,-2.44,2.44,3.62,54.54,4.20
24.00,0.00,253.88,11.69,-126.62,-0.06,-1.38,-2.69,54.59,4.22
24.00,1.00,269.06,-9.06,-51.94,-2.88,3.81,-0.88,54.59,4.22
24.00,2.00,264.31,-20.31,12.25,-2.12,2.12,3.31,54.59,4.22
24.00,0.00,254.06,11.62,-126.62,0.06,-2.62,-2.50,54.66,4.24
24.00,1.00,269.06,-9.12,-51.94,-2.44,3.38,-1.06,54.66,4.24
24.00,2.00,264.25,-20.38,12.25,-2.19,1.81,3.38,54.66,4.24
24.00,0.00,254.25,11.56,-126.62,0.38,-3.75,-2.56,54.71,4.26
24.00,1.00,269.06,-9.12,-51.88,-1.94,3.94,-0.88,54.71,4.26
24.00,2.00,264.19,-20.44,12.31,-1.56,2.06,2.62,54.71,4.26
24.00,0.00,254.38,11.44,-126.62,0.31,-3.00,-2.94,54.78,4.28
24.00,1.00,269.06,-9.19,-51.88,-2.69,2.94,-1.00,54.78,4.28
24.00,2.00,264.12,-20.44,12.31,-1.88,1.88,2.56,54.78,4.28
24.00,0.00,254.50,11.38,-126.62,-0.25,-1.56,-2.69,54.81,4.30
24.00,1.00,269.06,-9.25,-51.81,-2.69,3.38,-1.38,54.81,4.30
24.00,2.00,264.06,-20.50,12.38,-1.56,2.12,2.25,54.81,4.30
24.00,0.00,254.56,11.38,-126.62,-0.25,-0.12,-2.12,54.85,4.32
24.00,1.00,269.00,-9.31,-51.75,-3.06,3.25,-1.69,54.85,4.32
24.00,2.00,264.00,-20.56,12.38,-1.69,2.31,2.38,54.85,4.32
24.00,0.00,254.62,11.31,-126.56,-0.38,0.75,-1.62,54.91,4.34
24.00,1.00,269.00,-9.38,-51.75,-2.31,2.94,-1.31,54.91,4.34
24.00,2.00,264.00,-20.62,12.38,-2.25,1.50,2.69,54.91,4.34
24.00,0.00,254.62,11.31,-126.56,-0.56,1.62,-1.50,54.96,4.36
24.00,1.00,269.00,-9.44,-51.69,-1.81,3.50,-1.19,54.96,4.36
24.00,2.00,263.94,-20.62,12.44,-2.50,1.31,2.38,54.96,4.36
24.00,0.00,254.56,11.31,-126.50,-1.88,2.31,-1.44,55.00,4.38
24.00,1.00,269.00,-9.50,-51.62,-3.12,1.94,-0.31,55.00,4.38
24.00,2.00,263.88,-20.69,12.50,-3.12,1.88,1.81,55.00,4.38
24.00,0.00,254.56,11.31,-126.44,-2.75,2.19,-1.75,55.01,4.40
24.00,1.00,269.00,-9.50,-51.56,-3.06,2.62,-1.19,55.01,4.40
24.00,2.00,263.81,-20.75,12.56,-3.06,2.50,1.62,55.01,4.40
24.00,0.00,254.56,11.31,-126.38,-2.38,1.62,-2.00,55.01,4.42
24.00,1.00,268.94,-9.56,-51.56,-2.69,2.69,-2.06,55.01,4.42
24.00,2.00,263.81,-20.75,12.62,-2.56,2.44,2.12,55.01,4.42
24.00,0.00,254.56,11.25,-126.31,-1.38,0.81,-2.38,55.02,4.44
24.00,1.00,269.00,-9.62,-51.50,-1.56,3.06,-2.06,55.02,4.44
24.00,2.00,263.75,-20.81,12.62,-1.56,2.38,1.62,55.02,4.44
24.00,0.00,254.62,11.25,-126.25,-1.31,0.94,-2.62,55.03,4.46
24.00,1.00,269.00,-9.69,-51.44,-2.06,2.19,-1.94,55.03,4.46
24.00,2.00,263.75,-20.88,12.69,-1.75,2.56,1.44,55.03,4.46
24.00,0.00,254.62,11.19,-126.19,-2.25,1.81,-2.50,55.05,4.48
24.00,1.00,269.00,-9.75,-51.44,-2.06,3.06,-1.44,55.05,4.48
24.00,2.00,263.69,-20.94,12.69,-2.94,2.50,2.00,55.05,4.48
24.00,0.00,254.62,11.19,-126.12,-2.19,2.56,-2.62,55.08,4.50
24.00,1.00,269.00,-9.81,-51.38,-2.25,3.00,-1.56,55.08,4.50
24.00,2.00,263.69,-20.94,12.75,-3.19,1.94,2.12,55.08,4.50
24.00,0.00,254.62,11.19,-126.12,-1.56,1.69,-2.62,55.10,4.52
24.00,1.00,269.00,-9.88,-51.31,-1.88,3.06,-1.81,55.10,4.52
24.00,2.00,263.62,-21.00,12.81,-2.38,2.94,2.19,55.10,4.52
24.00,0.00,254.75,11.12,-126.06,-0.94,-1.69,-2.94,55.15,4.54
24.00,1.00,269.00,-9.94,-51.31,-3.00,2.94,-1.88,55.15,4.54
24.00,2.00,263.56,-21.06,12.81,-2.75,3.44,1.62,55.15,4.54
24.00,0.00,254.88,11.06,-126.06,-0.62,-2.88,-3.06,55.21,4.56
24.00,1.00,269.00,-10.00,-51.25,-2.69,3.44,-1.81,55.21,4.56
24.00,2.00,263.56,-21.12,12.88,-2.56,3.06,1.56,55.21,4.56
24.00,0.00,255.12,10.94,-126.06,-0.44,-3.44,-3.94,55.25,4.58
24.00,1.00,269.00,-10.06,-51.19,-1.56,3.94,-1.94,55.25,4.58
24.00,2.00,263.50,-21.19,12.94,-2.00,3.31,1.69,55.25,4.58
24.00,0.00,255.31,10.81,-126.06,-1.19,-3.94,-3.94,55.29,4.60
24.00,1.00,269.00,-10.12,-51.19,-2.19,3.38,-1.88,55.29,4.60
24.00,2.00,263.50,-21.31,13.00,-2.56,3.25,1.88,55.29,4.60
24.00,0.00,255.50,10.75,-126.00,-1.56,-2.88,-3.00,55.33,4.62
24.00,1.00,269.00,-10.19,-51.12,-2.69,3.19,-1.81,55.33,4.62
24.00,2.00,263.44,-21.38,13.00,-2.81,2.94,1.75,55.33,4.62
24.00,0.00,255.62,10.69,-126.00,-1.38,-1.00,-2.25,55.35,4.64
24.00,1.00,269.00,-10.25,-51.06,-2.56,3.50,-2.25,55.35,4.64
24.00,2.00,263.44,-21.38,13.06,-2.19,2.94,1.38,55.35,4.64
24.00,0.00,255.62,10.69,-126.00,-1.12,0.06,-1.81,55.39,4.66
24.00,1.00,269.00,-10.38,-51.06,-2.75,3.44,-2.31,55.39,4.66
24.00,2.00,263.38,-21.44,13.12,-2.44,2.38,1.12,55.39,4.66
24.00,0.00,255.62,10.69,-125.94,-1.38,1.50,-1.38,55.41,4.68
24.00,1.00,269.00,-10.44,-51.00,-2.19,3.56,-2.19,55.41,4.68
24.00,2.00,263.38,-21.50,13.12,-2.06,2.50,1.25,55.41,4.68
24.00,0.00,255.56,10.69,-125.88,-1.56,3.06,-0.56,55.42,4.70
24.00,1.00,269.00,-10.50,-50.94,-3.25,2.19,-2.19,55.42,4.70
24.00,2.00,263.31,-21.56,13.19,-1.81,2.56,0.81,55.42,4.70
24.00,0.00,255.50,10.69,-125.88,-1.50,2.75,-0.81,55.44,4.72
24.00,1.00,269.06,-10.56,-50.88,-2.50,2.56,-2.06,55.44,4.72
24.00,2.00,263.31,-21.62,13.25,-2.44,2.69,1.00,55.44,4.72
24.00,0.00,255.44,10.75,-125.81,-0.75,2.06,-0.62,55.50,4.74
24.00,1.00,269.06,-10.62,-50.81,-2.88,2.50,-2.31,55.50,4.74
24.00,2.00,263.31,-21.62,13.31,-2.62,2.94,0.81,55.50,4.74
24.00,0.00,255.38,10.75,-125.81,0.44,1.25,-1.00,55.56,4.76
24.00,1.00,269.06,-10.69,-50.81,-2.12,3.50,-2.69,55.56,4.76
24.00,2.00,263.31,-21.69,13.31,-1.88,2.69,0.69,55.56,4.76
24.00,0.00,255.38,10.75,-125.88,0.75,0.62,-1.38,55.63,4.78
24.00,1.00,269.06,-10.75,-50.75,-3.06,2.25,-2.31,55.63,4.78
24.00,2.00,263.31,-21.75,13.38,-1.62,2.62,0.06,55.63,4.78
24.00,0.00,255.38,10.69,-125.88,0.81,0.62,-1.19,55.71,4.80
24.00,1.00,269.12,-10.81,-50.69,-2.50,2.56,-2.56,55.71,4.80
24.00,2.00,263.31,-21.81,13.38,-1.88,2.81,-0.06,55.71,4.80
24.00,0.00,255.38,10.69,-125.88,1.06,-0.25,-0.69,55.81,4.82
24.00,1.00,269.12,-10.94,-50.62,-3.12,2.38,-2.62,55.81,4.82
24.00,2.00,263.31,-21.88,13.44,-2.50,1.75,0.12,55.81,4.82
24.00,0.00,255.38,10.69,-125.94,1.69,-0.62,-0.88,55.93,4.84
24.00,1.00,269.12,-10.94,-50.56,-3.44,1.88,-2.31,55.93,4.84
24.00,2.00,263.25,-21.88,13.50,-2.50,1.88,-0.06,55.93,4.84
24.00,0.00,255.44,10.62,-125.94,1.31,-1.31,-1.19,56.04,4.86
24.00,1.00,269.19,-11.00,-50.50,-2.81,2.06,-2.31,56.04,4.86
24.00,2.00,263.25,-21.94,13.56,-2.50,2.25,-0.25,56.04,4.86
24.00,0.00,255.56,10.56,-125.94,1.12,-2.94,-1.00,56.11,4.88
24.00,1.00,269.19,-11.06,-50.44,-2.88,1.69,-2.69,56.11,4.88
24.00,2.00,263.25,-22.00,13.62,-1.62,2.44,-0.38,56.11,4.88
24.00,0.00,255.75,10.50,-126.00,0.94,-3.69,-1.50,56.15,4.90
24.00,1.00,269.25,-11.12,-50.38,-2.94,2.00,-2.81,56.15,4.90
24.00,2.00,263.25,-22.00,13.62,-0.44,1.88,0.06,56.15,4.90
24.00,0.00,255.81,10.50,-126.00,0.62,-4.31,-2.00,56.18,4.92
24.00,1.00,269.25,-11.19,-50.38,-2.62,1.88,-2.56,56.18,4.92
24.00,2.00,263.25,-22.06,13.62,-0.19,1.75,-0.12,56.18,4.92
24.00,0.00,256.00,10.38,-126.00,-0.62,-3.19,-1.88,56.19,4.94
24.00,1.00,269.25,-11.31,-50.31,-2.12,2.56,-2.25,56.19,4.94
24.00,2.00,263.31,-22.06,13.62,-1.12,2.25,-0.38,56.19,4.94
24.00,0.00,256.12,10.38,-126.00,-0.81,-1.88,-1.25,56.22,4.96
24.00,1.00,269.31,-11.38,-50.25,-2.56,2.06,-2.12,56.22,4.96
24.00,2.00,263.31,-22.12,13.69,-1.88,2.25,0.38,56.22,4.96
24.00,0.00,256.19,10.31,-126.00,-0.19,0.06,-1.19,56.28,4.98
24.00,1.00,269.31,-11.38,-50.19,-3.25,2.00,-2.50,56.28,4.98
24.00,2.00,263.25,-22.19,13.69,-2.12,2.69,0.19,56.28,4.98
24.00,0.00,256.25,10.31,-126.00,-0.25,1.00,-0.44,56.34,5.00
24.00,1.00,269.31,-11.50,-50.12,-2.88,2.50,-2.62,56.34,5.00
24.00,2.00,263.25,-22.25,13.75,-2.56,2.69,0.25,56.34,5.00
24.00,0.00,256.19,10.31,-126.00,0.00,1.50,0.00,56.40,5.02
24.00,1.00,269.38,-11.56,-50.06,-3.62,2.06,-2.50,56.40,5.02
24.00,2.00,263.25,-22.31,13.81,-2.06,3.00,0.12,56.40,5.02
24.00,0.00,256.12,10.31,-126.00,-0.56,0.31,0.12,56.42,5.04
24.00,1.00,269.38,-11.62,-50.00,-3.06,2.94,-2.88,56.42,5.04
24.00,2.00,263.25,-22.38,13.88,-1.31,3.25,-0.19,56.42,5.04
24.00,0.00,256.12,10.31,-126.00,-0.44,0.06,-0.44,56.43,5.06
24.00,1.00,269.38,-11.69,-49.94,-3.06,2.69,-3.00,56.43,5.06
24.00,2.00,263.25,-22.44,13.88,-0.81,3.12,-0.25,56.43,5.06
24.00,0.00,256.12,10.31,-126.00,-0.62,-0.38,-0.75,56.46,5.08
24.00,1.00,269.44,-11.75,-49.88,-2.75,3.06,-2.94,56.46,5.08
24.00,2.00,263.31,-22.44,13.88,-1.44,2.69,0.06,56.46,5.08
24.00,0.00,256.19,10.31,-126.00,-0.56,-0.25,-1.06,56.52,5.10
24.00,1.00,269.44,-11.81,-49.81,-3.38,2.62,-2.12,56.52,5.10
24.00,2.00,263.25,-22.50,13.94,-2.62,1.94,0.56,56.52,5.10
24.00,0.00,256.19,10.31,-125.94,-0.06,0.62,-0.81,56.59,5.12
24.00,1.00,269.44,-11.88,-49.75,-3.25,2.69,-2.00,56.59,5.12
24.00,2.00,263.25,-22.56,14.00,-2.75,2.38,0.44,56.59,5.12
24.00,0.00,256.19,10.31,-125.94,0.19,1.94,-0.25,56.67,5.14
24.00,1.00,269.44,-12.00,-49.69,-3.00,3.06,-2.31,56.67,5.14
24.00,2.00,263.25,-22.62,14.06,-2.69,2.38,0.50,56.67,5.14
24.00,0.00,256.12,10.31,-125.94,0.25,2.06,-0.38,56.76,5.16
24.00,1.00,269.50,-12.06,-49.62,-3.56,2.06,-2.25,56.76,5.16
24.00,2.00,263.25,-22.62,14.12,-2.88,2.38,0.88,56.76,5.16
24.00,0.00,256.00,10.31,-125.94,-0.81,2.56,-0.56,56.83,5.18
24.00,1.00,269.50,-12.06,-49.56,-3.00,2.56,-2.19,56.83,5.18
24.00,2.00,263.25,-22.69,14.19,-3.12,3.06,0.50,56.83,5.18
24.00,0.00,256.00,10.38,-125.94,-0.69,1.19,-0.44,56.89,5.20
24.00,1.00,269.50,-12.12,-49.50,-3.69,2.00,-2.31,56.89,5.20
24.00,2.00,263.25,-22.75,14.25,-2.94,3.19,0.25,56.89,5.20
24.00,0.00,256.00,10.38,-125.88,-0.19,-0.94,-0.88,56.96,5.22
24.00,1.00,269.50,-12.25,-49.44,-3.25,2.56,-2.69,56.96,5.22
24.00,2.00,263.25,-22.81,14.31,-2.50,3.25,0.06,56.96,5.22
24.00,0.00,256.06,10.31,-125.94,0.31,-2.31,-1.06,57.03,5.24
24.00,1.00,269.56,-12.31,-49.38,-3.12,2.50,-2.69,57.03,5.24
24.00,2.00,263.19,-22.88,14.38,-2.31,2.69,-0.31,57.03,5.26
24.00,0.00,256.19,10.25,-125.94,0.06,-3.12,-1.56,57.10,5.26
24.00,1.00,269.56,-12.38,-49.31,-3.69,1.56,-2.31,57.10,5.26
24.00,2.00,263.19,-22.94,14.38,-2.31,2.56,-0.31,57.10,5.26
24.00,0.00,256.38,10.19,-125.88,-0.88,-2.12,-1.56,57.17,5.28
24.00,1.00,269.62,-12.44,-49.25,-3.88,1.56,-2.06,57.17,5.28
24.00,2.00,263.19,-22.94,14.44,-3.31,1.81,0.06,57.17,5.28
24.00,0.00,256.38,10.19,-125.88,-1.44,0.06,-0.94,57.22,5.30
24.00,1.00,269.62,-12.50,-49.19,-3.50,1.44,-2.19,57.22,5.30
24.00,2.00,263.19,-23.00,14.50,-3.06,1.69,0.25,57.22,5.32
24.00,0.00,256.38,10.19,-125.88,-1.38,1.81,0.00,57.26,5.32
24.00,1.00,269.62,-12.56,-49.12,-2.62,2.31,-2.12,57.26,5.32
24.00,2.00,263.19,-23.06,14.56,-2.81,2.12,0.06,57.26,5.32
24.00,0.00,256.25,10.19,-125.81,-1.38,2.81,0.81,57.31,5.34
24.00,1.00,269.69,-12.62,-49.06,-3.62,1.88,-1.81,57.31,5.34
24.00,2.00,263.19,-23.06,14.62,-3.00,2.06,0.38,57.31,5.36
24.00,0.00,256.12,10.25,-125.81,-1.19,3.25,1.38,57.34,5.36
24.00,1.00,269.69,-12.69,-49.00,-2.44,2.81,-1.94,57.34,5.36
24.00,2.00,263.19,-23.12,14.69,-2.44,2.12,0.12,57.34,5.36
24.00,0.00,256.00,10.31,-125.75,-0.31,2.38,1.12,57.39,5.38
24.00,1.00,269.69,-12.75,-48.94,-3.00,2.31,-1.94,57.39,5.38
24.00,2.00,263.19,-23.12,14.75,-2.06,2.12,0.00,57.39,5.38
24.00,0.00,256.00,10.31,-125.75,0.25,1.06,0.62,57.45,5.40
24.00,1.00,269.69,-12.81,-48.88,-2.69,1.88,-1.56,57.45,5.40
24.00,2.00,263.19,-23.19,14.81,-1.81,2.00,0.50,57.45,5.42
24.00,0.00,256.00,10.31,-125.75,0.12,-0.75,0.06,57.53,5.42
24.00,1.00,269.69,-12.88,-48.81,-2.56,2.31,-1.31,57.53,5.42
24.00,2.00,263.19,-23.25,14.81,-2.69,1.25,0.75,57.53,5.42
24.00,0.00,256.00,10.31,-125.75,0.38,-0.38,0.12,57.60,5.44
24.00,1.00,269.69,-12.94,-48.75,-2.69,1.88,-1.12,57.60,5.44
24.00,2.00,263.12,-23.25,14.88,-2.00,0.56,1.00,57.60,5.46
24.00,0.00,256.00,10.31,-125.81,0.62,1.06,-0.19,57.67,5.46
24.00,1.00,269.69,-13.00,-48.69,-2.12,1.38,-0.81,57.67,5.46
24.00,2.00,263.12,-23.25,14.94,-1.94,0.38,0.81,57.67,5.46
24.00,0.00,255.88,10.38,-125.81,0.94,2.62,-0.25,57.77,5.48
24.00,1.00,269.69,-13.00,-48.69,-2.25,1.31,-0.19,57.77,5.48
24.00,2.00,263.06,-23.25,14.94,-2.56,-0.44,1.44,57.77,5.48
24.00,0.00,255.75,10.38,-125.81,0.62,3.50,0.31,57.84,5.50
24.00,1.00,269.69,-13.06,-48.62,-2.19,1.38,-0.12,57.84,5.50
24.00,2.00,263.06,-23.25,15.00,-1.81,0.38,1.25,57.84,5.52
24.00,0.00,255.62,10.44,-125.81,0.75,3.81,0.75,57.91,5.52
24.00,1.00,269.69,-13.06,-48.56,-2.12,0.88,-0.31,57.91,5.52
24.00,2.00,263.00,-23.25,15.00,-1.81,-0.06,1.94,57.91,5.52
24.00,0.00,255.56,10.44,-125.81,1.19,1.38,-0.50,57.97,5.54
24.00,1.00,269.69,-13.12,-48.56,-1.12,1.62,-0.62,57.97,5.54
24.00,2.00,262.94,-23.25,15.00,-0.94,0.19,1.75,57.97,5.56
24.00,0.00,255.62,10.44,-125.88,3.25,-4.12,-0.69,58.10,5.56
24.00,1.00,269.69,-13.12,-48.50,-1.12,1.62,-0.25,58.10,5.56
24.00,2.00,262.94,-23.31,15.00,-1.25,0.69,1.69,58.10,5.56
24.00,0.00,255.88,10.31,-125.88,1.69,-4.88,-1.81,58.23,5.58
24.00,1.00,269.62,-13.19,-48.50,-1.56,1.25,0.31,58.23,5.58
24.00,2.00,262.88,-23.31,15.06,-2.75,-0.06,1.81,58.23,5.58
24.00,0.00,256.00,10.25,-125.94,1.50,-3.69,-0.94,58.36,5.60
24.00,1.00,269.62,-13.19,-48.44,-1.75,1.75,0.50,58.36,5.60
24.00,2.00,262.81,-23.31,15.06,-3.00,0.56,1.88,58.36,5.60
24.00,0.00,256.06,10.25,-126.00,1.38,-1.19,-0.25,58.46,5.62
24.00,1.00,269.62,-13.25,-48.44,-1.31,2.12,-0.06,58.46,5.62
24.00,2.00,262.81,-23.31,15.12,-2.25,0.94,1.62,58.46,5.62
24.00,0.00,256.06,10.25,-126.00,1.00,-0.62,-0.38,58.53,5.64
24.00,1.00,269.62,-13.25,-48.44,-1.38,1.25,-0.25,58.53,5.64
24.00,2.00,262.75,-23.38,15.19,-1.38,0.75,1.38,58.53,5.66
24.00,0.00,256.12,10.19,-126.00,1.00,-0.94,-0.62,58.62,5.66
24.00,1.00,269.62,-13.31,-48.38,-0.94,1.81,-0.06,58.62,5.66
24.00,2.00,262.75,-23.38,15.19,-2.06,0.75,1.62,58.62,5.66
24.00,0.00,256.12,10.19,-126.00,0.25,-0.44,-0.25,58.68,5.68
24.00,1.00,269.56,-13.31,-48.38,-0.94,1.62,0.06,58.68,5.68
24.00,2.00,262.69,-23.38,15.25,-1.88,0.44,1.44,58.68,5.68
24.00,0.00,256.19,10.19,-126.00,0.31,-0.88,0.88,58.72,5.70
24.00,1.00,269.56,-13.38,-48.31,-0.88,1.38,0.12,58.72,5.70
24.00,2.00,262.69,-23.38,15.25,-1.12,0.00,1.25,58.72,5.70
24.00,0.00,256.19,10.19,-126.00,0.25,-1.69,1.44,58.74,5.72
24.00,1.00,269.56,-13.38,-48.31,0.00,1.38,0.06,58.74,5.72
24.00,2.00,262.69,-23.38,15.31,-0.56,-0.38,0.31,58.74,5.72
24.00,0.00,256.19,10.19,-126.00,0.44,-0.50,0.88,58.76,5.74
24.00,1.00,269.56,-13.44,-48.31,0.06,0.25,0.38,58.76,5.74
24.00,2.00,262.69,-23.38,15.31,-0.38,0.06,-0.88,58.76,5.76
24.00,0.00,256.19,10.19,-126.00,-0.50,1.31,0.06,58.77,5.76
24.00,1.00,269.56,-13.44,-48.31,-0.06,-0.25,0.44,58.77,5.76
24.00,2.00,262.69,-23.38,15.38,-0.62,0.69,-1.38,58.77,5.76
24.00,0.00,256.12,10.25,-125.94,-0.75,2.88,0.25,58.75,5.78
24.00,1.00,269.62,-13.44,-48.31,-0.19,-0.62,0.06,58.75,5.78
24.00,2.00,262.75,-23.44,15.38,-0.25,1.12,-1.12,58.75,5.78
24.00,0.00,256.00,10.31,-125.94,-0.44,3.06,1.31,58.75,5.80
24.00,1.00,269.62,-13.44,-48.31,-0.12,-0.88,-0.19,58.75,5.80
24.00,2.00,262.75,-23.44,15.44,-0.25,-0.25,-1.50,58.75,5.80
24.00,0.00,255.94,10.31,-125.88,-0.88,1.44,1.06,58.71,5.82
24.00,1.00,269.62,-13.44,-48.31,0.19,-1.00,0.12,58.71,5.82
24.00,2.00,262.81,-23.44,15.44,0.31,-0.62,-1.81,58.71,5.82
24.00,0.00,255.94,10.31,-125.81,-1.50,0.56,0.00,58.69,5.84
24.00,1.00,269.62,-13.44,-48.31,0.19,-1.38,1.25,58.69,5.84
24.00,2.00,262.88,-23.38,15.50,-0.56,-1.00,-2.75,58.69,5.84
24.00,0.00,255.88,10.38,-125.81,-1.56,3.00,-0.56,58.68,5.86
24.00,1.00,269.62,-13.38,-48.25,0.25,-2.00,1.38,58.68,5.86
24.00,2.00,262.88,-23.38,15.56,-1.50,-0.75,-3.06,58.68,5.86
24.00,0.00,255.69,10.44,-125.75,-0.19,5.19,-0.12,58.70,5.88
24.00,1.00,269.62,-13.38,-48.25,0.69,-2.44,0.44,58.70,5.88
24.00,2.00,263.00,-23.38,15.62,-0.56,0.06,-4.69,58.70,5.88
24.00,0.00,255.38,10.50,-125.69,1.19,7.12,0.75,58.70,5.90
24.00,1.00,269.69,-13.38,-48.25,1.19,-3.25,-0.25,58.70,5.90
24.00,2.00,263.12,-23.31,15.69,1.19,0.88,-6.31,58.70,5.90
24.00,0.00,255.12,10.56,-125.62,1.12,8.25,0.44,58.67,5.92
24.00,1.00,269.75,-13.31,-48.25,2.12,-3.44,-0.44,58.67,5.92
24.00,2.00,263.25,-23.31,15.69,2.19,0.94,-7.94,58.67,5.92
