Iteration,IMUNo,OrientationX (deg),OrientationY,OrientationZ,GyroX (20rad/sec),GyroY,GyroZ,Elbow_Pos (rad),Time (sec)
28.00,0.00,273.19,1.88,-91.56,-0.38,0.69,-0.44,0.00,1.02
28.00,1.00,282.31,-3.44,-51.44,-0.31,-0.44,-0.56,0.00,1.02
28.00,2.00,290.31,-19.44,18.75,-0.38,-0.12,-0.25,0.00,1.02
28.00,0.00,273.19,1.88,-91.56,-0.12,0.38,0.31,-0.01,1.04
28.00,1.00,282.31,-3.44,-51.44,-0.25,0.00,-0.75,-0.01,1.04
28.00,2.00,290.31,-19.44,18.75,0.19,0.19,-0.12,-0.01,1.04
28.00,0.00,273.19,1.88,-91.56,0.00,0.44,0.25,-0.01,1.06
28.00,1.00,282.38,-3.44,-51.44,-0.12,0.00,-0.62,-0.01,1.06
28.00,2.00,290.31,-19.44,18.75,0.00,0.38,-0.25,-0.01,1.06
28.00,0.00,273.19,1.88,-91.56,-0.31,0.19,0.06,-0.03,1.08
28.00,1.00,282.38,-3.44,-51.44,-0.25,-0.06,-0.25,-0.03,1.08
28.00,2.00,290.31,-19.44,18.75,0.19,0.25,-0.31,-0.03,1.08
28.00,0.00,273.19,1.88,-91.56,-0.50,-0.06,-0.44,-0.04,1.10
28.00,1.00,282.38,-3.44,-51.44,-0.38,-0.12,0.00,-0.04,1.10
28.00,2.00,290.31,-19.44,18.75,-0.06,0.38,0.06,-0.04,1.10
28.00,0.00,273.19,1.88,-91.56,-0.62,0.00,-0.56,-0.05,1.12
28.00,1.00,282.38,-3.44,-51.44,-0.31,-0.06,0.06,-0.05,1.12
28.00,2.00,290.31,-19.44,18.75,-0.38,-0.19,0.12,-0.05,1.12
28.00,0.00,273.19,1.88,-91.56,-0.50,-0.50,-0.31,-0.06,1.14
28.00,1.00,282.38,-3.44,-51.44,-0.44,0.00,0.06,-0.06,1.14
28.00,2.00,290.31,-19.44,18.75,-0.12,-0.25,0.12,-0.06,1.14
28.00,0.00,273.19,1.88,-91.56,-0.62,0.12,0.19,-0.07,1.16
28.00,1.00,282.38,-3.44,-51.38,-0.56,-0.06,-0.25,-0.07,1.16
28.00,2.00,290.31,-19.44,18.75,-0.25,0.00,0.00,-0.07,1.16
28.00,0.00,273.19,1.88,-91.56,-0.31,0.38,0.12,-0.08,1.18
28.00,1.00,282.38,-3.44,-51.38,-0.19,0.44,-0.25,-0.08,1.18
28.00,2.00,290.31,-19.44,18.75,-0.12,0.25,0.12,-0.08,1.18
28.00,0.00,273.12,1.88,-91.56,-0.31,0.88,0.19,-0.08,1.20
28.00,1.00,282.38,-3.44,-51.38,-0.31,0.12,0.06,-0.08,1.20
28.00,2.00,290.31,-19.44,18.75,-0.31,-0.25,0.12,-0.08,1.20
28.00,0.00,273.12,1.88,-91.56,-0.44,0.81,0.19,-0.09,1.22
28.00,1.00,282.38,-3.44,-51.38,0.00,0.56,0.00,-0.09,1.22
28.00,2.00,290.31,-19.44,18.75,-0.19,0.25,0.31,-0.09,1.22
28.00,0.00,273.12,1.88,-91.56,-0.44,0.94,0.19,-0.10,1.24
28.00,1.00,282.38,-3.44,-51.38,-0.31,0.44,0.12,-0.10,1.24
28.00,2.00,290.31,-19.44,18.75,0.12,0.19,0.56,-0.10,1.24
28.00,0.00,273.06,1.88,-91.56,-0.31,0.81,0.12,-0.10,1.26
28.00,1.00,282.38,-3.44,-51.38,-0.12,0.62,0.06,-0.10,1.26
28.00,2.00,290.31,-19.44,18.75,-0.44,0.00,0.38,-0.10,1.26
28.00,0.00,273.06,1.88,-91.56,0.00,0.69,0.19,-0.09,1.28
28.00,1.00,282.38,-3.44,-51.38,-0.38,0.06,-0.06,-0.09,1.28
28.00,2.00,290.31,-19.44,18.75,-0.44,-0.25,0.56,-0.09,1.28
28.00,0.00,273.06,1.88,-91.56,0.31,0.38,0.06,-0.07,1.30
28.00,1.00,282.38,-3.44,-51.38,-0.31,0.06,-0.12,-0.07,1.30
28.00,2.00,290.31,-19.44,18.75,-0.12,0.00,0.50,-0.07,1.30
28.00,0.00,273.06,1.88,-91.56,0.44,0.62,0.06,-0.06,1.32
28.00,1.00,282.38,-3.44,-51.38,-0.25,0.38,-0.06,-0.06,1.32
28.00,2.00,290.31,-19.44,18.75,-0.06,0.12,0.25,-0.06,1.32
28.00,0.00,273.06,1.88,-91.56,0.31,1.31,0.06,-0.04,1.34
28.00,1.00,282.38,-3.44,-51.38,-0.31,0.31,-0.19,-0.04,1.34
28.00,2.00,290.31,-19.44,18.75,-0.25,0.00,0.31,-0.04,1.34
28.00,0.00,273.00,1.88,-91.56,0.56,1.62,0.06,-0.01,1.36
28.00,1.00,282.38,-3.44,-51.38,-0.12,0.38,-0.19,-0.01,1.36
28.00,2.00,290.31,-19.44,18.69,-0.25,-0.12,1.00,-0.01,1.36
28.00,0.00,273.00,1.88,-91.56,0.75,1.81,0.12,0.03,1.38
28.00,1.00,282.38,-3.44,-51.38,-0.12,0.31,-0.19,0.03,1.38
28.00,2.00,290.25,-19.44,18.69,-0.44,0.00,1.19,0.03,1.38
28.00,0.00,272.94,1.88,-91.62,1.50,1.94,0.12,0.08,1.40
28.00,1.00,282.38,-3.44,-51.38,-0.19,0.44,-0.44,0.08,1.40
28.00,2.00,290.25,-19.44,18.69,-0.19,-0.06,1.19,0.08,1.40
28.00,0.00,272.88,1.88,-91.69,1.75,2.19,0.12,0.14,1.42
28.00,1.00,282.38,-3.44,-51.38,-0.25,0.50,-0.44,0.14,1.42
28.00,2.00,290.25,-19.44,18.69,-0.25,-0.38,1.00,0.14,1.42
28.00,0.00,272.81,1.88,-91.75,2.38,2.56,0.50,0.22,1.44
28.00,1.00,282.38,-3.44,-51.38,-0.12,0.19,-0.50,0.22,1.44
28.00,2.00,290.19,-19.44,18.69,0.00,-0.44,1.25,0.22,1.44
28.00,0.00,272.75,1.94,-91.81,2.81,3.75,0.75,0.32,1.46
28.00,1.00,282.31,-3.44,-51.38,-0.19,0.69,-0.56,0.32,1.46
28.00,2.00,290.19,-19.44,18.69,-0.38,-0.31,1.38,0.32,1.46
28.00,0.00,272.56,1.94,-91.94,3.88,4.69,1.31,0.47,1.48
28.00,1.00,282.38,-3.50,-51.38,-0.19,0.69,-0.69,0.47,1.48
28.00,2.00,290.12,-19.44,18.69,-0.75,0.12,1.94,0.47,1.48
28.00,0.00,272.44,2.00,-92.00,4.75,5.81,1.81,0.65,1.50
28.00,1.00,282.38,-3.50,-51.38,-0.31,0.75,-0.44,0.65,1.50
28.00,2.00,290.12,-19.50,18.69,-1.12,0.38,1.75,0.65,1.50
28.00,0.00,272.25,2.06,-92.19,5.88,6.12,2.38,0.89,1.52
28.00,1.00,282.31,-3.50,-51.38,0.00,0.94,-0.38,0.89,1.52
28.00,2.00,290.06,-19.50,18.69,-1.50,0.56,1.81,0.89,1.52
28.00,0.00,272.06,2.12,-92.31,6.62,6.62,2.69,1.16,1.54
28.00,1.00,282.31,-3.50,-51.38,-0.12,0.94,-0.44,1.16,1.54
28.00,2.00,290.00,-19.50,18.75,-1.81,0.69,2.06,1.16,1.54
28.00,0.00,271.88,2.19,-92.50,7.81,6.00,2.75,1.48,1.56
28.00,1.00,282.31,-3.50,-51.44,0.12,1.31,-0.50,1.48,1.56
28.00,2.00,290.00,-19.56,18.75,-2.25,1.00,2.19,1.48,1.56
28.00,0.00,271.69,2.25,-92.69,9.25,5.19,3.12,1.85,1.58
28.00,1.00,282.31,-3.56,-51.44,-0.06,1.38,-0.19,1.85,1.58
28.00,2.00,289.94,-19.56,18.81,-2.38,0.88,2.19,1.85,1.58
28.00,0.00,271.50,2.31,-92.94,10.50,4.50,3.38,2.25,1.60
28.00,1.00,282.31,-3.56,-51.44,0.31,1.25,-0.19,2.25,1.60
28.00,2.00,289.88,-19.62,18.81,-2.00,0.94,2.69,2.25,1.60
28.00,0.00,271.38,2.38,-93.19,12.25,3.69,4.88,2.70,1.62
28.00,1.00,282.31,-3.56,-51.44,0.31,1.44,-0.12,2.70,1.62
28.00,2.00,289.81,-19.62,18.81,-1.88,0.88,2.56,2.70,1.62
28.00,0.00,271.19,2.50,-93.44,14.38,1.62,6.00,3.22,1.64
28.00,1.00,282.25,-3.56,-51.44,0.31,1.69,-0.19,3.22,1.64
28.00,2.00,289.75,-19.69,18.88,-2.12,1.50,2.25,3.22,1.64
28.00,0.00,271.06,2.62,-93.75,14.06,1.19,4.56,3.76,1.66
28.00,1.00,282.25,-3.62,-51.44,0.38,1.38,-0.19,3.76,1.66
28.00,2.00,289.75,-19.75,18.88,-2.88,1.25,2.00,3.76,1.66
28.00,0.00,270.88,2.75,-94.06,14.44,3.56,4.75,4.28,1.68
28.00,1.00,282.25,-3.62,-51.44,-0.31,1.44,-0.62,4.28,1.68
28.00,2.00,289.69,-19.75,18.94,-2.00,0.94,2.38,4.28,1.68
28.00,0.00,270.62,2.88,-94.38,16.06,4.81,6.06,4.81,1.70
28.00,1.00,282.25,-3.69,-51.44,0.94,1.94,-0.94,4.81,1.70
28.00,2.00,289.62,-19.81,18.94,-0.56,0.94,3.38,4.81,1.70
28.00,0.00,270.38,3.00,-94.75,16.50,4.31,6.88,5.37,1.72
28.00,1.00,282.25,-3.69,-51.44,0.81,1.88,-0.38,5.37,1.72
28.00,2.00,289.56,-19.81,18.94,-1.00,0.81,4.31,5.37,1.72
28.00,0.00,270.12,3.19,-95.12,18.06,3.56,8.88,6.04,1.74
28.00,1.00,282.19,-3.69,-51.44,0.50,2.12,-0.19,6.04,1.74
28.00,2.00,289.44,-19.88,18.94,-3.12,0.12,4.81,6.04,1.74
28.00,0.00,269.88,3.31,-95.50,19.06,2.38,8.94,6.76,1.76
28.00,1.00,282.19,-3.75,-51.44,-0.69,2.19,0.00,6.76,1.76
28.00,2.00,289.31,-19.88,19.00,-3.56,0.25,4.88,6.76,1.76
28.00,0.00,269.69,3.50,-95.88,19.44,1.62,7.19,7.45,1.78
28.00,1.00,282.19,-3.75,-51.44,-0.06,2.12,0.50,7.45,1.78
28.00,2.00,289.25,-19.94,19.00,-2.06,0.56,5.00,7.45,1.78
28.00,0.00,269.50,3.62,-96.25,19.19,1.38,7.06,8.11,1.80
28.00,1.00,282.12,-3.81,-51.44,-0.31,2.00,-0.12,8.11,1.80
28.00,2.00,289.12,-20.00,19.00,-1.50,0.69,5.12,8.11,1.80
28.00,0.00,269.25,3.75,-96.62,20.31,1.00,7.88,8.81,1.82
28.00,1.00,282.12,-3.81,-51.44,0.00,2.44,-0.06,8.81,1.82
28.00,2.00,289.00,-20.00,19.00,-1.94,-0.56,5.44,8.81,1.82
28.00,0.00,269.06,3.94,-97.12,22.88,0.06,9.69,9.62,1.84
28.00,1.00,282.12,-3.88,-51.44,-0.44,2.25,0.00,9.62,1.84
28.00,2.00,288.88,-20.06,19.00,-2.31,-0.31,5.88,9.62,1.84
28.00,0.00,268.81,4.12,-97.50,22.06,0.62,8.50,10.42,1.86
28.00,1.00,282.06,-3.88,-51.44,-0.19,2.62,0.06,10.42,1.86
28.00,2.00,288.75,-20.06,19.00,-3.25,0.19,6.31,10.42,1.86
28.00,0.00,268.69,4.25,-97.94,21.81,0.38,7.50,11.23,1.88
28.00,1.00,282.06,-3.94,-51.44,-0.31,2.69,0.25,11.23,1.88
28.00,2.00,288.62,-20.12,19.06,-3.56,-0.81,6.69,11.23,1.88
28.00,0.00,268.56,4.38,-98.19,23.50,0.00,8.75,12.03,1.90
28.00,1.00,282.06,-3.94,-51.44,0.06,2.94,-0.06,12.03,1.90
28.00,2.00,288.50,-20.12,19.06,-1.62,-2.12,6.12,12.03,1.90
28.00,0.00,268.31,4.50,-98.69,24.50,-0.50,9.50,12.80,1.92
28.00,1.00,282.00,-4.00,-51.44,0.38,2.94,-0.69,12.80,1.92
28.00,2.00,288.38,-20.12,19.06,0.25,-0.69,6.00,12.80,1.92
28.00,0.00,268.12,4.69,-99.19,25.38,-0.12,10.00,13.62,1.94
28.00,1.00,282.00,-4.06,-51.50,0.56,3.06,-0.44,13.62,1.94
28.00,2.00,288.25,-20.19,19.00,-0.38,1.00,6.69,13.62,1.94
28.00,0.00,267.81,4.94,-99.69,25.44,1.56,10.19,14.49,1.96
28.00,1.00,281.94,-4.06,-51.50,0.12,2.88,-0.06,14.49,1.96
28.00,2.00,288.12,-20.25,19.00,-1.81,1.25,7.56,14.49,1.96
28.00,0.00,267.50,5.12,-100.19,26.31,2.38,11.38,15.41,1.98
28.00,1.00,281.94,-4.12,-51.50,0.38,3.44,0.38,15.41,1.98
28.00,2.00,287.94,-20.31,19.00,-2.75,-0.69,8.06,15.41,1.98
28.00,0.00,267.12,5.44,-100.75,27.31,4.56,12.62,16.33,2.00
28.00,1.00,281.88,-4.19,-51.50,0.56,3.94,-0.06,16.33,2.00
28.00,2.00,287.75,-20.38,19.00,-1.62,-1.19,8.44,16.33,2.00
28.00,0.00,266.62,5.75,-101.31,28.25,6.56,13.81,17.27,2.02
28.00,1.00,281.88,-4.19,-51.50,0.81,3.88,-0.06,17.27,2.02
28.00,2.00,287.56,-20.38,19.00,-1.06,-1.19,8.69,17.27,2.02
28.00,0.00,266.12,6.06,-101.88,28.62,7.12,14.56,18.20,2.04
28.00,1.00,281.81,-4.25,-51.50,0.31,3.94,0.44,18.20,2.04
28.00,2.00,287.44,-20.44,18.94,-0.81,-1.38,8.81,18.20,2.04
28.00,0.00,265.56,6.31,-102.44,28.38,6.88,14.88,19.12,2.06
28.00,1.00,281.75,-4.31,-51.56,0.75,4.56,0.81,19.12,2.06
28.00,2.00,287.25,-20.44,18.88,-0.44,-2.75,9.62,19.12,2.06
28.00,0.00,265.00,6.62,-102.94,27.19,6.81,14.50,19.99,2.08
28.00,1.00,281.75,-4.31,-51.56,0.62,3.94,0.81,19.99,2.08
28.00,2.00,287.00,-20.44,18.81,0.00,-3.31,10.69,19.99,2.08
28.00,0.00,264.50,6.94,-103.50,27.62,6.81,14.88,20.85,2.10
28.00,1.00,281.69,-4.38,-51.56,0.75,4.75,0.75,20.85,2.10
28.00,2.00,286.81,-20.44,18.75,0.62,-2.88,10.38,20.85,2.10
28.00,0.00,263.94,7.31,-104.00,28.75,6.38,16.31,21.73,2.12
28.00,1.00,281.56,-4.44,-51.62,1.56,5.50,1.31,21.73,2.12
28.00,2.00,286.56,-20.50,18.62,0.81,-2.00,10.50,21.73,2.12
28.00,0.00,263.38,7.62,-104.56,28.88,6.12,15.94,22.64,2.14
28.00,1.00,281.50,-4.50,-51.62,0.94,6.12,1.50,22.64,2.14
28.00,2.00,286.38,-20.50,18.56,0.31,-3.56,10.44,22.64,2.14
28.00,0.00,262.81,7.94,-105.12,28.38,6.19,15.62,23.55,2.16
28.00,1.00,281.44,-4.50,-51.62,0.19,6.56,2.00,23.55,2.16
28.00,2.00,286.12,-20.50,18.44,0.00,-5.00,11.25,23.55,2.16
28.00,0.00,262.25,8.25,-105.69,27.62,6.19,16.12,24.41,2.18
28.00,1.00,281.31,-4.56,-51.69,0.56,5.75,1.81,24.41,2.18
28.00,2.00,285.94,-20.44,18.38,0.44,-5.44,11.44,24.41,2.18
28.00,0.00,261.69,8.62,-106.19,27.88,6.56,16.25,25.25,2.20
28.00,1.00,281.25,-4.62,-51.69,0.94,5.75,1.69,25.25,2.20
28.00,2.00,285.69,-20.44,18.31,1.56,-5.25,11.50,25.25,2.20
28.00,0.00,261.06,8.94,-106.75,28.31,6.06,16.38,26.07,2.22
28.00,1.00,281.12,-4.69,-51.69,0.75,5.75,1.69,26.07,2.22
28.00,2.00,285.44,-20.38,18.19,2.62,-5.38,11.19,26.07,2.22
28.00,0.00,260.50,9.25,-107.31,28.81,6.25,16.12,26.90,2.24
28.00,1.00,281.06,-4.69,-51.75,0.62,6.44,2.12,26.90,2.24
28.00,2.00,285.25,-20.38,18.06,2.56,-5.06,11.00,26.90,2.24
28.00,0.00,259.94,9.56,-107.81,27.69,5.31,15.50,27.77,2.26
28.00,1.00,280.94,-4.75,-51.75,0.62,6.81,2.62,27.77,2.26
28.00,2.00,285.00,-20.31,17.94,0.31,-5.38,10.19,27.77,2.26
28.00,0.00,259.38,9.88,-108.38,27.75,4.31,15.56,28.68,2.28
28.00,1.00,280.81,-4.81,-51.75,-0.12,6.19,2.44,28.68,2.28
28.00,2.00,284.81,-20.31,17.94,-0.81,-5.88,10.19,28.68,2.28
28.00,0.00,258.88,10.19,-108.94,28.81,3.62,15.12,29.53,2.30
28.00,1.00,280.75,-4.81,-51.81,-0.44,5.50,1.56,29.53,2.30
28.00,2.00,284.62,-20.25,17.88,2.12,-4.25,10.19,29.53,2.30
28.00,0.00,258.31,10.50,-109.50,31.12,3.25,15.81,30.44,2.32
28.00,1.00,280.62,-4.88,-51.81,-1.06,5.81,1.19,30.44,2.32
28.00,2.00,284.44,-20.25,17.75,2.69,-3.44,9.94,30.44,2.32
28.00,0.00,257.88,10.75,-110.12,31.75,1.75,15.75,31.44,2.34
28.00,1.00,280.56,-4.94,-51.81,0.50,7.56,1.62,31.44,2.34
28.00,2.00,284.25,-20.25,17.69,0.12,-3.38,10.06,31.44,2.34
28.00,0.00,257.44,11.00,-110.75,31.06,0.25,15.00,32.44,2.36
28.00,1.00,280.44,-5.00,-51.81,-1.00,5.94,1.38,32.44,2.36
28.00,2.00,284.00,-20.25,17.62,-0.31,-3.62,10.75,32.44,2.36
28.00,0.00,257.00,11.19,-111.38,32.19,-1.44,14.94,33.43,2.38
28.00,1.00,280.38,-5.06,-51.81,-0.88,6.69,0.69,33.43,2.38
28.00,2.00,283.81,-20.25,17.56,1.19,-1.81,10.94,33.43,2.38
28.00,0.00,256.69,11.44,-112.06,33.19,-4.00,15.19,34.46,2.40
28.00,1.00,280.31,-5.12,-51.75,-1.44,5.81,0.62,34.46,2.40
28.00,2.00,283.62,-20.31,17.50,0.69,-2.00,9.44,34.46,2.40
28.00,0.00,256.38,11.62,-112.69,33.25,-5.50,14.38,35.51,2.42
28.00,1.00,280.25,-5.19,-51.75,-1.44,5.38,0.94,35.51,2.42
28.00,2.00,283.44,-20.31,17.44,0.25,-2.62,9.81,35.51,2.42
28.00,0.00,256.06,11.81,-113.38,32.06,-6.12,13.06,36.49,2.44
28.00,1.00,280.19,-5.25,-51.75,0.12,6.62,0.75,36.49,2.44
28.00,2.00,283.19,-20.31,17.38,1.44,-2.38,10.56,36.49,2.44
28.00,0.00,255.88,11.94,-114.06,32.69,-7.06,13.12,37.49,2.46
28.00,1.00,280.12,-5.31,-51.75,-1.50,4.75,0.94,37.49,2.46
28.00,2.00,283.00,-20.31,17.25,1.31,-2.44,10.44,37.49,2.46
28.00,0.00,255.62,12.12,-114.69,32.50,-7.69,13.75,38.51,2.48
28.00,1.00,280.00,-5.31,-51.75,-0.25,5.81,1.38,38.51,2.48
28.00,2.00,282.81,-20.31,17.19,0.50,-3.44,11.00,38.51,2.48
28.00,0.00,255.38,12.31,-115.38,31.44,-7.38,13.12,39.47,2.50
28.00,1.00,279.94,-5.38,-51.75,-0.50,5.62,0.88,39.47,2.50
28.00,2.00,282.56,-20.31,17.06,1.19,-4.12,11.56,39.47,2.50
28.00,0.00,255.12,12.44,-116.00,30.62,-7.31,12.25,40.35,2.52
28.00,1.00,279.88,-5.44,-51.75,-0.31,5.56,0.50,40.35,2.52
28.00,2.00,282.38,-20.31,17.00,2.88,-2.19,11.12,40.35,2.52
28.00,0.00,254.88,12.56,-116.62,29.56,-6.69,11.62,41.20,2.54
28.00,1.00,279.81,-5.50,-51.75,-0.75,5.38,0.81,41.20,2.54
28.00,2.00,282.19,-20.38,16.88,3.06,-2.00,10.31,41.20,2.54
28.00,0.00,254.69,12.69,-117.19,29.25,-6.25,11.50,42.07,2.56
28.00,1.00,279.75,-5.56,-51.75,-0.25,6.12,0.88,42.07,2.56
28.00,2.00,281.94,-20.38,16.75,1.62,-2.50,11.06,42.07,2.56
28.00,0.00,254.44,12.88,-117.81,27.62,-5.38,10.69,42.92,2.58
28.00,1.00,279.69,-5.62,-51.75,-1.12,4.94,1.12,42.92,2.58
28.00,2.00,281.75,-20.38,16.62,0.94,-4.06,11.81,42.92,2.58
28.00,0.00,254.19,12.94,-118.31,27.12,-5.69,11.00,43.74,2.60
28.00,1.00,279.62,-5.69,-51.75,-0.75,5.75,1.00,43.74,2.60
28.00,2.00,281.50,-20.38,16.56,1.38,-3.50,11.69,43.74,2.60
28.00,0.00,253.94,13.12,-118.88,27.19,-5.06,11.81,44.57,2.62
28.00,1.00,279.50,-5.69,-51.75,-0.06,6.06,1.25,44.57,2.62
28.00,2.00,281.25,-20.38,16.44,1.19,-3.19,11.19,44.57,2.62
28.00,0.00,253.69,13.25,-119.38,25.31,-3.75,11.19,45.32,2.64
28.00,1.00,279.44,-5.75,-51.75,-0.88,5.38,2.25,45.32,2.64
28.00,2.00,281.06,-20.38,16.31,1.69,-3.44,11.25,45.32,2.64
28.00,0.00,253.50,13.31,-119.81,22.12,-3.94,9.06,45.96,2.66
28.00,1.00,279.31,-5.81,-51.75,-0.81,5.31,2.31,45.96,2.66
28.00,2.00,280.81,-20.38,16.25,2.12,-3.19,11.25,45.96,2.66
28.00,0.00,253.31,13.38,-120.19,20.62,-4.06,8.06,46.55,2.68
28.00,1.00,279.25,-5.81,-51.75,-0.88,5.25,2.06,46.55,2.68
28.00,2.00,280.62,-20.38,16.12,2.06,-3.06,11.38,46.55,2.68
28.00,0.00,253.12,13.50,-120.56,19.81,-4.69,9.38,47.11,2.70
28.00,1.00,279.12,-5.88,-51.81,-0.19,6.69,2.44,47.11,2.70
28.00,2.00,280.38,-20.38,16.00,2.12,-2.94,11.56,47.11,2.70
28.00,0.00,252.94,13.56,-120.94,17.81,-4.19,8.19,47.64,2.72
28.00,1.00,279.00,-5.88,-51.81,-0.94,6.31,2.56,47.64,2.72
28.00,2.00,280.12,-20.38,15.88,1.31,-2.75,11.69,47.64,2.72
28.00,0.00,252.81,13.69,-121.31,16.88,-4.31,6.69,48.17,2.74
28.00,1.00,278.88,-5.94,-51.81,-0.44,7.62,2.81,48.17,2.74
28.00,2.00,279.94,-20.38,15.81,0.12,-3.00,12.38,48.17,2.74
28.00,0.00,252.69,13.75,-121.62,16.50,-3.62,6.44,48.68,2.76
28.00,1.00,278.81,-5.94,-51.81,-0.81,7.06,2.88,48.68,2.76
28.00,2.00,279.69,-20.38,15.69,0.69,-3.19,12.12,48.68,2.76
28.00,0.00,252.56,13.75,-121.94,18.06,-4.12,7.00,49.22,2.78
28.00,1.00,278.69,-6.00,-51.81,-0.62,8.00,3.31,49.22,2.78
28.00,2.00,279.44,-20.38,15.62,0.81,-3.00,12.38,49.22,2.78
28.00,0.00,252.31,13.88,-122.31,18.75,-2.94,8.56,49.79,2.80
28.00,1.00,278.56,-6.06,-51.81,-0.44,7.50,3.31,49.79,2.80
28.00,2.00,279.19,-20.44,15.50,0.88,-2.69,12.56,49.79,2.80
28.00,0.00,252.06,14.00,-122.62,16.44,-0.38,7.31,50.32,2.82
28.00,1.00,278.44,-6.06,-51.81,-0.69,7.19,3.44,50.32,2.82
28.00,2.00,278.94,-20.44,15.44,0.00,-3.31,12.75,50.32,2.82
28.00,0.00,251.81,14.06,-122.88,14.06,0.75,5.50,50.75,2.84
28.00,1.00,278.25,-6.12,-51.81,-1.69,6.75,2.81,50.75,2.84
28.00,2.00,278.69,-20.38,15.38,0.56,-3.62,12.25,50.75,2.84
28.00,0.00,251.56,14.19,-123.19,14.25,1.56,5.06,51.18,2.86
28.00,1.00,278.19,-6.12,-51.81,-1.31,7.44,2.75,51.18,2.86
28.00,2.00,278.44,-20.44,15.25,0.56,-2.81,11.69,51.18,2.86
28.00,0.00,251.25,14.25,-123.50,16.44,1.19,5.88,51.74,2.88
28.00,1.00,278.06,-6.19,-51.81,-0.81,7.62,3.00,51.74,2.88
28.00,2.00,278.19,-20.44,15.19,-1.25,-2.94,11.81,51.74,2.88
28.00,0.00,250.94,14.38,-123.81,17.50,0.12,7.25,52.36,2.90
28.00,1.00,277.94,-6.25,-51.81,-1.19,6.88,2.69,52.36,2.90
28.00,2.00,278.00,-20.44,15.19,-1.75,-2.31,12.06,52.36,2.90
28.00,0.00,250.62,14.50,-124.12,15.56,0.94,6.56,52.85,2.92
28.00,1.00,277.81,-6.31,-51.81,-0.81,6.31,2.38,52.85,2.92
28.00,2.00,277.75,-20.44,15.12,0.00,-1.00,11.62,52.85,2.92
28.00,0.00,250.31,14.62,-124.44,12.25,1.75,4.62,53.25,2.94
28.00,1.00,277.69,-6.31,-51.81,-1.12,6.81,2.00,53.25,2.94
28.00,2.00,277.50,-20.50,15.00,-0.12,-0.69,11.56,53.25,2.94
28.00,0.00,250.06,14.69,-124.69,14.31,-0.44,4.44,53.75,2.96
28.00,1.00,277.56,-6.38,-51.75,-0.38,7.88,2.19,53.75,2.96
28.00,2.00,277.25,-20.56,15.00,-1.50,-1.56,12.50,53.75,2.96
28.00,0.00,249.81,14.75,-125.06,18.19,-1.25,7.69,54.34,2.98
28.00,1.00,277.50,-6.44,-51.81,-0.06,8.44,2.19,54.34,2.98
28.00,2.00,277.00,-20.56,14.94,-0.25,-2.19,12.25,54.34,2.98
28.00,0.00,249.38,14.94,-125.44,18.25,1.38,8.69,54.91,3.00
28.00,1.00,277.38,-6.50,-51.81,-0.75,7.69,2.50,54.91,3.00
28.00,2.00,276.81,-20.56,14.81,0.25,-2.00,11.62,54.91,3.00
28.00,0.00,249.00,15.06,-125.75,13.62,3.56,5.06,55.33,3.02
28.00,1.00,277.25,-6.56,-51.81,-0.62,7.88,2.25,55.33,3.02
28.00,2.00,276.56,-20.56,14.75,0.44,-2.31,11.38,55.33,3.02
28.00,0.00,248.69,15.12,-125.94,11.75,2.25,2.69,55.72,3.04
28.00,1.00,277.12,-6.62,-51.81,-1.12,6.88,2.19,55.72,3.04
28.00,2.00,276.31,-20.62,14.69,-0.50,-1.94,11.94,55.72,3.04
28.00,0.00,248.44,15.19,-126.25,15.88,-0.75,6.12,56.27,3.06
28.00,1.00,277.00,-6.69,-51.81,-0.44,7.81,2.38,56.27,3.06
28.00,2.00,276.12,-20.62,14.62,-1.31,-2.62,12.06,56.27,3.06
28.00,0.00,248.06,15.31,-126.62,17.62,-1.31,9.06,56.82,3.08
28.00,1.00,276.88,-6.75,-51.81,-0.50,7.81,2.25,56.82,3.08
28.00,2.00,275.88,-20.62,14.56,0.31,-2.69,11.31,56.82,3.08
28.00,0.00,247.81,15.44,-126.94,13.06,-0.75,4.50,57.20,3.10
28.00,1.00,276.75,-6.81,-51.88,-0.62,7.06,2.19,57.20,3.10
28.00,2.00,275.69,-20.62,14.50,1.19,-1.69,11.00,57.20,3.10
28.00,0.00,247.69,15.44,-127.19,11.88,-2.75,2.38,57.56,3.12
28.00,1.00,276.62,-6.88,-51.88,-0.94,7.00,2.25,57.56,3.12
28.00,2.00,275.44,-20.62,14.44,0.50,-1.75,11.06,57.56,3.12
28.00,0.00,247.56,15.44,-127.44,13.88,-3.12,5.62,58.04,3.14
28.00,1.00,276.56,-6.88,-51.88,-0.25,7.94,2.31,58.04,3.14
28.00,2.00,275.19,-20.62,14.38,-1.19,-3.19,11.81,58.04,3.14
28.00,0.00,247.31,15.56,-127.81,15.19,-3.19,7.69,58.55,3.16
28.00,1.00,276.44,-6.94,-51.88,-0.69,6.12,3.06,58.55,3.16
28.00,2.00,275.00,-20.62,14.31,-0.94,-4.06,11.50,58.55,3.16
28.00,0.00,247.12,15.62,-128.06,11.19,-1.00,4.50,58.91,3.18
28.00,1.00,276.31,-7.00,-51.88,0.06,8.38,3.00,58.91,3.18
28.00,2.00,274.75,-20.56,14.25,-0.25,-4.81,9.81,58.91,3.18
28.00,0.00,247.00,15.62,-128.25,8.50,-1.06,1.12,59.18,3.20
28.00,1.00,276.12,-7.00,-51.94,-1.06,7.06,3.12,59.18,3.20
28.00,2.00,274.56,-20.56,14.19,0.06,-4.06,9.62,59.18,3.20
28.00,0.00,246.94,15.62,-128.44,9.44,-2.06,2.94,59.50,3.22
28.00,1.00,276.00,-7.06,-51.88,-1.19,7.25,3.25,59.50,3.22
28.00,2.00,274.38,-20.50,14.12,-0.44,-4.19,10.00,59.50,3.22
28.00,0.00,246.81,15.69,-128.62,9.19,-2.12,4.38,59.83,3.24
28.00,1.00,275.88,-7.12,-51.88,-2.44,6.75,3.25,59.83,3.24
28.00,2.00,274.19,-20.50,14.06,-1.12,-4.31,10.38,59.83,3.24
28.00,0.00,246.75,15.69,-128.81,8.44,-2.75,3.62,60.16,3.26
28.00,1.00,275.75,-7.12,-51.88,-1.44,8.38,3.25,60.16,3.26
28.00,2.00,273.94,-20.44,14.06,-2.00,-4.06,10.31,60.16,3.26
28.00,0.00,246.69,15.69,-129.00,8.62,-2.75,4.12,60.51,3.28
28.00,1.00,275.62,-7.19,-51.88,-1.88,7.81,3.12,60.51,3.28
28.00,2.00,273.75,-20.44,14.06,-2.38,-3.81,10.25,60.51,3.28
28.00,0.00,246.50,15.75,-129.12,8.81,-1.38,5.75,60.83,3.30
28.00,1.00,275.50,-7.25,-51.81,-2.00,7.81,2.81,60.83,3.30
28.00,2.00,273.56,-20.38,14.00,-1.38,-3.12,10.19,60.83,3.30
28.00,0.00,246.31,15.88,-129.25,5.81,1.19,5.19,61.05,3.32
28.00,1.00,275.38,-7.31,-51.81,-2.50,7.25,2.25,61.05,3.32
28.00,2.00,273.38,-20.38,13.94,-1.06,-2.19,9.12,61.05,3.32
28.00,0.00,246.12,15.94,-129.31,2.00,2.94,3.12,61.16,3.34
28.00,1.00,275.25,-7.38,-51.81,-1.81,8.62,1.88,61.16,3.34
28.00,2.00,273.19,-20.38,13.94,-1.38,-2.12,9.44,61.16,3.34
28.00,0.00,245.94,16.00,-129.31,1.38,3.75,1.50,61.30,3.36
28.00,1.00,275.12,-7.44,-51.75,-2.50,7.75,2.12,61.30,3.36
28.00,2.00,272.94,-20.38,13.88,-3.12,-3.88,10.69,61.30,3.36
28.00,0.00,245.81,16.06,-129.31,1.81,3.56,2.00,61.43,3.38
28.00,1.00,275.00,-7.50,-51.75,-3.00,7.19,1.88,61.43,3.38
28.00,2.00,272.69,-20.31,13.88,-2.31,-3.44,10.75,61.43,3.38
28.00,0.00,245.69,16.12,-129.31,2.31,2.44,3.12,61.55,3.40
28.00,1.00,274.88,-7.56,-51.69,-2.19,7.12,1.50,61.55,3.40
28.00,2.00,272.50,-20.31,13.88,-1.44,-1.69,9.75,61.55,3.40
28.00,0.00,245.56,16.12,-129.38,3.38,2.19,4.75,61.72,3.42
28.00,1.00,274.81,-7.62,-51.69,-2.69,6.38,0.94,61.72,3.42
28.00,2.00,272.31,-20.31,13.81,-1.94,-0.94,9.19,61.72,3.42
28.00,0.00,245.25,16.31,-129.44,2.56,3.06,4.50,61.87,3.44
28.00,1.00,274.75,-7.69,-51.62,-2.81,6.56,0.00,61.87,3.44
28.00,2.00,272.12,-20.38,13.81,-2.25,-0.75,9.12,61.87,3.44
28.00,0.00,245.12,16.31,-129.44,-0.12,3.88,2.31,61.90,3.46
28.00,1.00,274.69,-7.75,-51.56,-2.88,5.44,-0.50,61.90,3.46
28.00,2.00,272.00,-20.38,13.81,-1.06,-0.88,9.00,61.90,3.46
28.00,0.00,244.81,16.50,-129.44,1.12,4.75,3.62,61.96,3.48
28.00,1.00,274.62,-7.81,-51.56,-2.00,6.00,-0.38,61.96,3.48
28.00,2.00,271.81,-20.38,13.81,-0.62,-0.56,8.38,61.96,3.48
28.00,0.00,244.50,16.62,-129.44,1.56,6.62,4.12,62.04,3.50
28.00,1.00,274.56,-7.88,-51.50,-2.06,6.38,-0.25,62.04,3.50
28.00,2.00,271.62,-20.44,13.75,-0.81,-0.25,8.19,62.04,3.50
28.00,0.00,244.31,16.69,-129.50,2.06,8.31,4.00,62.15,3.52
28.00,1.00,274.50,-7.94,-51.50,-1.69,6.38,-0.25,62.15,3.52
28.00,2.00,271.50,-20.44,13.75,-1.62,-2.06,8.81,62.15,3.52
28.00,0.00,243.88,16.88,-129.50,1.50,10.38,3.88,62.19,3.54
28.00,1.00,274.44,-8.06,-51.50,-1.25,6.88,-0.62,62.19,3.54
28.00,2.00,271.31,-20.44,13.75,0.38,-2.06,8.56,62.19,3.54
28.00,0.00,243.38,17.06,-129.50,0.81,12.31,4.25,62.15,3.56
28.00,1.00,274.38,-8.12,-51.50,-1.44,5.94,-0.38,62.15,3.56
28.00,2.00,271.19,-20.44,13.69,2.12,-0.56,6.88,62.15,3.56
28.00,0.00,242.81,17.31,-129.44,0.06,13.81,4.88,62.13,3.58
28.00,1.00,274.31,-8.19,-51.44,-1.44,6.38,0.06,62.13,3.58
28.00,2.00,271.06,-20.44,13.56,0.69,-1.12,7.50,62.13,3.58
28.00,0.00,242.25,17.50,-129.38,0.19,15.31,4.88,62.17,3.60
28.00,1.00,274.25,-8.25,-51.44,-2.44,5.19,0.62,62.17,3.60
28.00,2.00,270.88,-20.44,13.56,-1.19,-2.81,8.56,62.17,3.60
28.00,0.00,241.62,17.75,-129.31,0.75,15.31,4.44,62.23,3.62
28.00,1.00,274.19,-8.31,-51.38,-2.12,5.62,1.00,62.23,3.62
28.00,2.00,270.69,-20.44,13.50,-1.00,-3.12,8.75,62.23,3.62
28.00,0.00,241.12,18.00,-129.19,0.69,14.12,4.00,62.26,3.64
28.00,1.00,274.12,-8.38,-51.38,-1.81,5.56,1.31,62.26,3.64
28.00,2.00,270.50,-20.38,13.44,-0.50,-2.19,7.75,62.26,3.64
28.00,0.00,240.69,18.12,-129.12,0.50,13.38,3.75,62.32,3.66
28.00,1.00,274.00,-8.44,-51.38,-2.31,5.38,1.69,62.32,3.66
28.00,2.00,270.38,-20.38,13.44,-1.19,-2.38,7.44,62.32,3.66
28.00,0.00,240.31,18.31,-129.06,-0.06,10.69,2.06,62.35,3.68
28.00,1.00,273.94,-8.44,-51.31,-2.75,5.00,1.31,62.35,3.68
28.00,2.00,270.25,-20.38,13.44,-1.19,-1.69,7.69,62.35,3.68
28.00,0.00,240.00,18.38,-129.00,0.19,8.69,1.19,62.41,3.70
28.00,1.00,273.88,-8.50,-51.31,-2.38,5.94,0.56,62.41,3.70
28.00,2.00,270.06,-20.38,13.38,-1.50,-1.69,7.62,62.41,3.70
28.00,0.00,239.75,18.50,-128.94,0.12,7.81,0.75,62.48,3.72
28.00,1.00,273.81,-8.62,-51.25,-1.81,6.38,0.94,62.48,3.72
28.00,2.00,269.94,-20.38,13.38,-2.06,-1.94,7.25,62.48,3.72
28.00,0.00,239.62,18.50,-128.88,0.06,6.88,-0.38,62.56,3.74
28.00,1.00,273.69,-8.62,-51.25,-2.62,5.06,1.56,62.56,3.74
28.00,2.00,269.75,-20.38,13.38,-2.50,-1.69,7.31,62.56,3.74
28.00,0.00,239.50,18.50,-128.81,0.00,6.06,-0.69,62.64,3.76
28.00,1.00,273.62,-8.69,-51.19,-3.00,5.00,1.19,62.64,3.76
28.00,2.00,269.62,-20.38,13.44,-2.56,-0.69,6.31,62.64,3.76
28.00,0.00,239.44,18.56,-128.69,-0.25,4.88,-0.94,62.71,3.78
28.00,1.00,273.56,-8.69,-51.12,-3.25,4.38,0.75,62.71,3.78
28.00,2.00,269.50,-20.38,13.44,-2.56,0.31,6.38,62.71,3.78
28.00,0.00,239.38,18.56,-128.69,-0.31,2.88,-1.31,62.78,3.80
28.00,1.00,273.50,-8.75,-51.06,-3.38,3.94,0.44,62.78,3.80
28.00,2.00,269.38,-20.38,13.50,-2.38,0.38,5.81,62.78,3.80
28.00,0.00,239.31,18.56,-128.62,-0.12,1.81,-1.31,62.83,3.82
28.00,1.00,273.50,-8.81,-51.00,-3.06,4.88,0.19,62.83,3.82
28.00,2.00,269.25,-20.44,13.50,-1.81,1.25,5.88,62.83,3.82
28.00,0.00,239.31,18.56,-128.62,0.75,1.00,-0.94,62.91,3.84
28.00,1.00,273.44,-8.88,-51.00,-2.75,5.50,-0.12,62.91,3.84
28.00,2.00,269.19,-20.44,13.50,-1.56,0.62,5.94,62.91,3.84
28.00,0.00,239.25,18.56,-128.69,1.88,1.12,-0.19,62.94,3.86
28.00,1.00,273.38,-8.94,-50.94,-2.56,5.50,-0.31,62.94,3.86
28.00,2.00,269.06,-20.50,13.56,0.94,1.88,4.25,62.94,3.86
28.00,0.00,239.19,18.56,-128.69,3.25,0.62,0.62,62.99,3.88
28.00,1.00,273.31,-9.06,-50.94,-2.62,5.81,-0.75,62.99,3.88
28.00,2.00,269.06,-20.56,13.50,1.50,3.00,3.38,62.99,3.88
28.00,0.00,239.12,18.56,-128.75,3.88,-0.56,1.06,63.15,3.90
28.00,1.00,273.25,-9.12,-50.88,-2.94,5.81,-0.56,63.15,3.90
28.00,2.00,268.94,-20.62,13.50,-0.94,2.00,4.62,63.15,3.92
28.00,0.00,239.06,18.56,-128.88,4.69,-0.69,1.75,63.35,3.92
28.00,1.00,273.19,-9.19,-50.81,-3.19,5.50,-0.62,63.35,3.92
28.00,2.00,268.88,-20.69,13.50,-1.88,0.31,5.12,63.35,3.92
28.00,0.00,239.00,18.56,-128.94,4.94,-1.31,2.44,63.56,3.94
28.00,1.00,273.19,-9.25,-50.75,-3.25,4.31,-0.44,63.56,3.94
28.00,2.00,268.75,-20.69,13.50,-1.44,-0.31,4.00,63.56,3.94
28.00,0.00,238.88,18.62,-129.06,4.50,-0.56,2.44,63.70,3.96
28.00,1.00,273.12,-9.31,-50.75,-2.62,3.81,-0.50,63.70,3.96
28.00,2.00,268.69,-20.69,13.50,-0.06,0.12,2.56,63.70,3.96
28.00,0.00,238.75,18.69,-129.06,4.69,0.31,2.75,63.84,3.98
28.00,1.00,273.06,-9.31,-50.69,-3.25,2.44,0.19,63.84,3.98
28.00,2.00,268.69,-20.69,13.50,0.25,-0.69,1.44,63.84,3.98
28.00,0.00,238.62,18.75,-129.12,4.31,1.94,2.69,63.97,4.00
28.00,1.00,273.06,-9.38,-50.62,-1.69,3.62,-0.19,63.97,4.00
28.00,2.00,268.62,-20.69,13.50,0.31,-1.69,0.94,63.97,4.00
28.00,0.00,238.38,18.81,-129.19,4.81,2.31,3.69,64.04,4.02
28.00,1.00,273.06,-9.38,-50.56,-2.88,1.00,-0.25,64.04,4.02
28.00,2.00,268.62,-20.62,13.50,2.69,-1.62,0.31,64.04,4.02
28.00,0.00,238.19,18.94,-129.25,4.88,2.12,4.38,64.05,4.04
28.00,1.00,273.00,-9.44,-50.56,-2.06,1.50,-0.69,64.05,4.04
28.00,2.00,268.69,-20.62,13.44,4.38,0.12,-2.19,64.05,4.04
28.00,0.00,237.94,19.00,-129.31,4.88,1.75,4.50,64.11,4.06
28.00,1.00,273.00,-9.44,-50.50,-2.44,0.94,-0.50,64.11,4.06
28.00,2.00,268.75,-20.56,13.44,3.00,-1.38,-2.00,64.11,4.06
28.00,0.00,237.81,19.12,-129.38,4.25,1.62,4.06,64.17,4.08
28.00,1.00,273.00,-9.44,-50.44,-2.19,0.25,-0.38,64.17,4.08
28.00,2.00,268.81,-20.56,13.38,2.50,-1.56,-1.44,64.17,4.08
28.00,0.00,237.62,19.19,-129.38,3.38,1.75,3.81,64.21,4.10
28.00,1.00,273.00,-9.44,-50.44,-2.00,0.00,-0.38,64.21,4.10
28.00,2.00,268.81,-20.50,13.38,2.25,-1.75,-1.88,64.21,4.10
28.00,0.00,237.44,19.25,-129.44,2.88,1.88,4.00,64.22,4.12
28.00,1.00,273.00,-9.44,-50.38,-2.69,-1.25,-0.06,64.22,4.12
28.00,2.00,268.88,-20.44,13.31,2.31,-1.25,-1.75,64.22,4.12
28.00,0.00,237.19,19.38,-129.50,2.38,3.00,4.06,64.23,4.14
28.00,1.00,273.00,-9.44,-50.31,-2.31,-0.81,-0.25,64.23,4.14
28.00,2.00,268.88,-20.44,13.31,2.06,-1.44,-0.94,64.23,4.14
28.00,0.00,236.94,19.50,-129.56,1.94,4.44,4.44,64.26,4.16
28.00,1.00,273.00,-9.38,-50.25,-2.06,-1.25,-0.19,64.26,4.16
28.00,2.00,268.88,-20.38,13.25,1.12,-2.25,0.38,64.26,4.16
28.00,0.00,236.62,19.62,-129.56,0.69,6.50,4.75,64.28,4.18
28.00,1.00,273.06,-9.38,-50.25,-2.31,-1.06,0.50,64.28,4.18
28.00,2.00,268.88,-20.38,13.25,-0.12,-1.69,0.44,64.28,4.18
28.00,0.00,236.25,19.81,-129.50,-0.31,7.94,5.19,64.31,4.20
28.00,1.00,273.00,-9.38,-50.19,-2.44,-0.94,0.75,64.31,4.20
28.00,2.00,268.88,-20.31,13.25,-1.25,-2.12,1.25,64.31,4.20
28.00,0.00,235.94,19.94,-129.50,-1.31,7.56,5.19,64.30,4.22
28.00,1.00,273.00,-9.38,-50.12,-2.31,0.12,0.56,64.30,4.22
28.00,2.00,268.81,-20.25,13.25,-0.75,-1.06,1.56,64.30,4.22
28.00,0.00,235.69,20.06,-129.44,-1.00,5.88,4.81,64.30,4.24
28.00,1.00,273.00,-9.38,-50.06,-2.56,0.69,-0.06,64.30,4.24
28.00,2.00,268.81,-20.25,13.31,-1.00,-1.38,1.44,64.30,4.24
28.00,0.00,235.50,20.19,-129.44,-0.94,3.81,3.81,64.28,4.26
28.00,1.00,273.00,-9.38,-50.06,-2.19,0.88,0.00,64.28,4.26
28.00,2.00,268.81,-20.25,13.31,-0.50,0.31,0.94,64.28,4.26
28.00,0.00,235.44,20.25,-129.44,-1.31,1.94,3.19,64.30,4.28
28.00,1.00,273.00,-9.38,-50.00,-2.38,1.56,-0.06,64.30,4.28
28.00,2.00,268.75,-20.25,13.31,-1.75,0.69,1.31,64.30,4.28
28.00,0.00,235.44,20.25,-129.38,-1.69,0.12,2.56,64.36,4.30
28.00,1.00,272.94,-9.44,-49.94,-2.88,2.06,0.31,64.36,4.30
28.00,2.00,268.69,-20.25,13.38,-3.62,0.44,2.25,64.36,4.30
28.00,0.00,235.50,20.25,-129.38,-1.50,-0.56,1.75,64.42,4.32
28.00,1.00,272.94,-9.44,-49.88,-2.69,1.75,0.44,64.42,4.32
28.00,2.00,268.69,-20.25,13.44,-3.50,1.38,2.38,64.42,4.32
28.00,0.00,235.56,20.25,-129.31,-1.50,-2.06,1.31,64.47,4.34
28.00,1.00,272.94,-9.50,-49.88,-2.81,2.25,0.06,64.47,4.34
28.00,2.00,268.62,-20.31,13.50,-2.88,2.12,2.00,64.47,4.34
28.00,0.00,235.69,20.19,-129.31,-0.75,-3.44,1.00,64.54,4.36
28.00,1.00,272.88,-9.50,-49.81,-2.62,2.62,-0.12,64.54,4.36
28.00,2.00,268.62,-20.31,13.50,-3.19,2.50,2.31,64.54,4.36
28.00,0.00,235.81,20.19,-129.38,-0.31,-4.25,1.00,64.63,4.38
28.00,1.00,272.88,-9.56,-49.75,-2.19,3.25,-0.12,64.63,4.38
28.00,2.00,268.50,-20.38,13.62,-3.12,2.25,2.88,64.63,4.38
28.00,0.00,235.94,20.12,-129.38,-0.31,-4.56,1.00,64.74,4.40
28.00,1.00,272.81,-9.56,-49.75,-2.31,3.25,-0.25,64.74,4.40
28.00,2.00,268.44,-20.44,13.69,-3.69,2.25,2.62,64.74,4.40
28.00,0.00,236.06,20.12,-129.38,-0.69,-3.94,1.19,64.81,4.42
28.00,1.00,272.81,-9.62,-49.69,-2.06,3.69,-0.19,64.81,4.42
28.00,2.00,268.44,-20.44,13.69,-2.75,2.50,1.88,64.81,4.42
28.00,0.00,236.19,20.06,-129.44,-1.12,-3.38,1.25,64.84,4.44
28.00,1.00,272.75,-9.69,-49.69,-2.50,3.44,-0.56,64.84,4.44
28.00,2.00,268.38,-20.50,13.75,-2.25,2.19,1.56,64.84,4.44
28.00,0.00,236.25,20.06,-129.38,-1.69,-2.69,1.56,64.85,4.46
28.00,1.00,272.75,-9.75,-49.62,-2.06,3.62,-1.25,64.85,4.46
28.00,2.00,268.38,-20.56,13.81,-2.06,2.12,1.56,64.85,4.46
28.00,0.00,236.31,20.06,-129.38,-1.31,-2.38,1.62,64.84,4.48
28.00,1.00,272.75,-9.81,-49.56,-2.44,3.19,-1.25,64.84,4.48
28.00,2.00,268.31,-20.56,13.81,-0.75,2.06,1.19,64.84,4.48
28.00,0.00,236.44,20.06,-129.44,-1.31,-3.56,1.75,64.81,4.50
28.00,1.00,272.69,-9.88,-49.56,-2.50,3.56,-1.69,64.81,4.50
28.00,2.00,268.31,-20.62,13.81,-0.56,2.38,1.38,64.81,4.50
28.00,0.00,236.56,20.00,-129.44,-1.81,-3.88,1.62,64.79,4.52
28.00,1.00,272.69,-9.94,-49.50,-2.69,3.12,-1.81,64.79,4.52
28.00,2.00,268.31,-20.62,13.81,-1.06,2.19,1.62,64.79,4.52
28.00,0.00,236.75,20.00,-129.38,-2.50,-3.94,1.12,64.76,4.54
28.00,1.00,272.69,-10.00,-49.44,-3.00,3.56,-1.94,64.76,4.54
28.00,2.00,268.25,-20.69,13.88,-1.75,1.94,1.88,64.76,4.54
28.00,0.00,236.94,19.94,-129.38,-2.81,-4.19,0.94,64.72,4.56
28.00,1.00,272.69,-10.06,-49.38,-3.50,3.94,-1.81,64.72,4.56
28.00,2.00,268.25,-20.75,13.88,-1.56,1.88,2.12,64.72,4.56
28.00,0.00,237.12,19.88,-129.38,-2.81,-4.69,0.88,64.67,4.58
28.00,1.00,272.69,-10.19,-49.31,-3.62,4.06,-1.75,64.67,4.58
28.00,2.00,268.19,-20.81,13.88,-1.19,2.12,2.06,64.67,4.58
28.00,0.00,237.31,19.88,-129.31,-2.25,-4.88,0.81,64.63,4.60
28.00,1.00,272.69,-10.25,-49.25,-3.50,4.12,-1.50,64.63,4.60
28.00,2.00,268.12,-20.81,13.94,-1.00,2.06,2.38,64.63,4.60
28.00,0.00,237.56,19.75,-129.31,-1.69,-5.00,0.50,64.63,4.62
28.00,1.00,272.69,-10.31,-49.19,-3.31,4.06,-1.12,64.63,4.62
28.00,2.00,268.12,-20.88,13.94,-1.44,1.94,2.62,64.63,4.62
28.00,0.00,237.75,19.69,-129.31,-1.81,-4.81,0.44,64.62,4.64
28.00,1.00,272.62,-10.38,-49.12,-3.56,3.81,-1.19,64.62,4.64
28.00,2.00,268.06,-20.94,13.94,-1.50,1.56,3.31,64.62,4.64
28.00,0.00,237.94,19.69,-129.31,-1.50,-4.31,0.06,64.61,4.66
28.00,1.00,272.62,-10.44,-49.06,-3.69,3.69,-1.00,64.61,4.66
28.00,2.00,268.00,-20.94,13.94,-1.25,1.12,3.12,64.61,4.66
28.00,0.00,238.06,19.62,-129.31,-1.44,-3.38,-0.56,64.62,4.68
28.00,1.00,272.62,-10.50,-49.00,-3.50,3.75,-1.25,64.62,4.68
28.00,2.00,267.94,-21.00,13.94,-1.94,1.00,3.56,64.62,4.68
28.00,0.00,238.19,19.56,-129.31,-1.00,-2.31,-0.31,64.64,4.70
28.00,1.00,272.56,-10.56,-48.94,-3.50,4.06,-1.25,64.64,4.70
28.00,2.00,267.81,-21.00,13.94,-1.44,0.94,3.62,64.64,4.70
28.00,0.00,238.25,19.56,-129.31,-0.56,-1.19,-0.19,64.68,4.72
28.00,1.00,272.56,-10.62,-48.88,-3.56,4.44,-1.44,64.68,4.72
28.00,2.00,267.75,-21.06,14.00,-1.81,1.00,3.81,64.68,4.72
28.00,0.00,238.25,19.56,-129.31,0.19,-0.50,-0.06,64.75,4.74
28.00,1.00,272.56,-10.69,-48.88,-3.38,4.31,-1.38,64.75,4.74
28.00,2.00,267.69,-21.06,14.00,-2.06,0.38,3.69,64.75,4.74
28.00,0.00,238.25,19.56,-129.31,0.56,0.88,0.00,64.83,4.76
28.00,1.00,272.56,-10.75,-48.81,-3.38,3.88,-1.31,64.83,4.76
28.00,2.00,267.62,-21.12,14.00,-1.88,0.12,2.81,64.83,4.76
28.00,0.00,238.25,19.56,-129.31,0.50,1.06,-0.25,64.89,4.78
28.00,1.00,272.50,-10.81,-48.75,-3.38,3.38,-1.25,64.89,4.78
28.00,2.00,267.56,-21.12,14.06,-1.62,1.06,2.38,64.89,4.78
28.00,0.00,238.19,19.56,-129.25,0.38,1.56,-0.75,64.97,4.80
28.00,1.00,272.50,-10.88,-48.69,-3.00,3.94,-1.31,64.97,4.80
28.00,2.00,267.50,-21.12,14.06,-1.88,0.88,2.44,64.97,4.80
28.00,0.00,238.19,19.56,-129.25,0.38,2.06,-0.69,65.06,4.82
28.00,1.00,272.50,-10.94,-48.62,-3.38,3.19,-0.31,65.06,4.82
28.00,2.00,267.44,-21.19,14.12,-2.75,-0.06,2.69,65.06,4.82
28.00,0.00,238.12,19.56,-129.25,0.81,1.81,-0.62,65.18,4.84
28.00,1.00,272.44,-11.00,-48.56,-3.75,2.31,0.12,65.18,4.84
28.00,2.00,267.38,-21.19,14.12,-2.94,-0.69,2.88,65.18,4.84
28.00,0.00,238.06,19.62,-129.19,0.56,2.62,-0.81,65.29,4.86
28.00,1.00,272.44,-11.00,-48.50,-3.19,2.50,0.50,65.29,4.86
28.00,2.00,267.31,-21.19,14.19,-2.69,-0.31,2.88,65.29,4.86
28.00,0.00,238.00,19.62,-129.19,0.50,2.81,-0.88,65.39,4.88
28.00,1.00,272.38,-11.06,-48.44,-2.75,3.06,0.19,65.39,4.88
28.00,2.00,267.25,-21.19,14.25,-2.88,-0.19,2.62,65.39,4.88
28.00,0.00,237.94,19.62,-129.12,0.50,3.88,-1.56,65.47,4.90
28.00,1.00,272.38,-11.06,-48.44,-2.25,3.25,-0.12,65.47,4.90
28.00,2.00,267.19,-21.19,14.31,-1.75,-0.19,1.69,65.47,4.90
28.00,0.00,237.81,19.62,-129.06,0.44,5.44,-1.69,65.54,4.92
28.00,1.00,272.31,-11.12,-48.38,-2.81,2.00,0.38,65.54,4.92
28.00,2.00,267.19,-21.25,14.38,-1.75,0.75,1.62,65.54,4.92
28.00,0.00,237.69,19.69,-128.94,-0.81,7.44,-1.06,65.63,4.94
28.00,1.00,272.31,-11.12,-48.31,-2.62,1.94,0.56,65.63,4.94
28.00,2.00,267.12,-21.25,14.38,-3.62,0.50,1.50,65.63,4.94
28.00,0.00,237.50,19.75,-128.88,-1.50,6.50,-2.56,65.69,4.96
28.00,1.00,272.31,-11.19,-48.25,-2.88,1.50,0.38,65.69,4.96
28.00,2.00,267.06,-21.25,14.50,-3.50,0.56,1.50,65.69,4.96
28.00,0.00,237.56,19.69,-128.88,0.00,-2.31,-1.56,65.81,4.98
28.00,1.00,272.25,-11.19,-48.19,-3.19,1.44,0.56,65.81,4.98
28.00,2.00,267.06,-21.31,14.56,-3.69,0.94,1.25,65.81,4.98
28.00,0.00,237.88,19.56,-128.88,-1.00,-7.38,-3.81,65.85,5.00
28.00,1.00,272.25,-11.25,-48.12,-2.69,1.31,0.12,65.85,5.00
28.00,2.00,267.06,-21.31,14.69,-2.44,1.31,0.38,65.85,5.00
28.00,0.00,238.19,19.44,-128.88,-1.06,-6.00,-2.44,65.86,5.02
28.00,1.00,272.25,-11.25,-48.12,-2.38,1.50,-0.44,65.86,5.02
28.00,2.00,267.06,-21.38,14.75,-1.38,1.88,-0.19,65.86,5.02
28.00,0.00,238.38,19.38,-128.81,-0.75,-2.69,-1.69,65.88,5.04
28.00,1.00,272.25,-11.25,-48.06,-2.81,1.31,-0.25,65.88,5.04
28.00,2.00,267.06,-21.38,14.81,-1.19,2.75,-0.25,65.88,5.04
28.00,0.00,238.50,19.31,-128.81,-0.81,-2.12,-1.31,65.91,5.06
28.00,1.00,272.25,-11.31,-48.00,-2.94,1.31,-0.81,65.91,5.06
28.00,2.00,267.06,-21.44,14.88,-1.88,1.94,-0.19,65.91,5.06
28.00,0.00,238.50,19.31,-128.81,-0.75,-2.12,-1.75,65.95,5.08
28.00,1.00,272.25,-11.31,-47.94,-2.56,0.94,-0.81,65.95,5.08
28.00,2.00,267.06,-21.44,14.94,-1.88,0.81,0.06,65.95,5.08
28.00,0.00,238.75,19.25,-128.81,-0.50,-3.19,-1.69,65.96,5.10
28.00,1.00,272.25,-11.38,-47.94,-1.38,0.31,-0.94,65.96,5.10
28.00,2.00,267.06,-21.50,15.00,-0.94,1.44,-1.12,65.96,5.10
28.00,0.00,238.81,19.19,-128.81,0.25,-2.31,-0.62,66.01,5.12
28.00,1.00,272.25,-11.38,-47.88,-1.19,-0.12,-0.62,66.01,5.12
28.00,2.00,267.12,-21.50,15.06,-1.44,0.25,-1.19,66.01,5.12
28.00,0.00,238.88,19.19,-128.81,0.12,-1.44,-0.38,66.06,5.14
28.00,1.00,272.25,-11.44,-47.88,-0.44,-1.06,-0.12,66.06,5.14
28.00,2.00,267.12,-21.50,15.12,-1.25,-0.44,-1.75,66.06,5.14
28.00,0.00,238.94,19.12,-128.75,-0.50,2.06,-0.12,66.04,5.16
28.00,1.00,272.31,-11.44,-47.81,-0.38,-2.19,-0.19,66.04,5.16
28.00,2.00,267.19,-21.50,15.19,0.19,-0.06,-2.19,66.04,5.16
28.00,0.00,238.94,19.19,-128.69,-1.12,1.81,-0.31,65.96,5.18
28.00,1.00,272.31,-11.44,-47.81,-0.06,-2.25,-0.06,65.96,5.18
28.00,2.00,267.19,-21.50,15.19,1.31,0.50,-3.00,65.96,5.18
28.00,0.00,239.00,19.12,-128.56,-2.12,-0.12,-1.25,65.85,5.20
28.00,1.00,272.38,-11.38,-47.81,0.44,-3.44,0.00,65.85,5.20
28.00,2.00,267.31,-21.50,15.25,1.19,0.00,-3.56,65.85,5.20
28.00,0.00,239.12,19.12,-128.50,-2.12,0.50,-1.25,65.72,5.22
28.00,1.00,272.38,-11.38,-47.81,0.50,-4.00,-0.06,65.72,5.22
28.00,2.00,267.44,-21.44,15.31,2.19,0.00,-4.31,65.72,5.22
28.00,0.00,239.06,19.12,-128.38,-1.25,3.25,0.25,65.59,5.24
28.00,1.00,272.44,-11.31,-47.81,1.25,-4.00,0.12,65.59,5.24
28.00,2.00,267.50,-21.44,15.31,2.75,0.69,-5.25,65.59,5.24
28.00,0.00,238.94,19.25,-128.31,-1.69,5.38,0.94,65.49,5.26
28.00,1.00,272.50,-11.25,-47.81,1.44,-4.94,0.25,65.49,5.26
28.00,2.00,267.69,-21.44,15.38,1.50,-0.50,-5.94,65.49,5.26
28.00,0.00,238.69,19.31,-128.19,-1.75,6.75,1.31,65.37,5.28
28.00,1.00,272.56,-11.19,-47.81,1.75,-4.94,0.50,65.37,5.28
28.00,2.00,267.75,-21.38,15.38,1.94,-0.81,-6.62,65.37,5.28
