Iteration,IMUNo,OrientationX (deg),OrientationY,OrientationZ,GyroX (20rad/sec),GyroY,GyroZ,Elbow_Pos (rad),Time (sec)
4.00,0.00,274.19,0.19,-101.38,-0.94,1.56,-2.31,0.03,1.00
4.00,1.00,272.38,-4.19,-52.38,-0.44,1.56,0.62,0.03,1.00
4.00,2.00,284.62,-18.50,18.38,-2.06,0.06,2.38,0.03,1.00
4.00,0.00,274.19,0.19,-101.38,-1.19,1.81,-2.19,0.04,1.02
4.00,1.00,272.38,-4.25,-52.38,-0.06,1.31,0.12,0.04,1.02
4.00,2.00,284.56,-18.56,18.44,-1.56,0.56,2.38,0.04,1.02
4.00,0.00,274.19,0.12,-101.31,-1.50,1.75,-1.75,0.00,1.04
4.00,1.00,272.31,-4.25,-52.38,0.81,1.25,-0.38,0.00,1.04
4.00,2.00,284.50,-18.56,18.50,0.19,1.25,0.88,0.00,1.04
4.00,0.00,274.19,0.12,-101.31,-1.88,1.19,-1.25,-0.10,1.06
4.00,1.00,272.38,-4.31,-52.44,0.94,0.88,-0.69,-0.10,1.06
4.00,2.00,284.56,-18.62,18.50,1.69,2.06,-0.31,-0.10,1.06
4.00,0.00,274.19,0.12,-101.25,-2.06,0.06,-0.81,-0.20,1.08
4.00,1.00,272.38,-4.31,-52.44,0.88,0.75,-0.88,-0.20,1.08
4.00,2.00,284.56,-18.62,18.44,1.88,1.81,-1.06,-0.20,1.08
4.00,0.00,274.19,0.12,-101.19,-2.56,-0.94,-0.44,-0.29,1.10
4.00,1.00,272.38,-4.38,-52.44,-0.06,0.06,-0.94,-0.29,1.10
4.00,2.00,284.62,-18.69,18.44,1.00,1.69,-1.19,-0.29,1.10
4.00,0.00,274.25,0.06,-101.12,-3.25,-2.31,-0.44,-0.35,1.12
4.00,1.00,272.44,-4.38,-52.44,-0.88,-0.31,-1.12,-0.35,1.12
4.00,2.00,284.62,-18.75,18.44,-0.75,0.94,-1.06,-0.35,1.12
4.00,0.00,274.31,0.06,-101.06,-3.50,-2.81,-0.38,-0.40,1.14
4.00,1.00,272.44,-4.44,-52.44,-0.94,-0.62,-1.00,-0.40,1.14
4.00,2.00,284.62,-18.75,18.50,-1.69,0.06,-1.00,-0.40,1.14
4.00,0.00,274.38,0.06,-101.00,-3.62,-1.88,-0.06,-0.45,1.16
4.00,1.00,272.50,-4.44,-52.44,-0.69,-1.19,-1.06,-0.45,1.16
4.00,2.00,284.62,-18.75,18.56,-1.69,0.25,-1.12,-0.45,1.16
4.00,0.00,274.44,0.06,-100.94,-3.56,-0.75,0.81,-0.51,1.18
4.00,1.00,272.56,-4.44,-52.38,-1.06,-2.56,-1.44,-0.51,1.18
4.00,2.00,284.69,-18.75,18.62,-1.06,0.19,-1.56,-0.51,1.18
4.00,0.00,274.38,0.12,-100.88,-2.81,0.25,2.00,-0.59,1.20
4.00,1.00,272.62,-4.44,-52.38,-0.75,-3.06,-1.56,-0.59,1.20
4.00,2.00,284.69,-18.75,18.62,0.31,0.75,-2.62,-0.59,1.20
4.00,0.00,274.31,0.12,-100.88,-2.12,0.81,2.75,-0.68,1.22
4.00,1.00,272.62,-4.44,-52.38,-0.44,-3.88,-1.69,-0.68,1.22
4.00,2.00,284.81,-18.75,18.62,1.25,0.19,-3.69,-0.68,1.22
4.00,0.00,274.25,0.19,-100.81,-1.50,0.12,2.81,-0.78,1.24
4.00,1.00,272.75,-4.44,-52.38,-0.44,-4.56,-2.25,-0.78,1.24
4.00,2.00,284.88,-18.69,18.62,2.44,-0.12,-4.62,-0.78,1.24
4.00,0.00,274.25,0.25,-100.81,-1.69,-1.19,2.56,-0.89,1.26
4.00,1.00,272.81,-4.44,-52.38,-0.50,-4.00,-2.38,-0.89,1.26
4.00,2.00,285.00,-18.69,18.62,2.62,-0.19,-4.69,-0.89,1.26
4.00,0.00,274.31,0.25,-100.81,-1.56,-2.94,2.38,-0.98,1.28
4.00,1.00,272.94,-4.44,-52.38,-0.44,-3.88,-2.25,-0.98,1.28
4.00,2.00,285.06,-18.69,18.62,2.06,0.44,-4.00,-0.98,1.28
4.00,0.00,274.31,0.25,-100.81,-0.94,-3.25,2.12,-1.06,1.30
4.00,1.00,273.00,-4.38,-52.31,-0.25,-4.00,-2.00,-1.06,1.30
4.00,2.00,285.12,-18.62,18.56,1.94,0.25,-3.31,-1.06,1.30
4.00,0.00,274.38,0.31,-100.81,-0.62,-3.06,2.31,-1.14,1.32
4.00,1.00,273.06,-4.38,-52.31,0.38,-1.81,-1.69,-1.14,1.32
4.00,2.00,285.19,-18.62,18.56,2.69,-0.44,-3.12,-1.14,1.32
4.00,0.00,274.38,0.38,-100.88,-0.44,-2.50,3.12,-1.20,1.34
4.00,1.00,273.06,-4.38,-52.38,0.88,-0.44,-0.69,-1.20,1.34
4.00,2.00,285.31,-18.62,18.50,2.00,-1.19,-4.31,-1.20,1.34
4.00,0.00,274.31,0.44,-100.88,0.56,-0.94,5.06,-1.20,1.36
4.00,1.00,273.06,-4.38,-52.38,0.69,-0.44,-0.06,-1.20,1.36
4.00,2.00,285.38,-18.56,18.50,0.31,-2.25,-3.00,-1.20,1.36
4.00,0.00,274.12,0.56,-100.94,3.31,3.12,6.12,-1.15,1.38
4.00,1.00,273.12,-4.38,-52.38,0.25,-0.81,0.00,-1.15,1.38
4.00,2.00,285.38,-18.50,18.50,1.62,-1.12,-0.56,-1.15,1.38
4.00,0.00,273.81,0.69,-101.00,5.56,8.38,6.69,-1.01,1.40
4.00,1.00,273.12,-4.38,-52.38,0.62,0.12,0.50,-1.01,1.40
4.00,2.00,285.31,-18.50,18.44,0.00,-1.31,2.38,-1.01,1.40
4.00,0.00,273.31,1.00,-101.38,7.19,12.06,8.00,-0.74,1.42
4.00,1.00,273.06,-4.38,-52.38,0.69,1.25,1.12,-0.74,1.42
4.00,2.00,285.19,-18.50,18.50,-3.56,-2.06,5.44,-0.74,1.42
4.00,0.00,272.69,1.31,-101.81,9.88,13.19,10.38,-0.40,1.44
4.00,1.00,273.00,-4.38,-52.38,1.44,2.31,2.19,-0.40,1.44
4.00,2.00,285.06,-18.50,18.50,-3.44,-3.31,6.88,-0.40,1.44
4.00,0.00,272.12,1.62,-102.06,13.88,13.56,13.56,-0.03,1.46
4.00,1.00,273.00,-4.38,-52.38,1.31,1.69,1.94,-0.03,1.46
4.00,2.00,284.94,-18.50,18.44,-0.31,-1.38,7.75,-0.03,1.46
4.00,0.00,271.50,1.94,-102.44,18.31,14.25,15.25,0.38,1.48
4.00,1.00,272.94,-4.38,-52.44,2.19,1.75,1.56,0.38,1.48
4.00,2.00,284.75,-18.56,18.38,2.06,0.38,8.06,0.38,1.48
4.00,0.00,270.81,2.31,-102.81,21.81,14.12,15.12,0.89,1.50
4.00,1.00,272.88,-4.38,-52.50,2.00,3.62,1.31,0.89,1.50
4.00,2.00,284.56,-18.62,18.31,2.19,0.12,9.75,0.89,1.50
4.00,0.00,270.19,2.62,-103.25,23.50,12.19,13.88,1.48,1.52
4.00,1.00,272.81,-4.38,-52.50,2.62,4.62,2.12,1.48,1.52
4.00,2.00,284.38,-18.69,18.19,0.31,-0.62,11.31,1.48,1.52
4.00,0.00,269.69,2.94,-103.75,25.12,7.81,13.19,2.17,1.54
4.00,1.00,272.75,-4.38,-52.56,3.06,4.88,2.88,2.17,1.54
4.00,2.00,284.12,-18.75,18.12,-1.62,-1.19,13.31,2.17,1.54
4.00,0.00,269.31,3.19,-104.25,28.19,2.75,12.50,2.93,1.56
4.00,1.00,272.62,-4.44,-52.62,2.44,4.56,2.69,2.93,1.56
4.00,2.00,283.81,-18.81,18.06,-1.50,0.56,14.00,2.93,1.56
4.00,0.00,269.00,3.38,-104.88,31.44,-0.50,11.88,3.77,1.58
4.00,1.00,272.56,-4.44,-52.69,2.69,6.56,2.75,3.77,1.58
4.00,2.00,283.56,-18.94,18.00,-1.31,2.06,14.88,3.77,1.58
4.00,0.00,268.81,3.62,-105.50,34.25,-2.25,11.00,4.73,1.60
4.00,1.00,272.44,-4.44,-52.75,2.50,6.75,3.19,4.73,1.60
4.00,2.00,283.25,-19.06,18.00,-3.56,0.88,16.44,4.73,1.60
4.00,0.00,268.69,3.75,-106.25,37.19,-4.31,11.00,5.77,1.62
4.00,1.00,272.31,-4.50,-52.81,3.38,6.25,3.88,5.77,1.62
4.00,2.00,282.94,-19.19,17.94,-3.25,0.44,16.38,5.77,1.62
4.00,0.00,268.56,3.94,-107.00,38.44,-7.56,10.88,6.79,1.64
4.00,1.00,272.12,-4.50,-52.88,3.25,7.75,3.44,6.79,1.64
4.00,2.00,282.62,-19.31,17.88,-1.31,0.69,15.94,6.79,1.64
4.00,0.00,268.44,4.12,-107.75,37.88,-5.50,11.38,7.76,1.66
4.00,1.00,272.06,-4.56,-53.00,3.25,6.88,2.56,7.76,1.66
4.00,2.00,282.31,-19.38,17.75,0.00,0.88,15.94,7.76,1.66
4.00,0.00,268.19,4.31,-108.44,35.38,1.12,10.94,8.66,1.68
4.00,1.00,271.94,-4.62,-53.06,3.31,7.44,1.94,8.66,1.68
4.00,2.00,282.00,-19.50,17.69,0.31,1.12,16.25,8.66,1.68
4.00,0.00,267.81,4.50,-109.12,34.75,5.12,10.00,9.54,1.70
4.00,1.00,271.81,-4.69,-53.12,3.31,7.81,1.81,9.54,1.70
4.00,2.00,281.62,-19.62,17.56,0.12,-0.94,17.31,9.54,1.70
4.00,0.00,267.31,4.75,-109.75,33.62,9.44,8.94,10.34,1.72
4.00,1.00,271.69,-4.75,-53.19,3.00,7.25,1.88,10.34,1.72
4.00,2.00,281.31,-19.69,17.44,2.50,-2.00,18.19,10.34,1.72
4.00,0.00,266.69,5.00,-110.44,35.25,12.06,10.94,11.17,1.74
4.00,1.00,271.62,-4.81,-53.25,2.44,8.12,1.12,11.17,1.74
4.00,2.00,280.94,-19.75,17.25,3.06,-0.56,18.88,11.17,1.74
4.00,0.00,266.00,5.31,-111.12,37.38,11.38,12.75,12.13,1.76
4.00,1.00,271.50,-4.88,-53.31,2.25,9.19,1.75,12.13,1.76
4.00,2.00,280.56,-19.88,17.06,-0.06,-0.25,20.19,12.13,1.76
4.00,0.00,265.38,5.62,-111.88,37.56,9.56,12.62,13.19,1.78
4.00,1.00,271.38,-4.94,-53.38,3.00,9.00,3.00,13.19,1.78
4.00,2.00,280.12,-20.00,17.00,-4.12,-2.50,21.88,13.19,1.78
4.00,0.00,264.81,5.88,-112.56,34.44,9.56,9.12,14.18,1.80
4.00,1.00,271.19,-5.00,-53.44,1.25,9.19,3.31,14.18,1.80
4.00,2.00,279.69,-20.06,16.94,-4.06,-1.44,21.69,14.18,1.80
4.00,0.00,264.25,6.06,-113.12,29.75,10.50,6.12,15.04,1.82
4.00,1.00,271.06,-5.06,-53.50,1.81,9.06,3.06,15.04,1.82
4.00,2.00,279.31,-20.19,16.88,-3.62,1.38,20.19,15.04,1.82
4.00,0.00,263.81,6.25,-113.69,28.88,5.81,6.19,15.97,1.84
4.00,1.00,270.88,-5.12,-53.56,1.19,10.38,3.31,15.97,1.84
4.00,2.00,278.88,-20.38,16.88,-7.69,3.75,19.62,15.97,1.84
4.00,0.00,263.50,6.38,-114.25,30.00,0.44,7.62,17.05,1.86
4.00,1.00,270.75,-5.19,-53.56,-0.25,11.62,3.44,17.05,1.86
4.00,2.00,278.50,-20.56,16.94,-11.94,2.94,20.00,17.05,1.86
4.00,0.00,263.31,6.44,-114.81,30.31,-1.62,5.81,18.17,1.88
4.00,1.00,270.56,-5.25,-53.62,-0.94,11.19,3.69,18.17,1.88
4.00,2.00,278.00,-20.62,17.06,-13.50,-0.94,21.06,18.17,1.88
4.00,0.00,263.19,6.50,-115.44,30.00,-2.94,3.00,19.20,1.90
4.00,1.00,270.38,-5.38,-53.62,0.38,9.44,2.12,19.20,1.90
4.00,2.00,277.56,-20.75,17.12,-10.44,-0.69,19.94,19.20,1.90
4.00,0.00,263.12,6.50,-116.00,29.44,-4.81,2.25,20.08,1.92
4.00,1.00,270.31,-5.44,-53.62,0.25,8.94,0.88,20.08,1.92
4.00,2.00,277.25,-20.88,17.12,-4.75,2.81,16.44,20.08,1.92
4.00,0.00,263.12,6.50,-116.56,28.69,-6.25,2.88,20.87,1.94
4.00,1.00,270.19,-5.50,-53.62,-0.31,8.44,0.56,20.87,1.94
4.00,2.00,276.94,-21.06,17.06,-2.00,4.19,14.69,20.87,1.94
4.00,0.00,263.12,6.50,-117.19,28.81,-5.31,4.00,21.69,1.96
4.00,1.00,270.12,-5.62,-53.69,-0.56,9.69,-0.50,21.69,1.96
4.00,2.00,276.62,-21.19,17.00,-3.44,3.56,16.88,21.69,1.96
4.00,0.00,263.00,6.56,-117.69,28.06,-1.06,3.94,22.54,1.98
4.00,1.00,270.06,-5.75,-53.69,-0.75,10.25,-1.19,22.54,1.98
4.00,2.00,276.25,-21.38,17.00,-4.94,1.88,18.88,22.54,1.98
4.00,0.00,262.75,6.62,-118.25,26.00,3.88,2.81,23.34,2.00
4.00,1.00,269.94,-5.88,-53.69,-0.38,11.94,-0.38,23.34,2.00
4.00,2.00,275.88,-21.50,16.94,-5.25,0.12,20.56,23.34,2.00
4.00,0.00,262.62,6.69,-118.44,24.31,4.50,2.19,24.12,2.02
4.00,1.00,269.81,-6.06,-53.69,-1.25,11.12,0.44,24.12,2.02
4.00,2.00,275.44,-21.62,16.88,-6.12,-0.69,20.81,24.12,2.02
4.00,0.00,262.25,6.81,-119.12,25.25,3.94,4.81,24.98,2.04
4.00,1.00,269.69,-6.19,-53.69,-1.38,12.94,1.31,24.98,2.04
4.00,2.00,274.94,-21.69,16.88,-8.25,-1.12,21.94,24.98,2.04
4.00,0.00,261.88,6.94,-119.62,27.31,3.19,7.12,25.94,2.06
4.00,1.00,269.50,-6.25,-53.62,-2.19,11.81,2.69,25.94,2.06
4.00,2.00,274.50,-21.81,16.88,-10.12,-2.00,22.75,25.94,2.06
4.00,0.00,261.81,7.00,-119.94,26.69,2.69,5.50,26.90,2.08
4.00,1.00,269.31,-6.38,-53.62,-1.50,12.69,3.50,26.90,2.08
4.00,2.00,274.00,-21.88,16.94,-10.94,-3.44,22.38,26.90,2.08
4.00,0.00,261.50,7.12,-120.38,24.75,1.69,3.56,27.76,2.10
4.00,1.00,269.12,-6.44,-53.62,-1.25,12.31,3.19,27.76,2.10
4.00,2.00,273.56,-21.94,16.94,-8.69,-1.81,20.81,27.76,2.10
4.00,0.00,261.38,7.12,-120.81,22.06,2.19,2.75,28.50,2.12
4.00,1.00,268.94,-6.56,-53.62,-1.56,11.44,3.56,28.50,2.12
4.00,2.00,273.12,-22.06,16.94,-7.12,0.38,19.12,28.50,2.12
4.00,0.00,261.31,7.12,-121.12,22.00,0.25,3.62,29.32,2.14
4.00,1.00,268.75,-6.62,-53.62,-1.62,12.25,3.81,29.32,2.14
4.00,2.00,272.69,-22.19,16.94,-9.81,-0.75,20.06,29.32,2.14
4.00,0.00,261.19,7.19,-121.50,23.25,-2.25,5.31,30.24,2.16
4.00,1.00,268.56,-6.69,-53.62,-3.12,12.38,4.81,30.24,2.16
4.00,2.00,272.25,-22.25,17.00,-12.56,-3.38,21.06,30.24,2.16
4.00,0.00,261.25,7.25,-122.00,23.44,-2.75,5.06,31.16,2.18
4.00,1.00,268.38,-6.75,-53.56,-3.44,11.69,5.38,31.16,2.18
4.00,2.00,271.81,-22.25,17.12,-12.56,-5.56,20.75,31.16,2.18
4.00,0.00,261.19,7.25,-122.38,20.69,-2.69,2.69,31.93,2.20
4.00,1.00,268.12,-6.81,-53.56,-4.31,10.12,5.38,31.93,2.20
4.00,2.00,271.38,-22.25,17.12,-9.44,-5.38,18.75,31.93,2.20
4.00,0.00,261.12,7.25,-122.81,20.00,-2.19,2.50,32.62,2.22
4.00,1.00,267.94,-6.88,-53.50,-3.06,10.19,4.81,32.62,2.22
4.00,2.00,271.00,-22.25,17.12,-7.00,-3.94,16.19,32.62,2.22
4.00,0.00,261.00,7.31,-123.19,18.81,0.12,4.19,33.28,2.24
4.00,1.00,267.75,-6.94,-53.44,-4.19,9.06,5.00,33.28,2.24
4.00,2.00,270.62,-22.31,17.12,-6.69,-3.75,16.06,33.28,2.24
4.00,0.00,260.81,7.38,-123.50,17.62,2.25,4.50,33.91,2.26
4.00,1.00,267.56,-6.94,-53.38,-2.81,9.62,5.50,33.91,2.26
4.00,2.00,270.31,-22.31,17.19,-7.31,-7.44,16.25,33.91,2.26
4.00,0.00,260.56,7.50,-123.81,16.88,3.00,4.38,34.47,2.28
4.00,1.00,267.38,-7.00,-53.38,-2.94,8.88,4.56,34.47,2.28
4.00,2.00,269.94,-22.25,17.12,-4.75,-6.69,15.75,34.47,2.28
4.00,0.00,260.19,7.62,-124.19,18.50,5.25,6.31,34.99,2.30
4.00,1.00,267.25,-7.06,-53.31,-4.00,6.75,4.06,34.99,2.30
4.00,2.00,269.62,-22.19,17.06,-2.00,-5.19,12.25,34.99,2.30
4.00,0.00,259.75,7.81,-124.50,18.31,6.75,6.56,35.52,2.32
4.00,1.00,267.12,-7.12,-53.25,-1.62,9.06,3.44,35.52,2.32
4.00,2.00,269.38,-22.19,17.00,-2.06,-4.50,11.69,35.52,2.32
4.00,0.00,259.31,7.94,-124.75,16.44,7.06,6.19,36.01,2.34
4.00,1.00,266.94,-7.12,-53.25,-2.44,7.50,3.25,36.01,2.34
4.00,2.00,269.12,-22.19,16.94,-2.88,-4.31,11.81,36.01,2.34
4.00,0.00,258.88,8.12,-125.00,15.81,5.81,7.31,36.49,2.36
4.00,1.00,266.81,-7.19,-53.19,-2.38,7.50,3.25,36.49,2.36
4.00,2.00,268.88,-22.12,16.94,-2.94,-5.38,12.06,36.49,2.36
4.00,0.00,258.50,8.25,-125.25,16.44,4.81,7.94,36.96,2.38
4.00,1.00,266.69,-7.25,-53.19,-2.31,7.38,3.06,36.96,2.38
4.00,2.00,268.62,-22.12,16.88,-1.94,-5.19,11.25,36.96,2.38
4.00,0.00,258.12,8.44,-125.62,17.19,1.94,8.00,37.45,2.40
4.00,1.00,266.56,-7.31,-53.19,-1.75,8.50,2.38,37.45,2.40
4.00,2.00,268.44,-22.06,16.81,-2.06,-4.38,11.19,37.45,2.40
4.00,0.00,257.94,8.50,-125.81,16.25,0.88,7.25,37.94,2.42
4.00,1.00,266.44,-7.38,-53.12,-3.12,7.19,2.56,37.94,2.42
4.00,2.00,268.19,-22.06,16.81,-2.81,-4.44,11.38,37.94,2.42
4.00,0.00,257.88,8.50,-126.06,14.31,-1.06,5.00,38.41,2.44
4.00,1.00,266.31,-7.38,-53.12,-3.00,8.06,2.94,38.41,2.44
4.00,2.00,267.94,-22.00,16.75,-3.81,-4.06,12.00,38.41,2.44
4.00,0.00,257.88,8.50,-126.31,13.00,-4.00,4.00,38.88,2.46
4.00,1.00,266.12,-7.44,-53.06,-2.81,8.81,2.75,38.88,2.46
4.00,2.00,267.62,-22.00,16.75,-5.31,-5.06,13.06,38.88,2.46
4.00,0.00,258.00,8.50,-126.56,11.12,-5.06,2.25,39.30,2.48
4.00,1.00,266.00,-7.50,-53.06,-2.69,9.00,2.75,39.30,2.48
4.00,2.00,267.31,-22.00,16.75,-5.31,-5.50,13.62,39.30,2.48
4.00,0.00,258.12,8.44,-126.69,9.38,-5.25,0.94,39.66,2.50
4.00,1.00,265.88,-7.56,-53.00,-2.88,8.38,2.88,39.66,2.50
4.00,2.00,267.06,-21.94,16.75,-4.69,-4.94,12.25,39.66,2.50
4.00,0.00,258.31,8.38,-126.88,10.31,-6.06,2.56,40.02,2.52
4.00,1.00,265.75,-7.62,-52.94,-3.81,7.44,3.38,40.02,2.52
4.00,2.00,266.81,-21.88,16.75,-3.94,-5.94,12.06,40.02,2.52
4.00,0.00,258.56,8.38,-127.12,9.19,-4.56,2.75,40.35,2.54
4.00,1.00,265.56,-7.62,-52.94,-3.06,7.62,3.00,40.35,2.54
4.00,2.00,266.56,-21.88,16.69,-3.50,-4.94,12.56,40.35,2.54
4.00,0.00,258.50,8.38,-127.25,8.38,-1.44,2.31,40.67,2.56
4.00,1.00,265.44,-7.69,-52.88,-2.38,7.38,2.94,40.67,2.56
4.00,2.00,266.25,-21.81,16.69,-4.38,-4.50,12.75,40.67,2.56
4.00,0.00,258.38,8.44,-127.38,7.25,1.75,2.62,41.01,2.58
4.00,1.00,265.31,-7.75,-52.88,-3.19,8.12,3.25,41.01,2.58
4.00,2.00,266.00,-21.81,16.69,-5.81,-4.31,12.62,41.01,2.58
4.00,0.00,258.25,8.50,-127.44,5.31,2.81,3.06,41.30,2.60
4.00,1.00,265.12,-7.75,-52.81,-3.06,8.25,4.25,41.30,2.60
4.00,2.00,265.69,-21.75,16.75,-6.06,-5.69,12.62,41.30,2.60
4.00,0.00,258.06,8.56,-127.50,3.44,2.94,2.00,41.50,2.62
4.00,1.00,265.00,-7.81,-52.75,-4.12,8.75,3.75,41.50,2.62
4.00,2.00,265.44,-21.75,16.75,-4.50,-4.62,11.69,41.50,2.62
4.00,0.00,258.00,8.56,-127.50,3.62,1.75,0.50,41.69,2.64
4.00,1.00,264.81,-7.88,-52.69,-3.81,8.62,3.69,41.69,2.64
4.00,2.00,265.19,-21.75,16.69,-3.50,-4.19,11.50,41.69,2.64
4.00,0.00,258.00,8.56,-127.62,5.50,-0.62,0.81,41.89,2.66
4.00,1.00,264.69,-7.94,-52.62,-3.94,8.38,3.38,41.89,2.66
4.00,2.00,264.94,-21.69,16.69,-2.56,-3.44,11.94,41.89,2.66
4.00,0.00,258.06,8.56,-127.69,5.94,-1.94,1.19,42.16,2.68
4.00,1.00,264.50,-8.00,-52.62,-3.69,9.75,3.38,42.16,2.68
4.00,2.00,264.69,-21.69,16.69,-4.31,-2.56,12.56,42.16,2.68
4.00,0.00,258.12,8.50,-127.75,4.81,-1.69,0.38,42.43,2.70
4.00,1.00,264.38,-8.00,-52.56,-4.44,8.88,3.62,42.43,2.70
4.00,2.00,264.44,-21.69,16.69,-5.75,-2.94,12.69,42.43,2.70
4.00,0.00,258.12,8.50,-127.75,2.06,0.62,-0.56,42.63,2.72
4.00,1.00,264.19,-8.06,-52.50,-4.00,9.56,3.56,42.63,2.72
4.00,2.00,264.19,-21.69,16.75,-5.75,-3.19,12.50,42.63,2.72
4.00,0.00,258.12,8.50,-127.75,1.25,1.06,-2.06,42.76,2.74
4.00,1.00,264.06,-8.12,-52.44,-4.00,8.38,2.94,42.76,2.74
4.00,2.00,263.94,-21.69,16.81,-4.12,-2.19,11.69,42.76,2.74
4.00,0.00,258.12,8.44,-127.81,3.19,0.06,-0.75,42.96,2.76
4.00,1.00,263.88,-8.19,-52.38,-4.62,7.56,2.94,42.96,2.76
4.00,2.00,263.69,-21.69,16.81,-4.31,-2.81,11.25,42.96,2.76
4.00,0.00,258.19,8.44,-127.88,5.25,-0.81,0.81,43.19,2.78
4.00,1.00,263.75,-8.25,-52.31,-2.06,8.69,3.00,43.19,2.78
4.00,2.00,263.44,-21.69,16.88,-3.88,-4.00,10.75,43.19,2.78
4.00,0.00,258.12,8.44,-127.94,5.56,-0.62,2.25,43.39,2.80
4.00,1.00,263.62,-8.31,-52.31,-3.75,6.56,2.62,43.39,2.80
4.00,2.00,263.25,-21.62,16.88,-2.38,-3.06,10.12,43.39,2.80
4.00,0.00,258.06,8.50,-128.00,2.25,1.12,0.56,43.50,2.82
4.00,1.00,263.50,-8.38,-52.25,-3.94,7.25,2.56,43.50,2.82
4.00,2.00,263.06,-21.62,16.88,-1.81,-2.81,9.56,43.50,2.82
4.00,0.00,258.25,8.50,-128.00,-0.94,3.00,-3.31,43.52,2.84
4.00,1.00,263.38,-8.44,-52.19,-2.81,7.62,2.06,43.52,2.84
4.00,2.00,262.88,-21.62,16.88,-1.81,-2.31,9.00,43.52,2.84
4.00,0.00,258.25,8.44,-128.00,0.88,2.31,-3.38,43.61,2.86
4.00,1.00,263.31,-8.44,-52.12,-4.31,5.50,2.31,43.61,2.86
4.00,2.00,262.69,-21.62,16.88,-2.56,-2.38,8.75,43.61,2.86
4.00,0.00,258.38,8.44,-128.06,4.75,0.31,1.12,43.81,2.88
4.00,1.00,263.19,-8.50,-52.06,-3.94,6.44,2.00,43.81,2.88
4.00,2.00,262.50,-21.62,16.88,-3.00,-2.75,9.19,43.81,2.88
4.00,0.00,258.31,8.50,-128.19,5.69,-0.12,2.94,44.01,2.90
4.00,1.00,263.12,-8.56,-52.00,-2.44,7.06,1.50,44.01,2.90
4.00,2.00,262.31,-21.56,16.94,-2.31,-2.56,8.44,44.01,2.90
4.00,0.00,258.19,8.50,-128.25,4.62,1.00,1.44,44.15,2.92
4.00,1.00,263.00,-8.69,-52.00,-2.88,6.25,0.38,44.15,2.92
4.00,2.00,262.19,-21.56,16.94,-0.69,-2.06,7.12,44.15,2.92
4.00,0.00,258.06,8.56,-128.31,3.31,2.25,-0.25,44.22,2.94
4.00,1.00,263.00,-8.75,-51.94,-2.69,4.06,0.31,44.22,2.94
4.00,2.00,262.06,-21.56,17.00,0.69,-1.19,5.38,44.22,2.94
4.00,0.00,258.00,8.56,-128.31,3.12,2.00,0.19,44.28,2.96
4.00,1.00,262.94,-8.81,-51.88,-2.75,3.94,-0.25,44.28,2.96
4.00,2.00,262.00,-21.56,17.00,0.44,-1.50,4.94,44.28,2.96
4.00,0.00,258.12,8.62,-128.38,3.88,2.56,0.56,44.37,2.98
4.00,1.00,262.94,-8.88,-51.88,-1.25,4.38,-0.81,44.37,2.98
4.00,2.00,261.94,-21.50,17.00,0.62,-1.81,4.94,44.37,2.98
4.00,0.00,258.00,8.62,-128.44,5.12,3.06,0.50,44.44,3.00
4.00,1.00,262.94,-8.94,-51.81,-0.75,2.94,-1.38,44.44,3.00
4.00,2.00,261.81,-21.50,17.00,2.19,-1.94,4.19,44.44,3.00
4.00,0.00,257.88,8.69,-128.50,5.62,3.00,0.81,44.48,3.02
4.00,1.00,262.94,-9.00,-51.81,0.00,3.06,-2.06,44.48,3.02
4.00,2.00,261.81,-21.44,16.94,4.06,-1.25,2.31,44.48,3.02
4.00,0.00,257.88,8.75,-128.50,4.69,3.62,0.50,44.49,3.04
4.00,1.00,262.94,-9.06,-51.81,-0.44,1.88,-2.25,44.49,3.04
4.00,2.00,261.81,-21.44,16.88,4.25,0.00,0.75,44.49,3.04
4.00,0.00,257.69,8.75,-128.50,3.75,4.38,0.00,44.52,3.06
4.00,1.00,263.00,-9.12,-51.81,-0.94,1.81,-2.12,44.52,3.06
4.00,2.00,261.81,-21.44,16.81,2.69,0.12,1.69,44.52,3.06
4.00,0.00,257.62,8.81,-128.50,2.88,5.62,-0.31,44.56,3.08
4.00,1.00,263.00,-9.19,-51.81,-0.81,2.25,-2.00,44.56,3.08
4.00,2.00,261.75,-21.44,16.75,1.25,-0.38,2.81,44.56,3.08
4.00,0.00,257.44,8.88,-128.56,2.94,4.94,0.00,44.61,3.10
4.00,1.00,263.00,-9.25,-51.75,-1.38,2.31,-1.56,44.61,3.10
4.00,2.00,261.69,-21.50,16.69,0.94,0.25,3.19,44.61,3.10
4.00,0.00,257.31,8.88,-128.56,2.56,3.31,0.38,44.66,3.12
4.00,1.00,263.00,-9.25,-51.75,-0.75,3.88,-1.75,44.66,3.12
4.00,2.00,261.62,-21.50,16.69,0.75,0.00,3.25,44.66,3.12
4.00,0.00,257.19,8.94,-128.62,2.25,2.88,0.81,44.69,3.14
4.00,1.00,263.00,-9.38,-51.75,-1.12,3.44,-2.06,44.69,3.14
4.00,2.00,261.56,-21.50,16.62,1.19,0.69,3.38,44.69,3.14
4.00,0.00,257.12,8.94,-128.62,1.00,2.50,0.44,44.69,3.16
4.00,1.00,263.00,-9.44,-51.75,-0.56,4.44,-1.88,44.69,3.16
4.00,2.00,261.50,-21.56,16.56,1.00,1.19,3.38,44.69,3.16
4.00,0.00,257.12,8.94,-128.62,0.19,1.94,0.62,44.70,3.18
4.00,1.00,263.00,-9.50,-51.75,-1.81,3.69,-1.25,44.70,3.18
4.00,2.00,261.44,-21.56,16.56,-0.50,0.25,3.62,44.70,3.18
4.00,0.00,257.12,9.00,-128.62,-0.19,1.12,0.88,44.70,3.20
4.00,1.00,263.00,-9.56,-51.69,-2.12,3.50,-1.31,44.70,3.20
4.00,2.00,261.38,-21.56,16.56,0.06,0.50,3.62,44.70,3.20
4.00,0.00,257.12,8.94,-128.62,0.31,0.12,0.56,44.70,3.22
4.00,1.00,263.00,-9.62,-51.69,-2.69,2.25,-1.38,44.70,3.22
4.00,2.00,261.31,-21.62,16.50,0.38,0.81,3.56,44.70,3.22
4.00,0.00,257.25,8.94,-128.62,0.25,0.06,-0.69,44.70,3.24
4.00,1.00,263.00,-9.69,-51.62,-1.44,4.12,-1.12,44.70,3.24
4.00,2.00,261.25,-21.62,16.50,-0.06,0.38,3.69,44.70,3.24
4.00,0.00,257.31,8.94,-128.62,0.06,-0.69,-0.44,44.71,3.26
4.00,1.00,262.94,-9.75,-51.62,-2.06,2.44,-0.81,44.71,3.26
4.00,2.00,261.19,-21.62,16.44,-0.31,-0.44,4.44,44.71,3.26
4.00,0.00,257.44,8.88,-128.56,-0.62,-1.56,-0.75,44.70,3.28
4.00,1.00,262.94,-9.75,-51.56,-2.00,3.00,-0.44,44.70,3.28
4.00,2.00,261.06,-21.69,16.44,-0.12,0.06,4.56,44.70,3.28
4.00,0.00,257.50,8.88,-128.56,-1.19,-1.38,-0.94,44.68,3.30
4.00,1.00,262.94,-9.81,-51.56,-2.50,2.94,-0.44,44.68,3.30
4.00,2.00,261.00,-21.69,16.38,-0.38,0.19,4.12,44.68,3.30
4.00,0.00,257.56,8.81,-128.50,-0.88,-0.62,-1.31,44.67,3.32
4.00,1.00,262.88,-9.88,-51.50,-1.88,3.06,-0.31,44.67,3.32
4.00,2.00,260.94,-21.69,16.38,-0.44,-0.06,3.81,44.67,3.32
4.00,0.00,257.62,8.81,-128.50,-0.19,1.00,-1.81,44.68,3.34
4.00,1.00,262.88,-9.88,-51.50,-2.12,3.06,-0.25,44.68,3.34
4.00,2.00,260.88,-21.75,16.38,-0.56,0.00,3.44,44.68,3.34
4.00,0.00,257.56,8.81,-128.50,-0.31,2.31,-2.00,44.67,3.36
4.00,1.00,262.81,-9.94,-51.44,-2.00,2.69,-0.31,44.67,3.36
4.00,2.00,260.81,-21.75,16.31,0.12,1.38,3.50,44.67,3.36
4.00,0.00,257.56,8.81,-128.50,-0.81,3.44,-1.12,44.69,3.38
4.00,1.00,262.81,-9.94,-51.44,-2.19,2.75,-0.75,44.69,3.38
4.00,2.00,260.69,-21.81,16.31,-1.75,0.69,3.88,44.69,3.38
4.00,0.00,257.38,8.88,-128.44,-1.19,4.19,-0.56,44.70,3.40
4.00,1.00,262.81,-10.00,-51.38,-1.94,3.31,-1.19,44.70,3.40
4.00,2.00,260.62,-21.81,16.31,-1.50,0.12,3.88,44.70,3.40
4.00,0.00,257.25,8.88,-128.38,-1.25,4.81,-1.00,44.68,3.42
4.00,1.00,262.75,-10.06,-51.38,-1.50,2.69,-0.94,44.68,3.42
4.00,2.00,260.56,-21.81,16.31,-0.56,0.69,3.81,44.68,3.42
4.00,0.00,257.38,8.88,-128.31,-1.19,4.31,-1.62,44.70,3.44
4.00,1.00,262.75,-10.12,-51.31,-1.81,2.56,-0.31,44.70,3.44
4.00,2.00,260.50,-21.88,16.31,-1.69,1.19,4.19,44.70,3.44
4.00,0.00,257.31,8.88,-128.31,-1.88,2.94,-1.88,44.71,3.46
4.00,1.00,262.75,-10.12,-51.31,-2.12,3.12,-0.44,44.71,3.46
4.00,2.00,260.38,-21.94,16.31,-2.31,1.12,4.25,44.71,3.46
4.00,0.00,257.31,8.88,-128.25,-1.56,0.88,-2.06,44.70,3.48
4.00,1.00,262.69,-10.19,-51.25,-1.88,3.44,-1.25,44.70,3.48
4.00,2.00,260.31,-21.94,16.38,-1.31,1.12,3.69,44.70,3.48
4.00,0.00,257.38,8.81,-128.19,-1.19,0.06,-2.25,44.67,3.50
4.00,1.00,262.69,-10.25,-51.25,-2.06,2.88,-0.94,44.67,3.50
4.00,2.00,260.25,-22.00,16.31,-0.19,1.75,3.69,44.67,3.50
4.00,0.00,257.50,8.75,-128.19,-1.19,-1.56,-2.19,44.66,3.52
4.00,1.00,262.69,-10.31,-51.19,-1.88,3.00,-0.94,44.66,3.52
4.00,2.00,260.19,-22.06,16.31,-0.44,1.00,4.12,44.66,3.52
4.00,0.00,257.62,8.75,-128.12,-1.75,-1.62,-2.06,44.64,3.54
4.00,1.00,262.69,-10.38,-51.19,-1.56,3.19,-0.81,44.64,3.54
4.00,2.00,260.06,-22.06,16.25,-1.00,0.38,4.56,44.64,3.54
4.00,0.00,257.75,8.69,-128.12,-1.50,-0.88,-1.94,44.61,3.56
4.00,1.00,262.62,-10.38,-51.12,-1.31,3.00,-0.50,44.61,3.56
4.00,2.00,260.00,-22.06,16.25,-0.56,-0.38,4.94,44.61,3.56
4.00,0.00,257.88,8.62,-128.00,-2.06,-0.06,-2.06,44.53,3.58
4.00,1.00,262.62,-10.44,-51.12,-2.06,2.38,-0.31,44.53,3.58
4.00,2.00,259.88,-22.12,16.19,1.06,-0.94,6.38,44.53,3.58
4.00,0.00,257.94,8.62,-127.94,-4.25,-0.75,-1.38,44.41,3.60
4.00,1.00,262.56,-10.44,-51.06,-3.44,0.50,1.25,44.41,3.60
4.00,2.00,259.75,-22.12,16.12,0.69,-0.62,7.81,44.41,3.60
4.00,0.00,258.06,8.56,-127.81,-7.06,-1.12,-0.31,44.39,3.62
4.00,1.00,262.56,-10.44,-51.00,-2.44,2.00,1.31,44.39,3.62
4.00,2.00,259.50,-22.12,16.12,-6.44,-4.62,11.25,44.39,3.62
4.00,0.00,258.19,8.56,-127.62,-9.12,0.19,-0.56,44.35,3.64
4.00,1.00,262.50,-10.44,-50.94,-4.06,3.56,1.44,44.35,3.64
4.00,2.00,259.25,-22.06,16.19,-7.50,-5.38,12.19,44.35,3.64
4.00,0.00,258.19,8.56,-127.44,-9.56,2.56,-0.94,44.14,3.66
4.00,1.00,262.44,-10.50,-50.88,-2.88,4.25,0.75,44.14,3.66
4.00,2.00,259.00,-22.12,16.12,-1.62,-0.19,9.88,44.14,3.66
4.00,0.00,258.19,8.62,-127.38,-9.44,5.25,0.00,43.92,3.68
4.00,1.00,262.31,-10.56,-50.88,-2.94,6.38,0.62,43.92,3.68
4.00,2.00,258.81,-22.19,16.06,-0.81,0.31,9.19,43.92,3.68
4.00,0.00,258.06,8.69,-127.12,-10.19,9.38,1.69,43.69,3.70
4.00,1.00,262.25,-10.62,-50.81,-2.81,8.38,0.94,43.69,3.70
4.00,2.00,258.62,-22.25,16.06,-1.06,0.50,8.81,43.69,3.70
4.00,0.00,257.69,8.88,-126.94,-10.88,11.44,3.56,43.47,3.72
4.00,1.00,262.12,-10.69,-50.81,-3.44,7.38,1.00,43.47,3.72
4.00,2.00,258.44,-22.25,16.00,-2.12,-1.38,11.06,43.47,3.72
4.00,0.00,257.31,9.06,-126.69,-11.25,10.88,3.50,43.21,3.74
4.00,1.00,262.06,-10.75,-50.75,-2.88,7.38,0.81,43.21,3.74
4.00,2.00,258.19,-22.31,15.94,-1.31,-0.06,10.69,43.21,3.74
4.00,0.00,256.94,9.19,-126.44,-9.81,7.94,2.44,43.02,3.76
4.00,1.00,261.94,-10.81,-50.69,-3.69,6.88,1.81,43.02,3.76
4.00,2.00,258.00,-22.38,15.88,-2.31,-0.19,10.88,43.02,3.76
4.00,0.00,256.75,9.31,-126.25,-8.69,5.81,1.94,42.86,3.78
4.00,1.00,261.81,-10.88,-50.62,-4.81,7.12,2.06,42.86,3.78
4.00,2.00,257.81,-22.38,15.88,-2.56,-0.69,9.69,42.86,3.78
4.00,0.00,256.62,9.38,-126.06,-9.06,3.12,-1.69,42.67,3.80
4.00,1.00,261.75,-11.00,-50.56,-4.56,6.69,0.88,42.67,3.80
4.00,2.00,257.62,-22.44,15.88,-1.69,-0.88,8.12,42.67,3.80
4.00,0.00,256.69,9.31,-125.88,-8.88,0.81,-2.62,42.47,3.82
4.00,1.00,261.69,-11.06,-50.50,-4.62,5.81,1.00,42.47,3.82
4.00,2.00,257.50,-22.44,15.81,-0.81,-0.19,7.19,42.47,3.82
4.00,0.00,256.75,9.31,-125.69,-8.44,0.38,-2.81,42.30,3.84
4.00,1.00,261.56,-11.06,-50.44,-4.25,5.06,1.06,42.30,3.84
4.00,2.00,257.31,-22.50,15.81,-2.00,0.06,7.88,42.30,3.84
4.00,0.00,256.94,9.25,-125.56,-5.50,-2.50,-0.75,42.23,3.86
4.00,1.00,261.50,-11.12,-50.38,-5.06,5.00,0.88,42.23,3.86
4.00,2.00,257.19,-22.50,15.81,-2.56,0.25,7.50,42.23,3.86
4.00,0.00,257.06,9.19,-125.44,-4.56,-3.38,-0.31,42.15,3.88
4.00,1.00,261.44,-11.19,-50.31,-3.44,6.38,-0.31,42.15,3.88
4.00,2.00,257.00,-22.56,15.81,-1.56,0.94,7.12,42.15,3.88
4.00,0.00,257.25,9.12,-125.44,-1.69,-3.56,-0.06,42.13,3.90
4.00,1.00,261.38,-11.31,-50.25,-3.56,6.12,-0.50,42.13,3.90
4.00,2.00,256.94,-22.56,15.81,-1.00,1.56,6.25,42.13,3.90
4.00,0.00,257.38,9.12,-125.38,-3.50,-0.94,-1.44,42.05,3.92
4.00,1.00,261.31,-11.38,-50.19,-3.25,6.62,-0.75,42.05,3.92
4.00,2.00,256.81,-22.62,15.81,-0.38,2.00,5.50,42.05,3.92
4.00,0.00,257.44,9.06,-125.31,-4.75,-0.38,-3.12,41.92,3.94
4.00,1.00,261.25,-11.50,-50.12,-3.69,6.38,-0.75,41.92,3.94
4.00,2.00,256.69,-22.69,15.75,0.25,3.25,5.06,41.92,3.94
4.00,0.00,257.62,9.00,-125.19,-2.06,-2.81,-1.50,41.90,3.96
4.00,1.00,261.25,-11.56,-50.06,-3.94,6.44,-1.31,41.90,3.96
4.00,2.00,256.62,-22.75,15.75,-1.06,2.75,5.06,41.90,3.96
4.00,0.00,257.75,8.94,-125.19,-0.69,-2.75,-0.50,41.90,3.98
4.00,1.00,261.19,-11.69,-50.00,-4.06,5.75,-1.94,41.90,3.98
4.00,2.00,256.56,-22.81,15.75,-0.75,2.88,4.75,41.90,3.98
4.00,0.00,257.81,8.94,-125.19,-0.38,-0.94,-1.06,41.91,4.00
4.00,1.00,261.19,-11.75,-49.94,-3.69,5.88,-2.06,41.91,4.00
4.00,2.00,256.50,-22.88,15.75,-0.94,3.50,4.12,41.91,4.00
4.00,0.00,257.88,8.94,-125.19,-1.06,-0.44,-1.81,41.93,4.02
4.00,1.00,261.19,-11.88,-49.88,-3.38,6.12,-2.31,41.93,4.02
4.00,2.00,256.38,-23.00,15.81,-1.69,3.31,4.38,41.93,4.02
4.00,0.00,257.88,8.88,-125.12,-1.56,0.06,-2.19,41.90,4.04
4.00,1.00,261.12,-12.00,-49.88,-3.50,5.56,-2.69,41.90,4.04
4.00,2.00,256.31,-23.06,15.81,-0.44,4.06,3.44,41.90,4.04
4.00,0.00,258.00,8.81,-125.12,0.00,-1.31,-2.00,41.88,4.06
4.00,1.00,261.19,-12.12,-49.75,-3.62,5.94,-2.94,41.88,4.06
4.00,2.00,256.31,-23.12,15.81,0.69,4.25,3.00,41.88,4.06
4.00,0.00,258.19,8.75,-125.12,1.00,-4.25,-2.62,41.93,4.08
4.00,1.00,261.12,-12.25,-49.75,-3.44,5.75,-2.06,41.93,4.08
4.00,2.00,256.25,-23.19,15.75,-0.75,2.69,4.00,41.93,4.08
4.00,0.00,258.44,8.62,-125.19,1.31,-6.69,-2.88,41.97,4.10
4.00,1.00,261.12,-12.38,-49.69,-3.25,5.56,-1.38,41.97,4.10
4.00,2.00,256.12,-23.25,15.75,-0.50,2.31,4.06,41.97,4.10
4.00,0.00,258.75,8.50,-125.25,1.25,-6.81,-2.94,42.02,4.12
4.00,1.00,261.06,-12.44,-49.62,-2.69,5.75,-0.94,42.02,4.12
4.00,2.00,256.06,-23.31,15.75,-0.44,2.12,3.88,42.02,4.12
4.00,0.00,259.00,8.38,-125.25,1.81,-5.06,-3.88,42.09,4.14
4.00,1.00,261.06,-12.56,-49.56,-2.62,4.88,-0.81,42.09,4.14
4.00,2.00,256.00,-23.38,15.75,-0.88,2.25,3.50,42.09,4.14
4.00,0.00,259.19,8.31,-125.25,2.00,-1.44,-4.12,42.15,4.16
4.00,1.00,261.00,-12.62,-49.56,-2.56,4.50,-0.94,42.15,4.16
4.00,2.00,255.94,-23.44,15.75,-0.31,1.69,3.25,42.15,4.16
4.00,0.00,259.19,8.25,-125.25,2.00,1.81,-3.12,42.19,4.18
4.00,1.00,261.00,-12.69,-49.50,-2.75,4.06,-1.12,42.19,4.18
4.00,2.00,255.88,-23.44,15.75,0.38,1.31,3.19,42.19,4.18
4.00,0.00,259.12,8.25,-125.25,0.44,3.00,-2.25,42.21,4.20
4.00,1.00,261.00,-12.75,-49.44,-3.06,3.94,-0.88,42.21,4.20
4.00,2.00,255.81,-23.50,15.69,-0.38,1.38,3.38,42.21,4.20
4.00,0.00,259.00,8.25,-125.19,-1.38,3.62,-2.12,42.21,4.22
4.00,1.00,260.94,-12.81,-49.38,-3.19,4.12,-1.12,42.21,4.22
4.00,2.00,255.75,-23.56,15.69,-1.38,1.50,3.38,42.21,4.22
4.00,0.00,258.88,8.31,-125.19,-2.12,4.69,-2.62,42.18,4.24
4.00,1.00,260.94,-12.94,-49.31,-2.88,5.25,-1.62,42.18,4.24
4.00,2.00,255.75,-23.56,15.75,-1.12,2.19,2.56,42.18,4.24
4.00,0.00,258.75,8.31,-125.12,-1.69,5.50,-3.38,42.16,4.26
4.00,1.00,260.94,-13.00,-49.31,-3.62,4.62,-1.50,42.16,4.26
4.00,2.00,255.69,-23.62,15.75,-0.88,2.69,2.06,42.16,4.26
4.00,0.00,258.62,8.31,-125.06,-1.75,5.44,-3.12,42.16,4.28
4.00,1.00,260.88,-13.06,-49.25,-3.69,5.31,-2.00,42.16,4.28
4.00,2.00,255.69,-23.69,15.75,-1.75,3.25,1.88,42.16,4.28
4.00,0.00,258.38,8.38,-125.00,-0.94,7.88,-2.06,42.18,4.30
4.00,1.00,260.88,-13.19,-49.19,-3.12,7.06,-3.00,42.18,4.30
4.00,2.00,255.62,-23.75,15.81,-1.69,4.38,1.44,42.18,4.30
4.00,0.00,258.06,8.50,-124.94,0.38,9.94,-1.31,42.24,4.32
4.00,1.00,260.88,-13.38,-49.12,-3.31,6.12,-3.12,42.24,4.32
4.00,2.00,255.62,-23.81,15.88,-2.06,5.12,0.81,42.24,4.32
4.00,0.00,257.75,8.56,-124.94,1.62,9.00,-1.00,42.36,4.34
4.00,1.00,260.88,-13.50,-49.06,-3.38,5.00,-2.94,42.36,4.34
4.00,2.00,255.62,-23.94,15.94,-2.75,4.25,0.19,42.36,4.34
4.00,0.00,257.50,8.62,-124.94,1.69,6.81,-0.94,42.47,4.36
4.00,1.00,260.94,-13.56,-49.00,-2.88,3.56,-2.88,42.47,4.36
4.00,2.00,255.62,-24.00,16.00,-2.75,3.69,-0.19,42.47,4.36
4.00,0.00,257.38,8.62,-124.94,0.69,2.94,-1.12,42.54,4.38
4.00,1.00,260.94,-13.69,-48.94,-2.88,2.12,-2.94,42.54,4.38
4.00,2.00,255.62,-24.06,16.12,-2.19,3.94,-0.50,42.54,4.38
4.00,0.00,257.44,8.62,-124.94,0.50,-3.19,-2.38,42.55,4.40
4.00,1.00,261.00,-13.75,-48.88,-2.56,1.56,-3.19,42.55,4.40
4.00,2.00,255.69,-24.12,16.19,0.12,3.88,-2.06,42.55,4.40
4.00,0.00,257.88,8.38,-125.00,0.88,-9.56,-4.19,42.58,4.42
4.00,1.00,261.06,-13.88,-48.81,-2.19,1.19,-3.06,42.58,4.42
4.00,2.00,255.75,-24.12,16.19,-0.06,3.38,-2.19,42.58,4.42
4.00,0.00,258.44,8.19,-125.00,1.19,-13.56,-4.94,42.61,4.44
4.00,1.00,261.12,-13.94,-48.75,-2.19,0.31,-2.81,42.61,4.44
4.00,2.00,255.81,-24.19,16.25,-0.12,2.38,-2.25,42.61,4.44
4.00,0.00,259.06,7.94,-125.06,0.38,-14.12,-5.06,42.62,4.46
4.00,1.00,261.19,-14.00,-48.69,-2.19,-0.12,-2.75,42.62,4.46
4.00,2.00,255.81,-24.25,16.25,0.12,2.62,-2.38,42.62,4.46
4.00,0.00,259.62,7.75,-125.06,-0.44,-11.81,-4.00,42.63,4.48
4.00,1.00,261.25,-14.00,-48.62,-2.06,-0.50,-2.56,42.63,4.48
4.00,2.00,255.88,-24.25,16.31,-0.88,1.81,-1.62,42.63,4.48
4.00,0.00,259.94,7.62,-125.06,-0.94,-7.88,-2.19,42.63,4.50
4.00,1.00,261.25,-14.06,-48.62,-2.12,-0.56,-2.62,42.63,4.50
4.00,2.00,255.94,-24.25,16.31,-0.81,2.00,-1.94,42.63,4.50
4.00,0.00,260.06,7.56,-125.06,-0.44,-3.56,-1.00,42.62,4.52
4.00,1.00,261.31,-14.12,-48.56,-1.81,0.06,-3.12,42.62,4.52
4.00,2.00,255.94,-24.31,16.38,-0.12,2.31,-1.00,42.62,4.52
4.00,0.00,260.06,7.56,-125.12,1.00,-0.56,0.06,42.61,4.54
4.00,1.00,261.38,-14.19,-48.50,-1.44,0.00,-3.38,42.61,4.54
4.00,2.00,256.00,-24.31,16.38,1.38,1.88,-1.56,42.61,4.54
4.00,0.00,260.00,7.62,-125.12,1.50,1.75,0.94,42.62,4.56
4.00,1.00,261.44,-14.19,-48.50,-1.00,0.75,-3.06,42.62,4.56
4.00,2.00,256.00,-24.38,16.31,1.12,1.06,-0.94,42.62,4.56
4.00,0.00,259.81,7.69,-125.19,1.06,3.25,1.50,42.66,4.58
4.00,1.00,261.50,-14.25,-48.44,-1.50,0.75,-2.44,42.66,4.58
4.00,2.00,256.00,-24.38,16.31,-0.56,0.31,0.31,42.66,4.58
4.00,0.00,259.69,7.75,-125.19,0.31,4.88,1.25,42.69,4.60
4.00,1.00,261.50,-14.31,-48.38,-1.88,0.31,-1.44,42.69,4.60
4.00,2.00,256.00,-24.38,16.38,-0.81,0.06,1.31,42.69,4.60
4.00,0.00,259.44,7.81,-125.19,0.19,5.00,1.00,42.69,4.62
4.00,1.00,261.56,-14.31,-48.38,-1.50,1.25,-1.44,42.69,4.62
4.00,2.00,256.00,-24.38,16.31,0.06,0.75,1.25,42.69,4.62
4.00,0.00,259.25,7.88,-125.19,0.81,5.06,0.50,42.72,4.64
4.00,1.00,261.56,-14.38,-48.38,-0.50,2.25,-1.44,42.72,4.64
4.00,2.00,255.94,-24.38,16.31,-0.25,1.06,2.00,42.72,4.64
4.00,0.00,259.12,7.88,-125.19,1.25,5.44,-0.38,42.77,4.66
4.00,1.00,261.56,-14.44,-48.38,-1.00,2.25,-1.38,42.77,4.66
4.00,2.00,255.88,-24.44,16.31,-0.81,1.62,2.12,42.77,4.66
4.00,0.00,259.00,7.94,-125.19,1.25,4.88,-0.44,42.82,4.68
4.00,1.00,261.56,-14.50,-48.31,-0.75,3.06,-1.44,42.82,4.68
4.00,2.00,255.88,-24.50,16.38,-0.69,2.62,1.75,42.82,4.68
4.00,0.00,259.00,7.88,-125.19,2.19,1.94,-0.69,42.88,4.70
4.00,1.00,261.56,-14.56,-48.31,-0.69,3.06,-1.00,42.88,4.70
4.00,2.00,255.88,-24.56,16.38,-0.25,3.31,1.81,42.88,4.70
4.00,0.00,259.12,7.81,-125.25,2.81,-1.75,-1.88,42.99,4.72
4.00,1.00,261.56,-14.62,-48.31,-1.44,2.69,-0.94,42.99,4.72
4.00,2.00,255.81,-24.62,16.38,-1.38,2.25,2.31,42.99,4.72
4.00,0.00,259.38,7.69,-125.31,3.19,-5.12,-2.44,43.11,4.74
4.00,1.00,261.50,-14.62,-48.31,-1.19,3.00,-0.88,43.11,4.74
4.00,2.00,255.75,-24.69,16.38,-1.38,1.94,1.94,43.11,4.74
4.00,0.00,259.56,7.62,-125.38,2.38,-4.75,-2.94,43.18,4.76
4.00,1.00,261.50,-14.69,-48.31,-1.19,3.12,-1.19,43.18,4.76
4.00,2.00,255.75,-24.69,16.38,-0.56,2.44,1.19,43.18,4.76
4.00,0.00,259.81,7.50,-125.38,1.56,-4.00,-2.88,43.25,4.78
4.00,1.00,261.50,-14.75,-48.25,-1.56,2.56,-1.44,43.25,4.78
4.00,2.00,255.75,-24.75,16.38,-1.25,2.94,1.19,43.25,4.78
4.00,0.00,260.00,7.44,-125.38,1.19,-3.44,-2.44,43.32,4.80
4.00,1.00,261.56,-14.88,-48.25,-1.75,2.44,-1.69,43.32,4.80
4.00,2.00,255.75,-24.81,16.44,-1.31,3.75,0.56,43.32,4.80
4.00,0.00,260.12,7.38,-125.44,0.88,-2.00,-2.44,43.37,4.82
4.00,1.00,261.56,-14.94,-48.19,-1.38,3.38,-2.25,43.37,4.82
4.00,2.00,255.75,-24.88,16.44,-1.12,3.38,-0.25,43.37,4.82
4.00,0.00,260.19,7.31,-125.44,0.88,-0.69,-2.12,43.43,4.84
4.00,1.00,261.56,-15.00,-48.19,-2.00,2.19,-2.06,43.43,4.84
4.00,2.00,255.75,-24.94,16.50,-1.50,2.00,-0.38,43.43,4.84
4.00,0.00,260.19,7.31,-125.44,0.25,0.00,-1.62,43.45,4.86
4.00,1.00,261.62,-15.12,-48.12,-1.94,0.81,-2.12,43.45,4.86
4.00,2.00,255.75,-24.94,16.56,-0.38,1.88,-1.62,43.45,4.86
4.00,0.00,260.25,7.25,-125.38,-0.50,0.94,-2.12,43.45,4.88
4.00,1.00,261.69,-15.19,-48.06,-1.56,0.25,-1.69,43.45,4.88
4.00,2.00,255.81,-25.00,16.56,-0.56,2.06,-2.19,43.45,4.88
4.00,0.00,260.25,7.25,-125.38,-0.81,2.06,-2.62,43.45,4.90
4.00,1.00,261.69,-15.25,-48.00,-1.62,-0.38,-1.75,43.45,4.90
4.00,2.00,255.81,-25.00,16.62,-0.88,2.00,-1.94,43.45,4.90
4.00,0.00,260.12,7.25,-125.31,-0.31,4.06,-2.00,43.46,4.92
4.00,1.00,261.75,-15.31,-47.94,-1.31,-0.12,-1.75,43.46,4.92
4.00,2.00,255.88,-25.06,16.69,-0.88,1.25,-1.38,43.46,4.92
4.00,0.00,260.06,7.25,-125.31,0.19,3.44,-1.75,43.48,4.94
4.00,1.00,261.81,-15.31,-47.88,-1.00,-0.44,-1.56,43.48,4.94
4.00,2.00,255.88,-25.06,16.75,-0.50,0.94,-1.12,43.48,4.94
4.00,0.00,260.06,7.25,-125.31,0.75,0.31,-0.88,43.50,4.96
4.00,1.00,261.81,-15.38,-47.88,-0.81,-0.81,-0.62,43.50,4.96
4.00,2.00,255.94,-25.12,16.75,0.00,0.75,-1.31,43.50,4.96
4.00,0.00,260.12,7.19,-125.31,0.62,-1.06,-0.50,43.54,4.98
4.00,1.00,261.88,-15.38,-47.88,-0.19,-1.31,0.50,43.54,4.98
4.00,2.00,255.94,-25.12,16.75,-0.88,-0.81,-1.38,43.54,4.98
4.00,0.00,260.19,7.19,-125.31,0.56,-1.06,-0.19,43.55,5.00
4.00,1.00,261.88,-15.38,-47.81,0.00,-1.62,0.75,43.55,5.00
4.00,2.00,256.00,-25.06,16.81,0.00,-1.69,-1.44,43.55,5.00
4.00,0.00,260.19,7.19,-125.31,0.62,-0.56,0.44,43.53,5.02
4.00,1.00,261.88,-15.38,-47.81,0.50,-2.19,0.62,43.53,5.02
4.00,2.00,256.00,-25.06,16.81,1.56,-1.88,-2.12,43.53,5.02
4.00,0.00,260.19,7.19,-125.31,0.94,-0.12,1.06,43.52,5.04
4.00,1.00,261.94,-15.38,-47.75,0.94,-2.88,1.12,43.52,5.04
4.00,2.00,256.06,-25.00,16.81,1.44,-1.62,-2.25,43.52,5.04
4.00,0.00,260.19,7.19,-125.31,0.25,-0.50,1.69,43.52,5.06
4.00,1.00,261.94,-15.31,-47.75,1.00,-3.00,1.44,43.52,5.06
4.00,2.00,256.12,-25.00,16.88,0.12,-1.62,-2.62,43.52,5.06
4.00,0.00,260.19,7.19,-125.25,0.06,-1.69,2.62,43.50,5.08
4.00,1.00,261.94,-15.31,-47.75,1.06,-3.38,1.81,43.50,5.08
4.00,2.00,256.12,-24.94,16.88,0.75,-2.00,-3.75,43.50,5.08
4.00,0.00,260.25,7.25,-125.25,-0.38,-2.19,2.75,43.45,5.10
4.00,1.00,262.00,-15.25,-47.75,1.62,-3.88,2.00,43.45,5.10
4.00,2.00,256.25,-24.88,16.94,1.62,-2.19,-4.62,43.45,5.10
4.00,0.00,260.25,7.25,-125.25,-1.00,-0.56,2.06,43.38,5.12
4.00,1.00,262.00,-15.19,-47.75,1.38,-4.69,2.56,43.38,5.12
4.00,2.00,256.31,-24.81,16.94,1.81,-2.75,-5.44,43.38,5.12
