Iteration,IMUNo,OrientationX (deg),OrientationY,OrientationZ,GyroX (20rad/sec),GyroY,GyroZ,Elbow_Pos (rad),Time (sec)
5.00,0.00,275.19,0.06,-97.75,-0.31,0.31,-0.19,-0.01,1.02
5.00,1.00,275.50,-4.75,-52.44,0.12,0.00,0.00,-0.01,1.02
5.00,2.00,288.50,-18.62,18.00,0.12,0.25,-0.06,-0.01,1.02
5.00,0.00,275.19,0.06,-97.75,-0.31,0.31,-0.19,-0.01,1.02
5.00,1.00,275.50,-4.75,-52.44,0.12,0.00,0.00,-0.01,1.02
5.00,2.00,288.50,-18.62,18.00,0.12,0.25,-0.06,-0.01,1.02
5.00,0.00,275.12,0.06,-97.75,0.06,0.50,0.19,-0.01,1.04
5.00,1.00,275.50,-4.75,-52.44,0.19,0.25,-0.25,-0.01,1.04
5.00,2.00,288.50,-18.62,18.00,0.06,0.25,0.00,-0.01,1.04
5.00,0.00,275.12,0.06,-97.75,0.00,0.06,0.50,-0.02,1.06
5.00,1.00,275.50,-4.75,-52.44,0.12,0.19,-0.06,-0.02,1.06
5.00,2.00,288.50,-18.62,18.00,0.19,-0.06,0.19,-0.02,1.06
5.00,0.00,275.12,0.06,-97.75,-0.19,0.06,0.19,-0.03,1.08
5.00,1.00,275.50,-4.75,-52.44,-0.06,0.06,-0.06,-0.03,1.08
5.00,2.00,288.50,-18.62,18.00,0.19,0.19,0.12,-0.03,1.08
5.00,0.00,275.12,0.06,-97.75,-0.12,0.12,-0.12,-0.03,1.10
5.00,1.00,275.50,-4.75,-52.44,0.19,0.25,0.00,-0.03,1.10
5.00,2.00,288.50,-18.62,18.00,0.00,0.56,0.25,-0.03,1.10
5.00,0.00,275.12,0.06,-97.75,-0.12,0.12,-0.19,-0.02,1.12
5.00,1.00,275.50,-4.75,-52.44,0.19,0.25,0.19,-0.02,1.12
5.00,2.00,288.50,-18.62,18.00,-0.50,0.25,0.31,-0.02,1.12
5.00,0.00,275.12,0.06,-97.75,-0.12,0.00,0.12,-0.02,1.14
5.00,1.00,275.50,-4.75,-52.44,-0.06,0.00,0.00,-0.02,1.14
5.00,2.00,288.50,-18.62,18.00,-0.06,-0.50,-0.06,-0.02,1.14
5.00,0.00,275.12,0.06,-97.75,-0.12,0.00,-0.06,-0.05,1.16
5.00,1.00,275.50,-4.75,-52.44,0.00,-0.19,-0.25,-0.05,1.16
5.00,2.00,288.50,-18.62,18.00,1.00,0.38,-0.69,-0.05,1.16
5.00,0.00,275.12,0.06,-97.75,-0.44,0.38,-0.25,-0.08,1.18
5.00,1.00,275.50,-4.75,-52.44,-0.19,0.12,-0.25,-0.08,1.18
5.00,2.00,288.56,-18.62,17.94,0.56,0.38,-1.00,-0.08,1.18
5.00,0.00,275.12,0.06,-97.75,-0.38,0.25,-0.38,-0.09,1.20
5.00,1.00,275.50,-4.75,-52.44,0.12,0.12,-0.06,-0.09,1.20
5.00,2.00,288.56,-18.62,18.00,0.25,0.50,-0.50,-0.09,1.20
5.00,0.00,275.12,0.06,-97.75,-0.75,-0.75,-0.38,-0.12,1.22
5.00,1.00,275.50,-4.75,-52.44,0.06,0.00,0.06,-0.12,1.22
5.00,2.00,288.56,-18.62,18.00,0.31,0.50,-0.50,-0.12,1.22
5.00,0.00,275.19,0.06,-97.75,-0.44,-1.06,-0.19,-0.13,1.24
5.00,1.00,275.50,-4.75,-52.44,-0.19,0.12,-0.06,-0.13,1.24
5.00,2.00,288.56,-18.62,18.00,-0.12,0.06,-0.19,-0.13,1.24
5.00,0.00,275.19,0.06,-97.75,-0.31,-0.88,-0.19,-0.14,1.26
5.00,1.00,275.50,-4.75,-52.44,-0.06,0.12,-0.19,-0.14,1.26
5.00,2.00,288.56,-18.62,18.00,0.12,0.31,-0.25,-0.14,1.26
5.00,0.00,275.19,0.06,-97.75,-0.19,-0.12,-0.06,-0.15,1.28
5.00,1.00,275.50,-4.75,-52.44,-0.25,0.06,-0.31,-0.15,1.28
5.00,2.00,288.56,-18.62,18.00,0.31,0.38,-0.62,-0.15,1.28
5.00,0.00,275.19,0.06,-97.75,-0.19,0.62,0.12,-0.16,1.30
5.00,1.00,275.50,-4.75,-52.44,-0.12,0.06,-0.38,-0.16,1.30
5.00,2.00,288.56,-18.62,18.00,0.06,0.44,-0.38,-0.16,1.30
5.00,0.00,275.19,0.06,-97.75,-0.38,0.69,0.25,-0.16,1.32
5.00,1.00,275.50,-4.75,-52.44,0.06,0.38,-0.12,-0.16,1.32
5.00,2.00,288.56,-18.62,18.00,-0.19,0.25,-0.19,-0.16,1.32
5.00,0.00,275.19,0.06,-97.75,-0.56,0.50,0.31,-0.17,1.34
5.00,1.00,275.50,-4.75,-52.44,-0.06,0.25,0.12,-0.17,1.34
5.00,2.00,288.56,-18.62,18.00,-0.31,0.06,0.19,-0.17,1.34
5.00,0.00,275.19,0.06,-97.75,-0.62,0.31,0.19,-0.17,1.36
5.00,1.00,275.50,-4.75,-52.44,-0.25,0.25,-0.31,-0.17,1.36
5.00,2.00,288.56,-18.62,18.00,-0.44,0.12,-0.12,-0.17,1.36
5.00,0.00,275.19,0.06,-97.75,-0.44,0.44,0.25,-0.17,1.38
5.00,1.00,275.50,-4.75,-52.44,-0.50,0.25,0.06,-0.17,1.38
5.00,2.00,288.56,-18.62,18.00,-0.56,0.06,-0.12,-0.17,1.38
5.00,0.00,275.19,0.06,-97.75,-0.06,0.81,0.38,-0.15,1.40
5.00,1.00,275.50,-4.75,-52.44,-0.56,0.25,0.50,-0.15,1.40
5.00,2.00,288.56,-18.62,18.00,-0.81,0.00,0.06,-0.15,1.40
5.00,0.00,275.12,0.06,-97.75,0.06,1.56,0.81,-0.13,1.42
5.00,1.00,275.50,-4.75,-52.44,-0.75,0.25,0.62,-0.13,1.42
5.00,2.00,288.56,-18.62,18.00,-0.56,-0.31,0.31,-0.13,1.42
5.00,0.00,275.06,0.06,-97.75,0.44,2.25,1.06,-0.11,1.44
5.00,1.00,275.50,-4.75,-52.44,-0.19,0.19,0.62,-0.11,1.44
5.00,2.00,288.56,-18.62,18.00,-0.62,-0.81,0.75,-0.11,1.44
5.00,0.00,274.94,0.12,-97.75,0.50,2.94,1.62,-0.07,1.46
5.00,1.00,275.50,-4.69,-52.44,-0.38,0.00,0.75,-0.07,1.46
5.00,2.00,288.56,-18.56,18.00,-0.81,-1.00,1.00,-0.07,1.46
5.00,0.00,274.88,0.19,-97.75,0.94,3.38,2.06,-0.04,1.48
5.00,1.00,275.50,-4.69,-52.44,-0.38,0.19,0.50,-0.04,1.48
5.00,2.00,288.50,-18.56,18.00,-0.44,-0.81,1.44,-0.04,1.48
5.00,0.00,274.75,0.25,-97.81,1.56,3.75,2.44,0.01,1.50
5.00,1.00,275.50,-4.69,-52.44,-0.12,0.50,0.50,0.01,1.50
5.00,2.00,288.50,-18.56,18.00,-0.44,-0.94,1.69,0.01,1.50
5.00,0.00,274.56,0.31,-97.81,2.25,4.12,2.81,0.10,1.52
5.00,1.00,275.44,-4.69,-52.44,-0.19,1.00,0.62,0.10,1.52
5.00,2.00,288.44,-18.56,18.00,-1.25,-0.81,1.69,0.10,1.52
5.00,0.00,274.44,0.38,-97.88,2.81,4.25,2.75,0.22,1.54
5.00,1.00,275.44,-4.69,-52.44,-0.31,1.12,0.81,0.22,1.54
5.00,2.00,288.38,-18.56,18.00,-1.75,-1.00,2.19,0.22,1.54
5.00,0.00,274.25,0.44,-97.94,3.75,4.69,2.75,0.36,1.56
5.00,1.00,275.38,-4.69,-52.44,-0.38,1.12,0.88,0.36,1.56
5.00,2.00,288.31,-18.56,18.00,-1.56,-1.38,2.69,0.36,1.56
5.00,0.00,274.12,0.50,-98.00,4.12,4.94,2.56,0.48,1.58
5.00,1.00,275.38,-4.69,-52.44,-0.44,1.19,0.94,0.48,1.58
5.00,2.00,288.25,-18.56,18.00,-0.88,-0.94,2.69,0.48,1.58
5.00,0.00,273.94,0.56,-98.12,5.25,4.88,2.62,0.65,1.60
5.00,1.00,275.31,-4.75,-52.44,-0.19,1.69,1.00,0.65,1.60
5.00,2.00,288.19,-18.56,18.00,-1.12,-0.88,2.50,0.65,1.60
5.00,0.00,273.75,0.62,-98.25,5.88,5.38,2.81,0.82,1.62
5.00,1.00,275.31,-4.75,-52.44,-0.38,2.12,1.44,0.82,1.62
5.00,2.00,288.12,-18.56,18.06,-0.94,-1.00,2.88,0.82,1.62
5.00,0.00,273.56,0.75,-98.44,6.75,6.62,3.00,1.01,1.64
5.00,1.00,275.25,-4.75,-52.44,-0.38,1.69,1.38,1.01,1.64
5.00,2.00,288.06,-18.56,18.00,-0.62,-2.19,4.44,1.01,1.64
5.00,0.00,273.25,0.81,-98.62,7.50,8.69,3.44,1.20,1.66
5.00,1.00,275.19,-4.75,-52.44,0.31,2.31,0.38,1.20,1.66
5.00,2.00,287.94,-18.56,18.00,-0.12,-1.88,5.69,1.20,1.66
5.00,0.00,272.94,0.94,-98.81,8.81,9.62,4.38,1.45,1.68
5.00,1.00,275.19,-4.75,-52.44,0.06,2.81,0.81,1.45,1.68
5.00,2.00,287.81,-18.56,17.94,-0.81,-1.69,6.31,1.45,1.68
5.00,0.00,272.62,1.06,-99.00,10.25,10.12,5.31,1.75,1.70
5.00,1.00,275.12,-4.81,-52.44,0.12,3.62,0.88,1.75,1.70
5.00,2.00,287.69,-18.56,17.94,-1.56,-1.06,7.25,1.75,1.70
5.00,0.00,272.31,1.19,-99.25,11.12,8.00,6.31,2.09,1.72
5.00,1.00,275.06,-4.81,-52.44,-0.50,3.69,1.38,2.09,1.72
5.00,2.00,287.50,-18.56,17.94,-2.06,-1.12,7.50,2.09,1.72
5.00,0.00,272.00,1.38,-99.50,12.62,6.75,6.69,2.41,1.74
5.00,1.00,275.00,-4.81,-52.44,0.12,4.25,1.69,2.41,1.74
5.00,2.00,287.38,-18.62,17.88,0.06,-1.81,7.44,2.41,1.74
5.00,0.00,271.75,1.50,-99.81,14.12,4.81,7.06,2.71,1.76
5.00,1.00,274.94,-4.88,-52.44,0.50,4.31,1.12,2.71,1.76
5.00,2.00,287.25,-18.62,17.81,2.50,-1.88,8.06,2.71,1.76
5.00,0.00,271.56,1.62,-100.12,14.94,3.25,6.62,3.01,1.78
5.00,1.00,274.88,-4.94,-52.50,0.88,4.44,0.69,3.01,1.78
5.00,2.00,287.06,-18.62,17.69,3.38,-1.75,9.81,3.01,1.78
5.00,0.00,271.38,1.75,-100.38,14.12,1.88,4.62,3.26,1.80
5.00,1.00,274.81,-4.94,-52.50,1.81,4.94,1.19,3.26,1.80
5.00,2.00,286.81,-18.69,17.50,4.38,-2.50,12.56,3.26,1.80
5.00,0.00,271.25,1.81,-100.69,13.31,2.88,4.19,3.47,1.82
5.00,1.00,274.75,-5.00,-52.56,2.12,5.31,1.75,3.47,1.82
5.00,2.00,286.56,-18.69,17.31,4.88,-3.62,15.62,3.47,1.82
5.00,0.00,271.06,1.88,-100.88,11.12,4.94,3.62,3.67,1.84
5.00,1.00,274.62,-5.06,-52.62,2.19,6.38,1.44,3.67,1.84
5.00,2.00,286.19,-18.75,17.12,3.31,-2.81,18.12,3.67,1.84
5.00,0.00,270.81,2.00,-101.12,11.00,6.94,3.94,3.99,1.86
5.00,1.00,274.56,-5.06,-52.69,2.44,6.44,2.25,3.99,1.86
5.00,2.00,285.81,-18.81,17.00,-1.62,-3.56,19.38,3.99,1.86
5.00,0.00,270.50,2.12,-101.38,16.88,6.56,8.19,4.51,1.88
5.00,1.00,274.44,-5.12,-52.75,1.88,7.50,3.12,4.51,1.88
5.00,2.00,285.44,-18.81,16.94,-3.25,-5.25,20.38,4.51,1.88
5.00,0.00,270.19,2.31,-101.75,18.50,7.56,7.56,4.97,1.90
5.00,1.00,274.31,-5.19,-52.75,0.56,6.88,2.50,4.97,1.90
5.00,2.00,285.00,-18.81,16.81,0.62,-4.12,18.19,4.97,1.90
5.00,0.00,269.88,2.50,-102.12,17.88,7.75,6.50,5.33,1.92
5.00,1.00,274.19,-5.19,-52.81,1.19,7.81,2.62,5.33,1.92
5.00,2.00,284.75,-18.88,16.62,3.62,-2.31,14.50,5.33,1.92
5.00,0.00,269.50,2.69,-102.44,18.81,6.88,8.25,5.76,1.94
5.00,1.00,274.06,-5.25,-52.81,1.31,8.75,2.31,5.76,1.94
5.00,2.00,284.50,-18.94,16.50,2.12,-0.81,13.38,5.76,1.94
5.00,0.00,269.12,2.88,-102.81,21.12,5.06,10.12,6.34,1.96
5.00,1.00,273.94,-5.31,-52.88,1.06,7.88,2.50,6.34,1.96
5.00,2.00,284.19,-18.94,16.44,-1.50,-3.12,14.00,6.34,1.96
5.00,0.00,268.81,3.06,-103.25,23.00,5.88,10.06,6.90,1.98
5.00,1.00,273.81,-5.38,-52.88,0.25,6.81,1.81,6.90,1.98
5.00,2.00,283.94,-19.00,16.38,1.00,-3.06,14.50,6.90,1.98
5.00,0.00,268.38,3.31,-103.75,23.44,7.62,9.19,7.40,2.00
5.00,1.00,273.75,-5.44,-52.88,0.44,6.81,1.69,7.40,2.00
5.00,2.00,283.62,-19.00,16.19,4.00,-2.50,13.38,7.40,2.00
5.00,0.00,268.00,3.50,-104.19,22.62,7.75,9.38,7.89,2.02
5.00,1.00,273.62,-5.50,-52.94,0.25,7.88,1.38,7.89,2.02
5.00,2.00,283.44,-19.06,16.00,3.44,-2.50,13.06,7.89,2.02
5.00,0.00,267.56,3.75,-104.56,21.75,7.50,10.25,8.44,2.04
5.00,1.00,273.50,-5.56,-52.94,0.00,7.06,1.94,8.44,2.04
5.00,2.00,283.12,-19.06,15.94,0.25,-3.94,13.12,8.44,2.04
5.00,0.00,267.12,4.00,-105.00,23.44,7.25,12.44,9.06,2.06
5.00,1.00,273.44,-5.56,-52.94,0.00,6.06,1.62,9.06,2.06
5.00,2.00,282.88,-19.00,15.81,-0.69,-5.00,13.12,9.06,2.06
5.00,0.00,266.62,4.25,-105.50,24.50,7.31,12.81,9.60,2.08
5.00,1.00,273.38,-5.62,-52.94,0.31,5.94,1.19,9.60,2.08
5.00,2.00,282.62,-19.00,15.69,3.19,-3.00,12.38,9.60,2.08
5.00,0.00,266.19,4.50,-105.94,24.38,6.88,11.50,10.11,2.10
5.00,1.00,273.31,-5.69,-52.94,0.25,6.62,1.19,10.11,2.10
5.00,2.00,282.44,-19.06,15.56,4.75,-1.56,11.06,10.11,2.10
5.00,0.00,265.81,4.75,-106.44,25.75,4.31,12.94,10.72,2.12
5.00,1.00,273.19,-5.75,-53.00,0.12,6.31,1.62,10.72,2.12
5.00,2.00,282.19,-19.06,15.44,1.56,-1.56,10.94,10.72,2.12
5.00,0.00,265.44,5.00,-106.94,25.88,1.94,13.19,11.42,2.14
5.00,1.00,273.12,-5.81,-53.00,0.25,5.56,1.62,11.42,2.14
5.00,2.00,282.00,-19.06,15.38,-1.25,-3.12,10.75,11.42,2.14
5.00,0.00,265.12,5.19,-107.38,24.88,1.31,10.88,12.03,2.16
5.00,1.00,273.06,-5.81,-53.00,-0.06,3.75,0.62,12.03,2.16
5.00,2.00,281.75,-19.06,15.25,1.12,-2.69,11.25,12.03,2.16
5.00,0.00,264.94,5.38,-107.88,24.31,0.50,9.69,12.59,2.18
5.00,1.00,273.00,-5.88,-53.00,0.25,4.00,0.62,12.59,2.18
5.00,2.00,281.56,-19.12,15.12,2.12,-1.81,9.56,12.59,2.18
5.00,0.00,264.69,5.56,-108.38,25.50,-2.81,11.06,13.23,2.20
5.00,1.00,272.94,-5.88,-53.00,0.25,5.00,1.62,13.23,2.20
5.00,2.00,281.38,-19.12,15.06,0.69,-1.25,8.88,13.23,2.20
5.00,0.00,264.50,5.75,-108.88,25.44,-4.75,11.94,13.90,2.22
5.00,1.00,272.81,-5.94,-53.00,0.19,4.19,0.69,13.90,2.22
5.00,2.00,281.19,-19.12,15.00,-0.69,-2.56,11.00,13.90,2.22
5.00,0.00,264.31,5.88,-109.38,24.75,-3.44,10.19,14.51,2.24
5.00,1.00,272.81,-6.00,-53.00,0.06,4.56,0.44,14.51,2.24
5.00,2.00,281.00,-19.12,14.94,0.88,-1.81,11.06,14.51,2.24
5.00,0.00,264.12,6.06,-109.88,25.69,-3.12,9.44,15.13,2.26
5.00,1.00,272.75,-6.06,-53.06,-0.38,5.12,0.69,15.13,2.26
5.00,2.00,280.81,-19.19,14.88,1.38,-0.56,9.62,15.13,2.26
5.00,0.00,264.00,6.19,-110.38,25.69,-3.38,10.00,15.79,2.28
5.00,1.00,272.69,-6.06,-53.06,-0.62,5.38,0.50,15.79,2.28
5.00,2.00,280.56,-19.25,14.81,0.06,-0.50,10.44,15.79,2.28
5.00,0.00,263.81,6.38,-110.88,25.50,-4.12,11.00,16.46,2.30
5.00,1.00,272.62,-6.19,-53.06,-0.38,5.31,0.69,16.46,2.30
5.00,2.00,280.38,-19.31,14.75,-0.81,-1.12,11.75,16.46,2.30
5.00,0.00,263.56,6.56,-111.44,25.88,-3.06,11.69,17.14,2.32
5.00,1.00,272.56,-6.19,-53.06,-0.44,6.12,0.56,17.14,2.32
5.00,2.00,280.12,-19.31,14.69,-0.62,-1.69,12.62,17.14,2.32
5.00,0.00,263.31,6.75,-111.94,25.25,-1.25,10.44,17.77,2.34
5.00,1.00,272.50,-6.25,-53.06,-0.06,6.69,0.88,17.77,2.34
5.00,2.00,279.88,-19.38,14.56,0.75,-0.75,12.88,17.77,2.34
5.00,0.00,263.06,6.88,-112.38,23.88,-0.69,9.31,18.39,2.36
5.00,1.00,272.38,-6.31,-53.06,-0.94,7.88,2.19,18.39,2.36
5.00,2.00,279.62,-19.44,14.50,-0.44,-0.31,13.00,18.39,2.36
5.00,0.00,262.81,7.06,-112.88,22.56,-1.00,9.75,19.06,2.38
5.00,1.00,272.25,-6.38,-53.06,-1.38,8.19,2.38,19.06,2.38
5.00,2.00,279.31,-19.50,14.44,-3.50,-1.19,14.31,19.06,2.38
5.00,0.00,262.62,7.25,-113.25,21.12,-1.38,9.75,19.72,2.40
5.00,1.00,272.12,-6.44,-53.06,-1.88,8.56,2.81,19.72,2.40
5.00,2.00,279.00,-19.50,14.44,-4.69,-2.75,15.75,19.72,2.40
5.00,0.00,262.50,7.31,-113.50,20.50,-1.31,8.50,20.33,2.42
5.00,1.00,272.00,-6.50,-53.06,-1.19,9.12,3.12,20.33,2.42
5.00,2.00,278.69,-19.56,14.38,-3.50,-2.94,16.38,20.33,2.42
5.00,0.00,262.25,7.50,-114.06,20.75,-1.69,8.25,20.92,2.44
5.00,1.00,271.81,-6.56,-53.06,-1.38,9.38,3.75,20.92,2.44
5.00,2.00,278.38,-19.56,14.31,-2.19,-2.19,16.00,20.92,2.44
5.00,0.00,262.12,7.56,-114.25,21.00,-2.56,8.69,21.53,2.46
5.00,1.00,271.62,-6.62,-53.06,-1.62,9.94,3.94,21.53,2.46
5.00,2.00,278.06,-19.62,14.25,-2.75,-1.38,15.81,21.53,2.46
5.00,0.00,261.94,7.69,-114.88,21.00,-2.50,8.62,22.19,2.48
5.00,1.00,271.50,-6.69,-53.00,-2.06,10.31,3.69,22.19,2.48
5.00,2.00,277.69,-19.69,14.25,-4.88,-1.50,16.00,22.19,2.48
5.00,0.00,261.75,7.81,-115.25,19.81,-1.25,7.69,22.83,2.50
5.00,1.00,271.31,-6.75,-53.00,-1.88,9.62,3.50,22.83,2.50
5.00,2.00,277.38,-19.69,14.25,-5.44,-2.56,16.19,22.83,2.50
5.00,0.00,261.69,7.88,-115.44,18.44,-0.38,6.00,23.38,2.52
5.00,1.00,271.19,-6.81,-53.00,-2.75,9.19,2.75,23.38,2.52
5.00,2.00,277.06,-19.75,14.19,-2.94,-1.69,15.06,23.38,2.52
5.00,0.00,261.50,7.94,-115.75,18.69,-0.31,6.44,23.91,2.54
5.00,1.00,271.00,-6.88,-52.94,-2.25,8.94,2.94,23.91,2.54
5.00,2.00,276.75,-19.81,14.12,-2.06,0.00,14.00,23.91,2.54
5.00,0.00,261.31,8.06,-116.12,20.06,-1.06,8.25,24.51,2.56
5.00,1.00,270.88,-6.94,-52.94,-1.56,8.38,3.31,24.51,2.56
5.00,2.00,276.50,-19.88,14.12,-3.38,0.44,15.38,24.51,2.56
5.00,0.00,261.19,8.12,-116.44,18.88,-0.19,7.06,25.14,2.58
5.00,1.00,270.75,-6.94,-52.94,-1.50,8.44,2.88,25.14,2.58
5.00,2.00,276.12,-19.94,14.06,-5.69,0.62,17.19,25.14,2.58
5.00,0.00,261.00,8.19,-116.75,15.44,1.12,4.25,25.74,2.60
5.00,1.00,270.56,-7.00,-52.94,-1.31,8.94,3.56,25.74,2.60
5.00,2.00,275.75,-20.06,14.12,-7.81,-0.19,17.06,25.74,2.60
5.00,0.00,260.88,8.25,-116.94,12.69,1.50,1.81,26.26,2.62
5.00,1.00,270.38,-7.06,-52.94,-2.25,9.12,3.44,26.26,2.62
5.00,2.00,275.44,-20.12,14.19,-7.69,-0.94,16.25,26.26,2.62
5.00,0.00,260.75,8.31,-117.19,14.00,0.06,3.38,26.76,2.64
5.00,1.00,270.25,-7.12,-52.88,-2.75,9.19,2.94,26.76,2.64
5.00,2.00,275.12,-20.19,14.19,-5.50,1.06,15.25,26.76,2.64
5.00,0.00,260.62,8.38,-117.44,14.06,-0.19,3.62,27.24,2.66
5.00,1.00,270.12,-7.19,-52.81,-2.88,10.44,2.81,27.24,2.66
5.00,2.00,274.81,-20.31,14.19,-5.00,2.88,15.25,27.24,2.66
5.00,0.00,260.56,8.38,-117.75,14.19,-1.69,2.81,27.80,2.68
5.00,1.00,269.94,-7.31,-52.81,-2.75,12.38,3.00,27.80,2.68
5.00,2.00,274.50,-20.44,14.19,-7.44,2.69,16.50,27.80,2.68
5.00,0.00,260.50,8.38,-118.00,13.19,-1.94,2.81,28.37,2.70
5.00,1.00,269.75,-7.38,-52.75,-3.94,11.50,2.50,28.37,2.70
5.00,2.00,274.12,-20.56,14.25,-9.06,1.81,17.94,28.37,2.70
5.00,0.00,260.44,8.44,-118.25,11.75,-2.38,1.25,28.87,2.72
5.00,1.00,269.56,-7.50,-52.75,-3.06,12.38,2.06,28.87,2.72
5.00,2.00,273.75,-20.69,14.31,-7.94,0.94,18.19,28.87,2.72
5.00,0.00,260.44,8.44,-118.44,11.12,-3.00,0.94,29.33,2.74
5.00,1.00,269.44,-7.62,-52.69,-3.88,12.44,2.00,29.33,2.74
5.00,2.00,273.38,-20.81,14.31,-6.62,1.81,16.88,29.33,2.74
5.00,0.00,260.50,8.38,-118.69,11.19,-3.44,0.69,29.78,2.76
5.00,1.00,269.25,-7.75,-52.69,-4.12,12.31,1.69,29.78,2.76
5.00,2.00,273.00,-20.88,14.31,-6.44,2.00,16.62,29.78,2.76
5.00,0.00,260.56,8.38,-118.88,10.00,-2.88,-0.44,30.22,2.78
5.00,1.00,269.06,-7.88,-52.62,-3.81,12.69,1.69,30.22,2.78
5.00,2.00,272.69,-21.00,14.38,-7.44,2.31,16.50,30.22,2.78
5.00,0.00,260.62,8.31,-119.06,9.50,-2.38,-1.50,30.69,2.80
5.00,1.00,268.94,-7.94,-52.56,-3.75,12.31,2.19,30.69,2.80
5.00,2.00,272.31,-21.12,14.38,-8.81,0.50,16.88,30.69,2.80
5.00,0.00,260.69,8.25,-119.31,10.56,-2.69,-1.12,31.16,2.82
5.00,1.00,268.75,-8.06,-52.56,-3.56,11.69,2.81,31.16,2.82
5.00,2.00,272.00,-21.19,14.44,-7.75,-0.25,16.06,31.16,2.82
5.00,0.00,260.69,8.25,-119.50,12.62,-3.56,1.00,31.62,2.84
5.00,1.00,268.56,-8.12,-52.50,-4.06,10.44,3.12,31.62,2.84
5.00,2.00,271.69,-21.25,14.44,-5.25,1.19,15.25,31.62,2.84
5.00,0.00,260.75,8.19,-119.75,12.56,-3.06,0.06,32.07,2.86
5.00,1.00,268.44,-8.25,-52.44,-3.19,11.19,3.38,32.07,2.86
5.00,2.00,271.38,-21.38,14.44,-5.19,1.50,14.12,32.07,2.86
5.00,0.00,260.81,8.19,-120.00,12.25,-3.75,-0.50,32.54,2.88
5.00,1.00,268.25,-8.31,-52.44,-3.75,10.94,3.31,32.54,2.88
5.00,2.00,271.06,-21.44,14.44,-6.00,0.19,14.56,32.54,2.88
5.00,0.00,260.88,8.12,-120.25,13.31,-3.75,0.56,33.06,2.90
5.00,1.00,268.06,-8.38,-52.38,-3.44,10.88,2.94,33.06,2.90
5.00,2.00,270.75,-21.50,14.50,-6.88,-0.69,15.06,33.06,2.90
5.00,0.00,260.81,8.12,-120.50,12.88,-1.75,-0.50,33.53,2.92
5.00,1.00,267.88,-8.50,-52.38,-2.81,10.62,3.12,33.53,2.92
5.00,2.00,270.44,-21.56,14.50,-5.56,-1.19,15.00,33.53,2.92
5.00,0.00,260.81,8.12,-120.75,12.12,-0.50,-2.31,33.93,2.94
5.00,1.00,267.75,-8.56,-52.31,-3.38,9.00,2.81,33.93,2.94
5.00,2.00,270.19,-21.62,14.50,-3.50,0.25,14.50,33.93,2.94
5.00,0.00,260.75,8.06,-120.94,12.12,0.56,-1.06,34.34,2.96
5.00,1.00,267.62,-8.62,-52.25,-3.31,9.75,2.88,34.34,2.96
5.00,2.00,269.88,-21.69,14.50,-3.81,0.12,14.94,34.34,2.96
5.00,0.00,260.62,8.12,-121.19,12.69,1.31,0.50,34.83,2.98
5.00,1.00,267.44,-8.69,-52.25,-3.56,11.38,3.00,34.83,2.98
5.00,2.00,269.50,-21.75,14.50,-6.62,-1.38,16.31,34.83,2.98
5.00,0.00,260.50,8.12,-121.44,15.00,0.94,3.38,35.40,3.00
5.00,1.00,267.25,-8.81,-52.19,-2.88,12.88,2.81,35.40,3.00
5.00,2.00,269.19,-21.81,14.50,-7.44,-2.00,17.31,35.40,3.00
5.00,0.00,260.31,8.25,-121.75,14.25,2.00,2.88,35.95,3.02
5.00,1.00,267.06,-8.88,-52.19,-2.81,12.38,2.50,35.95,3.02
5.00,2.00,268.81,-21.88,14.50,-7.19,-1.62,17.75,35.95,3.02
5.00,0.00,260.12,8.25,-122.00,13.00,1.12,1.69,36.44,3.04
5.00,1.00,266.94,-9.00,-52.19,-3.44,11.75,2.62,36.44,3.04
5.00,2.00,268.44,-21.94,14.50,-5.88,-1.12,17.56,36.44,3.04
5.00,0.00,260.00,8.31,-122.25,13.12,0.38,2.75,36.93,3.06
5.00,1.00,266.75,-9.12,-52.12,-3.06,12.19,2.06,36.93,3.06
5.00,2.00,268.06,-22.00,14.44,-6.00,-1.00,17.44,36.93,3.06
5.00,0.00,259.88,8.31,-122.44,12.06,1.75,1.56,37.41,3.08
5.00,1.00,266.56,-9.25,-52.12,-2.44,14.00,2.56,37.41,3.08
5.00,2.00,267.69,-22.06,14.44,-6.88,-1.56,17.81,37.41,3.08
5.00,0.00,259.81,8.31,-122.56,9.38,1.56,-0.50,37.83,3.10
5.00,1.00,266.38,-9.38,-52.12,-3.31,13.06,3.06,37.83,3.10
5.00,2.00,267.31,-22.12,14.44,-6.88,-1.38,18.00,37.83,3.10
5.00,0.00,259.81,8.31,-122.69,8.81,1.94,-0.69,38.24,3.12
5.00,1.00,266.19,-9.44,-52.06,-4.19,12.94,3.31,38.24,3.12
5.00,2.00,266.94,-22.19,14.44,-7.50,-0.69,18.19,38.24,3.12
5.00,0.00,259.69,8.31,-122.88,9.94,0.88,0.81,38.71,3.14
5.00,1.00,266.00,-9.56,-52.00,-4.19,12.81,3.31,38.71,3.14
5.00,2.00,266.56,-22.25,14.50,-8.31,-0.75,18.50,38.71,3.14
5.00,0.00,259.56,8.38,-123.12,10.69,1.25,2.06,39.18,3.16
5.00,1.00,265.81,-9.69,-52.00,-3.25,13.69,2.44,39.18,3.16
5.00,2.00,266.12,-22.31,14.50,-7.56,-0.50,18.25,39.18,3.16
5.00,0.00,259.44,8.38,-123.25,9.56,1.12,0.44,39.61,3.18
5.00,1.00,265.62,-9.81,-52.00,-3.94,13.44,2.94,39.61,3.18
5.00,2.00,265.75,-22.44,14.50,-7.25,0.12,18.12,39.61,3.18
5.00,0.00,259.44,8.31,-123.38,9.38,-0.38,-0.19,40.04,3.20
5.00,1.00,265.44,-9.94,-51.94,-4.25,14.50,2.88,40.04,3.20
5.00,2.00,265.38,-22.50,14.50,-7.62,-0.81,18.38,40.04,3.20
5.00,0.00,259.50,8.31,-123.56,8.69,-1.19,-0.25,40.46,3.22
5.00,1.00,265.19,-10.00,-51.88,-5.06,13.06,3.50,40.46,3.22
5.00,2.00,265.00,-22.56,14.50,-7.62,-1.06,18.75,40.46,3.22
5.00,0.00,259.62,8.19,-123.62,6.31,-1.12,-2.62,40.83,3.24
5.00,1.00,265.00,-10.12,-51.88,-4.75,14.31,3.62,40.83,3.24
5.00,2.00,264.62,-22.62,14.50,-8.12,-1.38,19.06,40.83,3.24
5.00,0.00,259.81,8.12,-123.69,5.38,-2.62,-4.56,41.17,3.26
5.00,1.00,264.81,-10.25,-51.81,-6.00,13.88,3.56,41.17,3.26
5.00,2.00,264.19,-22.69,14.56,-8.00,-1.44,18.25,41.17,3.26
5.00,0.00,260.00,8.00,-123.81,7.62,-4.81,-3.12,41.56,3.28
5.00,1.00,264.56,-10.38,-51.75,-6.12,12.75,3.75,41.56,3.28
5.00,2.00,263.81,-22.75,14.56,-7.44,-1.88,17.81,41.56,3.28
5.00,0.00,260.25,7.88,-124.00,8.75,-5.12,-2.06,41.95,3.30
5.00,1.00,264.38,-10.50,-51.69,-4.88,14.31,3.00,41.95,3.30
5.00,2.00,263.50,-22.75,14.62,-6.69,-0.75,17.06,41.95,3.30
5.00,0.00,260.44,7.75,-124.12,9.12,-5.25,-1.88,42.35,3.32
5.00,1.00,264.19,-10.56,-51.62,-5.62,12.62,2.88,42.35,3.32
5.00,2.00,263.12,-22.88,14.62,-6.31,0.62,16.06,42.35,3.32
5.00,0.00,260.56,7.69,-124.25,7.06,-3.50,-2.44,42.69,3.34
5.00,1.00,264.00,-10.69,-51.50,-6.31,11.94,2.81,42.69,3.34
5.00,2.00,262.81,-22.94,14.69,-6.25,0.69,15.19,42.69,3.34
5.00,0.00,260.75,7.56,-124.31,5.88,-3.12,-3.81,42.99,3.36
5.00,1.00,263.81,-10.75,-51.44,-6.88,11.31,2.69,42.99,3.36
5.00,2.00,262.50,-23.00,14.69,-6.00,0.75,14.88,42.99,3.36
5.00,0.00,260.88,7.50,-124.38,6.12,-3.62,-3.75,43.31,3.38
5.00,1.00,263.69,-10.88,-51.38,-6.75,10.81,1.62,43.31,3.38
5.00,2.00,262.25,-23.00,14.75,-6.31,0.31,14.25,43.31,3.38
5.00,0.00,261.00,7.44,-124.50,6.31,-2.25,-5.44,43.61,3.40
5.00,1.00,263.56,-11.00,-51.25,-5.81,10.06,0.50,43.61,3.40
5.00,2.00,262.00,-23.06,14.88,-5.25,1.12,12.44,43.61,3.40
5.00,0.00,261.00,7.38,-124.56,6.50,-0.31,-7.19,43.90,3.42
5.00,1.00,263.44,-11.12,-51.19,-4.88,10.12,0.06,43.90,3.42
5.00,2.00,261.75,-23.19,14.88,-5.00,1.94,11.62,43.90,3.42
5.00,0.00,260.94,7.31,-124.69,8.44,1.25,-4.19,44.26,3.44
5.00,1.00,263.38,-11.25,-51.12,-5.62,8.94,-0.44,44.26,3.44
5.00,2.00,261.50,-23.25,14.94,-5.75,3.69,11.38,44.26,3.44
5.00,0.00,260.62,7.44,-124.81,9.56,4.75,-0.12,44.70,3.46
5.00,1.00,263.25,-11.38,-51.06,-5.81,9.50,-0.44,44.70,3.46
5.00,2.00,261.25,-23.38,15.00,-7.50,3.31,11.81,44.70,3.46
5.00,0.00,260.12,7.62,-124.94,10.31,9.81,3.56,45.17,3.48
5.00,1.00,263.19,-11.50,-50.94,-6.12,9.19,-0.12,45.17,3.48
5.00,2.00,261.00,-23.50,15.06,-7.94,2.25,11.25,45.17,3.48
5.00,0.00,259.44,7.88,-125.06,8.94,13.75,4.19,45.59,3.50
5.00,1.00,263.06,-11.56,-50.88,-5.88,9.12,-0.31,45.59,3.50
5.00,2.00,260.81,-23.56,15.12,-7.69,1.94,10.38,45.59,3.50
5.00,0.00,258.81,8.06,-125.19,7.19,13.12,3.12,45.96,3.52
5.00,1.00,263.00,-11.69,-50.75,-6.06,8.62,-0.56,45.96,3.52
5.00,2.00,260.56,-23.62,15.25,-7.19,1.94,9.50,45.96,3.52
5.00,0.00,258.31,8.25,-125.25,7.31,10.19,2.88,46.31,3.54
5.00,1.00,262.94,-11.81,-50.69,-6.31,7.56,-0.88,46.31,3.54
5.00,2.00,260.38,-23.69,15.31,-6.19,0.50,8.75,46.31,3.54
5.00,0.00,258.00,8.38,-125.38,7.19,7.19,2.38,46.60,3.56
5.00,1.00,262.88,-11.94,-50.56,-5.69,7.00,-1.31,46.60,3.56
5.00,2.00,260.25,-23.75,15.38,-4.12,0.81,7.50,46.60,3.56
5.00,0.00,257.81,8.38,-125.50,7.44,2.19,1.38,46.89,3.58
5.00,1.00,262.81,-12.06,-50.50,-5.25,6.44,-1.19,46.89,3.58
5.00,2.00,260.06,-23.75,15.44,-4.19,0.94,6.81,46.89,3.58
5.00,0.00,257.75,8.44,-125.69,9.38,-1.31,3.50,47.24,3.60
5.00,1.00,262.75,-12.12,-50.44,-5.06,6.00,-1.00,47.24,3.60
5.00,2.00,259.94,-23.81,15.50,-3.94,-0.12,6.50,47.24,3.60
5.00,0.00,257.69,8.50,-125.81,10.00,-1.31,4.81,47.55,3.62
5.00,1.00,262.75,-12.25,-50.31,-4.50,5.38,-0.94,47.55,3.62
5.00,2.00,259.81,-23.81,15.50,-2.38,-1.00,5.81,47.55,3.62
5.00,0.00,257.44,8.56,-125.94,9.06,1.62,4.94,47.82,3.64
5.00,1.00,262.69,-12.31,-50.25,-4.75,4.19,-0.94,47.82,3.64
5.00,2.00,259.69,-23.81,15.56,-1.56,-1.56,5.56,47.82,3.64
5.00,0.00,257.19,8.69,-125.94,5.12,5.12,2.88,48.01,3.66
5.00,1.00,262.69,-12.38,-50.19,-5.12,4.00,-0.75,48.01,3.66
5.00,2.00,259.62,-23.81,15.56,-2.31,-0.81,5.38,48.01,3.66
5.00,0.00,256.94,8.81,-126.00,2.62,6.62,0.88,48.17,3.68
5.00,1.00,262.62,-12.44,-50.06,-4.56,4.81,-0.75,48.17,3.68
5.00,2.00,259.50,-23.81,15.56,-3.50,-0.56,6.44,48.17,3.68
5.00,0.00,256.62,8.88,-126.00,3.44,6.81,1.94,48.33,3.70
5.00,1.00,262.56,-12.50,-50.00,-4.31,4.81,-1.06,48.33,3.70
5.00,2.00,259.31,-23.81,15.62,-2.88,-0.94,6.12,48.33,3.70
5.00,0.00,256.31,9.00,-126.12,4.81,5.00,3.44,48.50,3.72
5.00,1.00,262.56,-12.56,-49.94,-3.69,5.12,-0.94,48.50,3.72
5.00,2.00,259.25,-23.81,15.62,-1.62,-0.69,5.31,48.50,3.72
5.00,0.00,256.12,9.06,-126.19,5.44,2.31,4.00,48.68,3.74
5.00,1.00,262.50,-12.69,-49.88,-3.56,5.12,-1.06,48.68,3.74
5.00,2.00,259.12,-23.81,15.62,-1.81,-0.62,5.12,48.68,3.74
5.00,0.00,256.06,9.12,-126.19,3.81,2.06,2.56,48.84,3.76
5.00,1.00,262.50,-12.75,-49.81,-3.62,4.88,-2.00,48.84,3.76
5.00,2.00,259.06,-23.81,15.69,-2.12,-0.06,4.88,48.84,3.76
5.00,0.00,255.94,9.12,-126.19,2.81,2.88,0.19,48.89,3.78
5.00,1.00,262.50,-12.88,-49.75,-3.81,4.62,-2.81,48.89,3.78
5.00,2.00,258.94,-23.81,15.69,0.56,0.75,4.38,48.89,3.78
5.00,0.00,255.94,9.12,-126.19,2.56,3.69,-1.50,48.92,3.80
5.00,1.00,262.50,-12.94,-49.69,-4.44,4.44,-2.69,48.92,3.80
5.00,2.00,258.88,-23.88,15.69,1.31,2.56,4.00,48.92,3.80
5.00,0.00,255.88,9.06,-126.19,2.44,3.25,-1.81,49.02,3.82
5.00,1.00,262.50,-13.06,-49.62,-4.81,5.56,-2.62,49.02,3.82
5.00,2.00,258.81,-23.94,15.62,-1.25,2.75,4.06,49.02,3.82
5.00,0.00,255.88,9.06,-126.25,3.19,2.06,0.31,49.18,3.84
5.00,1.00,262.50,-13.19,-49.56,-4.62,6.06,-3.62,49.18,3.84
5.00,2.00,258.75,-24.00,15.69,-3.12,3.31,4.88,49.18,3.84
5.00,0.00,255.81,9.12,-126.31,3.25,0.06,0.38,49.31,3.86
5.00,1.00,262.50,-13.31,-49.44,-3.88,6.56,-4.56,49.31,3.86
5.00,2.00,258.62,-24.12,15.69,-1.81,3.06,4.19,49.31,3.86
5.00,0.00,255.88,9.06,-126.38,3.50,-4.62,-1.44,49.37,3.88
5.00,1.00,262.50,-13.50,-49.38,-3.19,6.62,-4.31,49.37,3.88
5.00,2.00,258.56,-24.19,15.62,1.31,3.94,3.12,49.37,3.88
5.00,0.00,256.25,8.94,-126.50,4.25,-11.25,-1.81,49.43,3.90
5.00,1.00,262.50,-13.56,-49.38,-4.25,5.88,-3.38,49.43,3.90
5.00,2.00,258.56,-24.31,15.62,1.88,4.75,2.06,49.43,3.90
5.00,0.00,256.81,8.75,-126.56,4.38,-15.62,-2.06,49.55,3.92
5.00,1.00,262.50,-13.69,-49.25,-3.88,5.81,-2.88,49.55,3.92
5.00,2.00,258.50,-24.38,15.56,-0.44,3.00,3.31,49.55,3.92
5.00,0.00,257.50,8.44,-126.69,4.38,-17.75,-4.12,49.66,3.94
5.00,1.00,262.50,-13.75,-49.25,-3.94,5.19,-3.00,49.66,3.94
5.00,2.00,258.44,-24.44,15.56,0.25,1.88,3.06,49.66,3.94
5.00,0.00,258.25,8.19,-126.81,4.31,-18.62,-5.38,49.75,3.96
5.00,1.00,262.50,-13.94,-49.12,-3.81,4.19,-2.06,49.75,3.96
5.00,2.00,258.44,-24.44,15.56,0.69,1.25,2.56,49.75,3.96
5.00,0.00,258.94,7.94,-126.94,3.62,-16.69,-4.44,49.84,3.98
5.00,1.00,262.50,-14.00,-49.06,-3.56,3.94,-1.88,49.84,3.98
5.00,2.00,258.38,-24.50,15.56,0.06,2.06,2.25,49.84,3.98
5.00,0.00,259.44,7.75,-126.94,2.81,-11.81,-2.75,49.94,4.00
5.00,1.00,262.50,-14.06,-49.06,-3.38,4.00,-2.06,49.94,4.00
5.00,2.00,258.31,-24.56,15.56,-0.94,2.19,2.31,49.94,4.00
5.00,0.00,259.56,7.69,-127.00,2.81,-6.19,-1.31,50.01,4.02
5.00,1.00,262.50,-14.12,-49.00,-3.19,4.25,-2.00,50.01,4.02
5.00,2.00,258.31,-24.62,15.56,-0.25,2.19,1.12,50.01,4.02
5.00,0.00,259.44,7.75,-127.00,3.50,-0.75,-0.56,50.12,4.04
5.00,1.00,262.50,-14.19,-48.94,-2.62,4.06,-2.25,50.12,4.04
5.00,2.00,258.31,-24.62,15.56,-0.50,1.62,0.81,50.12,4.04
5.00,0.00,259.19,7.88,-127.00,2.38,6.12,0.12,50.21,4.06
5.00,1.00,262.50,-14.31,-48.88,-3.19,3.00,-2.31,50.21,4.06
5.00,2.00,258.31,-24.69,15.62,-1.12,1.69,0.19,50.21,4.06
5.00,0.00,258.94,7.94,-127.00,1.06,12.69,0.75,50.28,4.08
5.00,1.00,262.50,-14.38,-48.81,-2.62,3.06,-1.94,50.28,4.08
5.00,2.00,258.31,-24.69,15.62,-1.75,0.69,0.38,50.28,4.08
5.00,0.00,258.38,8.12,-126.94,0.38,17.12,1.25,50.30,4.10
5.00,1.00,262.50,-14.44,-48.81,-2.38,2.56,-1.88,50.30,4.10
5.00,2.00,258.31,-24.69,15.69,-0.50,0.44,0.31,50.30,4.10
5.00,0.00,257.69,8.38,-126.94,-0.19,19.00,0.94,50.31,4.12
5.00,1.00,262.50,-14.50,-48.75,-2.81,2.06,-1.69,50.31,4.12
5.00,2.00,258.31,-24.69,15.69,-0.56,1.12,0.81,50.31,4.12
5.00,0.00,256.94,8.62,-126.88,-0.94,19.06,0.75,50.33,4.14
5.00,1.00,262.50,-14.50,-48.69,-2.81,2.69,-1.75,50.33,4.14
5.00,2.00,258.25,-24.75,15.75,-1.88,1.31,1.31,50.33,4.14
5.00,0.00,256.25,8.81,-126.81,-1.38,16.88,0.06,50.36,4.16
5.00,1.00,262.50,-14.62,-48.62,-2.94,2.75,-1.38,50.36,4.16
5.00,2.00,258.25,-24.75,15.75,-2.50,2.12,1.62,50.36,4.16
5.00,0.00,255.69,9.00,-126.75,-1.19,11.12,-0.75,50.43,4.18
5.00,1.00,262.50,-14.62,-48.62,-3.00,3.31,-0.81,50.43,4.18
5.00,2.00,258.19,-24.81,15.81,-3.88,2.31,1.62,50.43,4.18
5.00,0.00,255.38,9.12,-126.69,-0.75,3.69,-1.56,50.52,4.20
5.00,1.00,262.50,-14.69,-48.56,-3.12,3.12,-0.75,50.52,4.20
5.00,2.00,258.12,-24.88,15.88,-4.12,2.19,2.00,50.52,4.20
5.00,0.00,255.31,9.12,-126.69,-0.38,-0.56,-2.25,50.61,4.22
5.00,1.00,262.44,-14.75,-48.50,-3.62,2.50,-1.19,50.61,4.22
5.00,2.00,258.12,-24.94,16.00,-4.00,3.06,2.00,50.61,4.22
5.00,0.00,256.00,8.81,-126.69,0.75,-12.62,-5.31,50.71,4.24
5.00,1.00,262.44,-14.81,-48.44,-3.56,3.12,-1.31,50.71,4.24
5.00,2.00,258.06,-25.00,16.06,-2.94,3.81,0.75,50.71,4.24
5.00,0.00,256.62,8.56,-126.69,0.12,-16.00,-7.19,50.79,4.26
5.00,1.00,262.44,-14.88,-48.38,-3.31,2.94,-1.38,50.79,4.26
5.00,2.00,258.06,-25.06,16.12,-3.06,3.00,1.00,50.79,4.26
5.00,0.00,257.38,8.25,-126.75,-0.25,-16.88,-7.50,50.85,4.28
5.00,1.00,262.44,-14.94,-48.31,-3.75,3.19,-1.38,50.85,4.28
5.00,2.00,258.06,-25.12,16.19,-2.56,3.31,0.44,50.85,4.28
5.00,0.00,258.12,7.94,-126.75,-1.81,-14.81,-6.38,50.89,4.30
5.00,1.00,262.44,-15.00,-48.25,-3.62,2.81,-1.69,50.89,4.30
5.00,2.00,258.06,-25.19,16.25,-3.62,3.94,0.44,50.89,4.30
5.00,0.00,258.81,7.69,-126.75,-2.12,-13.00,-5.50,50.92,4.32
5.00,1.00,262.44,-15.06,-48.19,-3.50,2.25,-1.94,50.92,4.32
5.00,2.00,258.00,-25.25,16.31,-3.25,3.38,0.69,50.92,4.32
5.00,0.00,259.25,7.50,-126.69,-1.25,-7.44,-3.00,50.95,4.34
5.00,1.00,262.44,-15.12,-48.12,-3.25,2.12,-1.81,50.95,4.34
5.00,2.00,258.00,-25.31,16.38,-2.19,2.81,0.31,50.95,4.34
5.00,0.00,259.50,7.44,-126.69,-1.12,-4.19,-2.00,50.98,4.36
5.00,1.00,262.44,-15.19,-48.06,-3.00,1.94,-1.81,50.98,4.36
5.00,2.00,258.00,-25.38,16.44,-2.31,2.62,0.00,50.98,4.36
5.00,0.00,259.62,7.38,-126.69,-1.19,-2.06,-1.50,51.00,4.38
5.00,1.00,262.44,-15.19,-48.00,-2.56,2.38,-1.88,51.00,4.38
5.00,2.00,258.00,-25.44,16.50,-2.25,3.12,-0.44,51.00,4.38
5.00,0.00,259.56,7.38,-126.62,-1.44,2.88,-0.69,51.04,4.40
5.00,1.00,262.44,-15.25,-47.94,-3.06,1.56,-1.69,51.04,4.40
5.00,2.00,258.00,-25.50,16.56,-2.81,2.31,-0.31,51.04,4.40
5.00,0.00,259.50,7.44,-126.69,1.38,1.62,0.94,51.15,4.42
5.00,1.00,262.50,-15.31,-47.88,-2.56,1.50,-1.75,51.15,4.42
5.00,2.00,258.00,-25.50,16.62,-3.19,1.56,-0.06,51.15,4.42
5.00,0.00,259.50,7.44,-126.69,0.38,-0.50,-0.38,51.22,4.44
5.00,1.00,262.50,-15.38,-47.81,-2.00,2.31,-2.06,51.22,4.44
5.00,2.00,258.00,-25.56,16.69,-2.06,2.25,-0.19,51.22,4.44
5.00,0.00,259.56,7.38,-126.69,0.25,-2.69,-0.31,51.27,4.46
5.00,1.00,262.50,-15.44,-47.81,-2.56,1.00,-1.69,51.27,4.46
5.00,2.00,258.00,-25.56,16.75,-1.69,1.88,-0.31,51.27,4.46
5.00,0.00,259.69,7.38,-126.69,0.31,-2.38,0.62,51.30,4.48
5.00,1.00,262.50,-15.44,-47.75,-2.94,0.56,-1.75,51.30,4.48
5.00,2.00,258.00,-25.62,16.81,-1.00,1.06,-1.19,51.30,4.48
5.00,0.00,259.69,7.38,-126.69,0.31,-0.50,1.38,51.35,4.50
5.00,1.00,262.50,-15.50,-47.69,-2.19,0.88,-0.62,51.35,4.50
5.00,2.00,258.00,-25.62,16.81,-1.50,0.75,-0.50,51.35,4.50
5.00,0.00,259.69,7.38,-126.69,0.62,0.19,1.38,51.41,4.52
5.00,1.00,262.50,-15.50,-47.69,-2.25,0.69,-0.44,51.41,4.52
5.00,2.00,258.00,-25.62,16.88,-1.88,0.00,-0.50,51.41,4.52
5.00,0.00,259.69,7.38,-126.69,0.69,0.19,0.25,51.46,4.54
5.00,1.00,262.50,-15.50,-47.62,-1.69,0.44,-0.81,51.46,4.54
5.00,2.00,258.06,-25.56,16.94,-1.19,-0.62,-1.00,51.46,4.54
5.00,0.00,259.62,7.38,-126.69,0.88,0.81,-0.31,51.48,4.56
5.00,1.00,262.50,-15.50,-47.62,-0.81,0.62,-1.06,51.48,4.56
5.00,2.00,258.06,-25.56,16.94,-0.12,0.25,-2.56,51.48,4.56
5.00,0.00,259.56,7.44,-126.69,0.75,1.75,-0.44,51.49,4.58
5.00,1.00,262.56,-15.56,-47.56,-0.56,0.31,-1.19,51.49,4.58
5.00,2.00,258.12,-25.56,17.00,0.69,0.31,-3.19,51.49,4.58
5.00,0.00,259.50,7.44,-126.69,-0.31,2.31,-0.31,51.49,4.60
5.00,1.00,262.56,-15.56,-47.56,-1.19,-1.88,-0.81,51.49,4.60
5.00,2.00,258.19,-25.56,17.00,-0.31,0.00,-3.00,51.49,4.60
5.00,0.00,259.44,7.44,-126.62,-0.69,3.31,0.06,51.50,4.62
5.00,1.00,262.62,-15.56,-47.50,-0.75,-0.94,-0.75,51.50,4.62
5.00,2.00,258.25,-25.56,17.06,-1.25,-0.56,-2.00,51.50,4.62
5.00,0.00,259.38,7.50,-126.62,-0.06,2.25,0.94,51.52,4.64
5.00,1.00,262.62,-15.56,-47.44,-1.19,-2.19,-0.44,51.52,4.64
5.00,2.00,258.25,-25.50,17.12,-0.81,-0.81,-2.00,51.52,4.64
5.00,0.00,259.31,7.50,-126.62,0.31,1.88,1.25,51.53,4.66
5.00,1.00,262.62,-15.56,-47.44,0.56,-2.06,0.25,51.53,4.66
5.00,2.00,258.31,-25.50,17.19,0.00,-2.00,-2.50,51.53,4.66
5.00,0.00,259.25,7.50,-126.56,-0.19,1.81,1.31,51.49,4.68
5.00,1.00,262.69,-15.56,-47.38,1.06,-2.31,0.50,51.49,4.68
5.00,2.00,258.38,-25.44,17.25,1.12,-2.19,-3.38,51.49,4.68
5.00,0.00,259.19,7.56,-126.50,-1.00,2.56,1.69,51.42,4.70
5.00,1.00,262.69,-15.50,-47.38,1.50,-2.75,0.81,51.42,4.70
5.00,2.00,258.50,-25.38,17.25,2.00,-2.00,-3.50,51.42,4.70
5.00,0.00,259.00,7.62,-126.50,-0.38,3.31,2.62,51.35,4.72
5.00,1.00,262.75,-15.50,-47.44,1.44,-3.25,0.75,51.35,4.72
5.00,2.00,258.56,-25.31,17.25,2.06,-1.81,-4.12,51.35,4.72
5.00,0.00,258.88,7.69,-126.50,-0.38,1.12,2.50,51.30,4.74
5.00,1.00,262.75,-15.50,-47.38,1.38,-3.44,0.56,51.30,4.74
5.00,2.00,258.62,-25.25,17.31,1.88,-3.12,-4.19,51.30,4.74
5.00,0.00,258.88,7.75,-126.44,0.69,0.19,2.50,51.23,4.76
5.00,1.00,262.81,-15.44,-47.38,2.06,-4.12,0.88,51.23,4.76
5.00,2.00,258.75,-25.19,17.31,3.12,-2.19,-5.62,51.23,4.76
5.00,0.00,258.81,7.75,-126.38,-0.31,0.69,1.88,51.13,4.78
5.00,1.00,262.88,-15.38,-47.44,2.06,-4.19,0.88,51.13,4.78
5.00,2.00,258.94,-25.12,17.31,3.94,-1.62,-7.75,51.13,4.78
5.00,0.00,258.75,7.81,-126.31,-1.44,1.12,1.31,50.98,4.80
5.00,1.00,262.88,-15.31,-47.44,1.56,-5.62,1.12,50.98,4.80
5.00,2.00,259.12,-25.00,17.38,4.19,-2.19,-8.88,50.98,4.80
