Iteration,IMUNo,OrientationX (deg),OrientationY,OrientationZ,GyroX (20rad/sec),GyroY,GyroZ,Elbow_Pos (rad),Time (sec)
52.00,0.00,265.69,3.94,-95.69,-0.88,-0.12,-0.12,-0.03,1.02
52.00,1.00,281.56,-3.25,-55.75,-0.50,-0.25,-0.31,-0.03,1.02
52.00,2.00,291.44,-18.06,13.56,-0.19,0.25,0.25,-0.03,1.02
52.00,0.00,265.69,3.94,-95.69,-0.69,0.75,-0.31,-0.04,1.04
52.00,1.00,281.56,-3.25,-55.75,-0.56,-0.50,-0.44,-0.04,1.04
52.00,2.00,291.44,-18.06,13.56,-0.50,0.00,0.56,-0.04,1.04
52.00,0.00,265.69,3.94,-95.62,-0.56,0.56,-0.19,-0.04,1.06
52.00,1.00,281.56,-3.25,-55.75,-0.19,-0.31,-0.38,-0.04,1.06
52.00,2.00,291.44,-18.06,13.56,-0.50,0.00,0.44,-0.04,1.06
52.00,0.00,265.69,3.94,-95.62,-0.56,1.38,-0.12,-0.05,1.08
52.00,1.00,281.56,-3.25,-55.75,-0.75,-0.50,0.00,-0.05,1.08
52.00,2.00,291.44,-18.06,13.56,-0.38,-0.50,0.44,-0.05,1.08
52.00,0.00,265.69,4.00,-95.62,-0.62,1.19,-0.06,-0.05,1.10
52.00,1.00,281.56,-3.25,-55.75,-0.19,-0.19,0.12,-0.05,1.10
52.00,2.00,291.44,-18.06,13.56,-0.56,0.00,0.38,-0.05,1.10
52.00,0.00,265.62,4.00,-95.62,-0.56,1.38,0.00,-0.05,1.12
52.00,1.00,281.56,-3.25,-55.75,-0.25,-0.38,-0.06,-0.05,1.12
52.00,2.00,291.38,-18.06,13.56,-0.50,-0.50,0.81,-0.05,1.12
52.00,0.00,265.62,4.00,-95.62,-0.62,1.00,-0.06,-0.06,1.14
52.00,1.00,281.56,-3.25,-55.75,-0.25,-0.25,-0.19,-0.06,1.14
52.00,2.00,291.38,-18.06,13.56,-0.31,-0.06,0.06,-0.06,1.14
52.00,0.00,265.62,4.00,-95.62,-0.81,0.31,-0.06,-0.09,1.16
52.00,1.00,281.56,-3.25,-55.75,-0.81,0.25,-0.44,-0.09,1.16
52.00,2.00,291.38,-18.06,13.56,-0.06,0.19,-0.31,-0.09,1.16
52.00,0.00,265.62,4.00,-95.62,-0.69,0.44,0.06,-0.10,1.18
52.00,1.00,281.56,-3.25,-55.69,-1.19,-0.31,-0.12,-0.10,1.18
52.00,2.00,291.38,-18.06,13.62,-0.44,-0.44,-0.06,-0.10,1.18
52.00,0.00,265.62,4.00,-95.62,-0.75,0.50,0.12,-0.13,1.20
52.00,1.00,281.56,-3.25,-55.69,-0.44,-0.25,0.31,-0.13,1.20
52.00,2.00,291.38,-18.06,13.62,-0.25,-0.81,0.00,-0.13,1.20
52.00,0.00,265.62,4.00,-95.56,-0.38,1.19,0.12,-0.15,1.22
52.00,1.00,281.56,-3.25,-55.69,-0.25,-0.25,0.06,-0.15,1.22
52.00,2.00,291.38,-18.06,13.62,0.31,-0.56,0.00,-0.15,1.22
52.00,0.00,265.56,4.00,-95.56,-0.19,1.31,0.12,-0.17,1.24
52.00,1.00,281.56,-3.25,-55.69,-0.50,-0.31,0.19,-0.17,1.24
52.00,2.00,291.38,-18.06,13.62,0.25,-0.19,0.31,-0.17,1.24
52.00,0.00,265.56,4.00,-95.56,-0.50,1.19,0.06,-0.19,1.26
52.00,1.00,281.56,-3.25,-55.69,-0.31,0.00,0.00,-0.19,1.26
52.00,2.00,291.38,-18.06,13.69,0.00,-0.62,0.81,-0.19,1.26
52.00,0.00,265.50,4.00,-95.56,-0.62,1.06,0.25,-0.24,1.28
52.00,1.00,281.56,-3.25,-55.69,-0.25,-0.19,-0.25,-0.24,1.28
52.00,2.00,291.38,-18.06,13.69,0.50,-0.25,0.50,-0.24,1.28
52.00,0.00,265.50,4.00,-95.56,-0.38,1.06,-0.12,-0.28,1.30
52.00,1.00,281.56,-3.25,-55.69,-0.50,-0.06,-0.44,-0.28,1.30
52.00,2.00,291.38,-18.12,13.69,0.56,-0.12,0.38,-0.28,1.30
52.00,0.00,265.50,4.00,-95.56,-0.50,1.62,-0.19,-0.30,1.32
52.00,1.00,281.56,-3.25,-55.69,-0.44,0.19,-0.25,-0.30,1.32
52.00,2.00,291.38,-18.12,13.69,0.00,-0.38,0.56,-0.30,1.32
52.00,0.00,265.44,4.00,-95.56,-0.56,1.44,-0.12,-0.30,1.34
52.00,1.00,281.56,-3.25,-55.69,-0.62,0.44,-0.19,-0.30,1.34
52.00,2.00,291.38,-18.12,13.69,-0.50,-0.50,0.81,-0.30,1.34
52.00,0.00,265.38,4.00,-95.56,-0.44,1.62,0.12,-0.28,1.36
52.00,1.00,281.56,-3.25,-55.69,-1.06,0.44,-0.06,-0.28,1.36
52.00,2.00,291.38,-18.12,13.69,-0.94,-0.38,1.06,-0.28,1.36
52.00,0.00,265.38,4.00,-95.56,-0.50,1.94,-0.12,-0.26,1.38
52.00,1.00,281.56,-3.25,-55.62,-1.06,0.19,0.50,-0.26,1.38
52.00,2.00,291.31,-18.12,13.69,-0.94,-0.62,0.94,-0.26,1.38
52.00,0.00,265.31,4.00,-95.56,-0.88,2.19,0.06,-0.27,1.40
52.00,1.00,281.56,-3.25,-55.62,-0.75,0.62,0.19,-0.27,1.40
52.00,2.00,291.31,-18.12,13.75,-0.75,-0.75,0.81,-0.27,1.40
52.00,0.00,265.25,4.00,-95.50,-0.94,2.31,-0.12,-0.27,1.42
52.00,1.00,281.56,-3.25,-55.62,-1.00,0.44,0.25,-0.27,1.42
52.00,2.00,291.31,-18.12,13.75,-0.88,-0.88,1.12,-0.27,1.42
52.00,0.00,265.19,4.00,-95.50,-1.56,3.19,-0.25,-0.27,1.44
52.00,1.00,281.56,-3.25,-55.56,-1.38,0.88,0.31,-0.27,1.44
52.00,2.00,291.25,-18.06,13.75,-1.44,-1.00,1.19,-0.27,1.44
52.00,0.00,265.12,4.00,-95.44,-1.38,3.12,0.00,-0.27,1.46
52.00,1.00,281.56,-3.31,-55.56,-1.00,1.00,0.38,-0.27,1.46
52.00,2.00,291.25,-18.06,13.81,-1.56,-0.88,1.44,-0.27,1.46
52.00,0.00,265.06,4.00,-95.44,-1.19,2.88,0.06,-0.26,1.48
52.00,1.00,281.56,-3.31,-55.56,-1.44,0.75,0.19,-0.26,1.48
52.00,2.00,291.19,-18.06,13.81,-1.38,-0.75,1.50,-0.26,1.48
52.00,0.00,265.00,4.00,-95.44,-0.94,3.31,0.44,-0.22,1.50
52.00,1.00,281.50,-3.31,-55.50,-1.56,0.44,0.25,-0.22,1.50
52.00,2.00,291.12,-18.06,13.88,-1.88,-0.31,1.56,-0.22,1.50
52.00,0.00,264.94,4.06,-95.44,-0.38,3.56,0.62,-0.11,1.52
52.00,1.00,281.50,-3.31,-55.50,-1.44,1.19,0.25,-0.11,1.52
52.00,2.00,291.12,-18.06,13.88,-3.00,0.25,1.94,-0.11,1.52
52.00,0.00,264.88,4.06,-95.44,0.50,2.62,1.19,0.05,1.54
52.00,1.00,281.50,-3.31,-55.44,-1.62,0.88,0.50,0.05,1.54
52.00,2.00,291.06,-18.12,14.00,-3.56,-0.75,2.38,0.05,1.54
52.00,0.00,264.81,4.06,-95.50,2.12,2.00,1.75,0.20,1.56
52.00,1.00,281.50,-3.31,-55.44,-2.31,0.00,-0.25,0.20,1.56
52.00,2.00,291.00,-18.06,14.00,-1.44,-2.19,1.56,0.20,1.56
52.00,0.00,264.75,4.12,-95.62,4.31,1.06,2.00,0.31,1.58
52.00,1.00,281.56,-3.31,-55.38,-2.56,-1.00,-1.50,0.31,1.58
52.00,2.00,291.00,-18.06,14.00,1.69,-1.12,-0.31,0.31,1.58
52.00,0.00,264.62,4.19,-95.81,7.06,1.25,2.75,0.51,1.60
52.00,1.00,281.56,-3.38,-55.31,-2.25,-0.62,-2.06,0.51,1.60
52.00,2.00,291.06,-18.06,13.94,2.00,1.44,-1.00,0.51,1.60
52.00,0.00,264.50,4.25,-95.94,8.88,2.62,4.31,0.90,1.62
52.00,1.00,281.62,-3.38,-55.25,-2.31,-0.56,-2.00,0.90,1.62
52.00,2.00,291.06,-18.06,14.00,-0.56,1.69,-0.62,0.90,1.62
52.00,0.00,264.31,4.38,-96.12,10.44,4.81,6.25,1.39,1.64
52.00,1.00,281.69,-3.38,-55.25,-1.81,-0.62,-1.75,1.39,1.64
52.00,2.00,291.06,-18.12,14.00,-1.69,1.19,-0.62,1.39,1.64
52.00,0.00,263.94,4.56,-96.38,11.62,6.88,7.75,1.93,1.66
52.00,1.00,281.69,-3.44,-55.19,-2.00,-0.62,-1.50,1.93,1.66
52.00,2.00,291.06,-18.12,14.06,-1.44,1.06,-0.38,1.93,1.66
52.00,0.00,263.56,4.75,-96.69,12.88,8.19,8.75,2.52,1.68
52.00,1.00,281.69,-3.44,-55.19,-1.88,0.12,-1.50,2.52,1.68
52.00,2.00,291.06,-18.12,14.06,-1.62,-0.06,1.12,2.52,1.68
52.00,0.00,263.19,4.94,-97.00,13.81,7.50,9.25,3.17,1.70
52.00,1.00,281.75,-3.44,-55.12,-1.69,0.69,-1.38,3.17,1.70
52.00,2.00,291.00,-18.12,14.12,-2.00,0.25,2.88,3.17,1.70
52.00,0.00,262.81,5.12,-97.31,15.00,5.94,10.75,3.87,1.72
52.00,1.00,281.75,-3.44,-55.12,-1.75,0.81,-0.88,3.87,1.72
52.00,2.00,290.94,-18.19,14.12,-2.12,-0.38,4.00,3.87,1.72
52.00,0.00,262.56,5.38,-97.62,15.56,2.44,10.38,4.58,1.74
52.00,1.00,281.75,-3.44,-55.12,-1.75,1.38,-0.25,4.58,1.74
52.00,2.00,290.81,-18.19,14.12,-1.75,-0.50,4.06,4.58,1.74
52.00,0.00,262.25,5.56,-97.94,15.19,1.69,10.25,5.28,1.76
52.00,1.00,281.69,-3.44,-55.12,-2.38,1.88,0.31,5.28,1.76
52.00,2.00,290.75,-18.19,14.12,-1.94,-1.06,4.00,5.28,1.76
52.00,0.00,262.00,5.75,-98.25,14.81,3.50,10.19,5.94,1.78
52.00,1.00,281.69,-3.44,-55.12,-2.31,2.19,0.50,5.94,1.78
52.00,2.00,290.62,-18.19,14.12,-1.44,-1.31,4.44,5.94,1.78
52.00,0.00,261.62,6.00,-98.50,14.50,5.50,10.69,6.59,1.80
52.00,1.00,281.56,-3.44,-55.06,-2.25,2.88,0.69,6.59,1.80
52.00,2.00,290.56,-18.19,14.12,-1.31,-1.25,5.75,6.59,1.80
52.00,0.00,261.19,6.25,-98.81,15.62,6.62,12.50,7.31,1.82
52.00,1.00,281.50,-3.44,-55.06,-2.12,3.31,0.88,7.31,1.82
52.00,2.00,290.38,-18.19,14.12,-2.00,-2.25,7.19,7.31,1.82
52.00,0.00,260.75,6.50,-99.12,16.69,6.56,13.62,8.11,1.84
52.00,1.00,281.50,-3.44,-55.06,-2.25,3.81,1.19,8.11,1.84
52.00,2.00,290.25,-18.19,14.12,-2.94,-2.88,8.25,8.11,1.84
52.00,0.00,260.31,6.81,-99.44,17.12,6.25,12.81,8.95,1.86
52.00,1.00,281.38,-3.44,-55.00,-2.81,3.88,1.75,8.95,1.86
52.00,2.00,290.06,-18.19,14.12,-3.38,-2.44,8.00,8.95,1.86
52.00,0.00,259.88,7.06,-99.81,16.94,6.06,11.31,9.80,1.88
52.00,1.00,281.31,-3.44,-55.00,-3.25,4.00,2.12,9.80,1.88
52.00,2.00,289.88,-18.19,14.19,-4.06,-1.94,6.06,9.80,1.88
52.00,0.00,259.44,7.31,-100.19,18.75,5.69,12.56,10.77,1.90
52.00,1.00,281.25,-3.44,-55.00,-3.50,4.38,1.75,10.77,1.90
52.00,2.00,289.75,-18.12,14.25,-4.81,-2.31,5.81,10.77,1.90
52.00,0.00,258.94,7.56,-100.56,20.50,6.75,13.25,11.76,1.92
52.00,1.00,281.12,-3.50,-54.94,-3.94,4.38,1.00,11.76,1.92
52.00,2.00,289.62,-18.12,14.31,-3.88,-1.94,6.06,11.76,1.92
52.00,0.00,258.44,7.88,-101.00,23.31,7.88,14.62,12.86,1.94
52.00,1.00,281.06,-3.50,-54.88,-3.81,4.44,0.50,12.86,1.94
52.00,2.00,289.50,-18.12,14.31,-3.62,-1.38,6.38,12.86,1.94
52.00,0.00,257.88,8.19,-101.44,23.00,9.38,14.31,13.92,1.96
52.00,1.00,281.00,-3.56,-54.81,-4.06,4.62,0.19,13.92,1.96
52.00,2.00,289.38,-18.12,14.31,-2.94,-1.81,7.19,13.92,1.96
52.00,0.00,257.25,8.50,-101.88,22.62,9.31,13.38,14.94,1.98
52.00,1.00,281.00,-3.56,-54.75,-4.12,4.75,0.38,14.94,1.98
52.00,2.00,289.19,-18.12,14.31,-2.12,-3.19,6.25,14.94,1.98
52.00,0.00,256.75,8.75,-102.31,22.00,7.56,12.19,15.93,2.00
52.00,1.00,280.88,-3.62,-54.69,-3.94,5.12,0.69,15.93,2.00
52.00,2.00,289.06,-18.06,14.31,-2.19,-3.50,6.38,15.93,2.00
52.00,0.00,256.31,9.00,-102.75,24.75,3.75,13.31,17.09,2.02
52.00,1.00,280.81,-3.69,-54.62,-3.44,4.56,1.25,17.09,2.02
52.00,2.00,288.94,-18.06,14.38,-3.75,-4.31,6.88,17.09,2.02
52.00,0.00,255.88,9.31,-103.25,26.75,1.25,13.12,18.33,2.04
52.00,1.00,280.75,-3.69,-54.62,-3.75,4.44,1.19,18.33,2.04
52.00,2.00,288.75,-18.00,14.38,-3.50,-4.38,7.00,18.33,2.04
52.00,0.00,255.56,9.50,-103.81,28.44,-0.44,11.62,19.58,2.06
52.00,1.00,280.69,-3.69,-54.56,-3.62,4.81,0.81,19.58,2.06
52.00,2.00,288.62,-17.94,14.38,-2.25,-3.81,7.06,19.58,2.06
52.00,0.00,255.25,9.69,-104.44,29.62,-0.94,11.62,20.86,2.08
52.00,1.00,280.62,-3.75,-54.50,-3.62,5.19,0.69,20.86,2.08
52.00,2.00,288.50,-17.94,14.38,-1.69,-3.12,6.62,20.86,2.08
52.00,0.00,254.88,9.94,-105.00,29.88,-0.38,11.56,22.16,2.10
52.00,1.00,280.56,-3.81,-54.44,-4.31,5.00,0.50,22.16,2.10
52.00,2.00,288.31,-17.94,14.38,-1.88,-2.81,7.88,22.16,2.10
52.00,0.00,254.50,10.19,-105.62,31.31,0.38,13.50,23.49,2.12
52.00,1.00,280.50,-3.88,-54.38,-3.75,5.38,0.25,23.49,2.12
52.00,2.00,288.12,-17.88,14.38,-1.25,-3.62,8.69,23.49,2.12
52.00,0.00,254.06,10.44,-106.25,32.12,1.06,14.44,24.85,2.14
52.00,1.00,280.44,-3.94,-54.31,-3.88,4.94,0.31,24.85,2.14
52.00,2.00,287.94,-17.88,14.38,-1.06,-4.44,9.31,24.85,2.14
52.00,0.00,253.56,10.69,-106.94,31.94,1.56,13.88,26.20,2.16
52.00,1.00,280.38,-4.00,-54.25,-3.19,5.38,0.94,26.20,2.16
52.00,2.00,287.75,-17.81,14.31,-1.25,-5.25,8.75,26.20,2.16
52.00,0.00,253.06,11.00,-107.56,32.38,1.94,14.00,27.55,2.18
52.00,1.00,280.25,-4.00,-54.25,-3.06,4.94,1.12,27.55,2.18
52.00,2.00,287.56,-17.81,14.31,-0.69,-3.88,9.25,27.55,2.18
52.00,0.00,252.56,11.25,-108.19,33.88,2.31,15.06,28.98,2.20
52.00,1.00,280.19,-4.06,-54.19,-2.81,6.19,0.88,28.98,2.20
52.00,2.00,287.38,-17.75,14.25,-0.94,-4.19,9.88,28.98,2.20
52.00,0.00,252.00,11.56,-108.88,34.75,2.88,15.06,30.44,2.22
52.00,1.00,280.12,-4.12,-54.12,-3.38,5.69,0.81,30.44,2.22
52.00,2.00,287.19,-17.75,14.19,-1.12,-4.62,10.56,30.44,2.22
52.00,0.00,251.44,11.81,-109.56,33.50,3.06,14.12,31.86,2.24
52.00,1.00,280.06,-4.19,-54.06,-3.56,6.44,1.25,31.86,2.24
52.00,2.00,286.94,-17.69,14.19,-1.12,-5.44,11.44,31.86,2.24
52.00,0.00,250.88,12.12,-110.25,34.19,2.81,15.12,33.27,2.26
52.00,1.00,279.94,-4.19,-54.06,-2.81,7.06,1.81,33.27,2.26
52.00,2.00,286.69,-17.62,14.12,-0.44,-5.81,12.06,33.27,2.26
52.00,0.00,250.31,12.44,-110.88,33.88,2.88,16.44,34.62,2.28
52.00,1.00,279.81,-4.25,-54.00,-3.44,6.00,1.62,34.62,2.28
52.00,2.00,286.44,-17.62,14.06,0.81,-4.88,12.62,34.62,2.28
52.00,0.00,249.69,12.69,-111.56,33.56,2.94,15.56,35.95,2.30
52.00,1.00,279.75,-4.31,-53.94,-2.12,7.50,1.94,35.95,2.30
52.00,2.00,286.19,-17.56,13.94,1.12,-4.88,12.19,35.95,2.30
52.00,0.00,249.12,13.00,-112.19,33.50,3.69,15.12,37.28,2.32
52.00,1.00,279.62,-4.38,-53.94,-1.75,7.12,2.06,37.28,2.32
52.00,2.00,285.94,-17.56,13.88,1.00,-5.94,12.62,37.28,2.32
52.00,0.00,248.56,13.25,-112.81,32.81,2.75,14.44,38.59,2.34
52.00,1.00,279.50,-4.38,-53.88,-3.12,7.62,3.12,38.59,2.34
52.00,2.00,285.69,-17.50,13.75,0.81,-6.69,12.88,38.59,2.34
52.00,0.00,247.94,13.56,-113.50,32.88,2.31,15.31,39.94,2.36
52.00,1.00,279.31,-4.44,-53.88,-2.88,7.75,3.44,39.94,2.36
52.00,2.00,285.38,-17.38,13.69,-0.19,-7.44,13.62,39.94,2.36
52.00,0.00,247.38,13.81,-114.12,31.19,3.44,14.75,41.23,2.38
52.00,1.00,279.19,-4.44,-53.81,-3.31,6.44,3.38,41.23,2.38
52.00,2.00,285.12,-17.31,13.56,-0.44,-7.56,14.44,41.23,2.38
52.00,0.00,246.69,14.12,-114.69,31.31,4.56,14.94,42.53,2.40
52.00,1.00,279.06,-4.50,-53.75,-2.75,7.50,3.62,42.53,2.40
52.00,2.00,284.81,-17.25,13.50,-0.56,-7.88,14.44,42.53,2.40
52.00,0.00,245.94,14.44,-115.31,31.38,6.56,16.00,43.81,2.42
52.00,1.00,278.88,-4.50,-53.75,-1.94,8.06,3.88,43.81,2.42
52.00,2.00,284.50,-17.19,13.44,0.12,-7.06,14.50,43.81,2.42
52.00,0.00,245.25,14.75,-115.94,31.88,5.75,16.31,45.09,2.44
52.00,1.00,278.75,-4.56,-53.75,-1.88,8.44,3.94,45.09,2.44
52.00,2.00,284.25,-17.12,13.38,0.50,-6.81,13.81,45.09,2.44
52.00,0.00,244.50,15.06,-116.56,32.44,5.25,17.44,46.37,2.46
52.00,1.00,278.56,-4.56,-53.69,-1.75,8.00,3.94,46.37,2.46
52.00,2.00,283.94,-17.06,13.31,1.25,-7.00,13.75,46.37,2.46
52.00,0.00,243.81,15.38,-117.12,30.81,4.81,16.12,47.59,2.48
52.00,1.00,278.44,-4.56,-53.69,-3.19,6.38,4.00,47.59,2.48
52.00,2.00,283.81,-17.00,13.25,0.94,-7.19,14.19,47.59,2.48
52.00,0.00,243.25,15.62,-117.69,29.19,2.44,15.25,48.74,2.50
52.00,1.00,278.25,-4.62,-53.69,-1.62,7.62,3.81,48.74,2.50
52.00,2.00,283.38,-16.88,13.12,1.00,-6.50,14.00,48.74,2.50
52.00,0.00,242.69,15.81,-118.31,29.25,1.12,15.06,49.87,2.52
52.00,1.00,278.12,-4.62,-53.62,-2.19,7.19,4.19,49.87,2.52
52.00,2.00,283.12,-16.81,13.00,1.56,-6.44,13.50,49.87,2.52
52.00,0.00,242.12,16.12,-118.88,29.19,-0.94,15.56,51.00,2.54
52.00,1.00,277.94,-4.62,-53.62,-1.75,7.25,4.12,51.00,2.54
52.00,2.00,282.88,-16.75,12.88,1.50,-6.31,13.81,51.00,2.54
52.00,0.00,241.56,16.38,-119.50,30.00,-1.81,16.38,52.21,2.56
52.00,1.00,277.81,-4.69,-53.62,-1.94,6.50,4.12,52.21,2.56
52.00,2.00,282.56,-16.75,12.81,0.44,-6.12,14.38,52.21,2.56
52.00,0.00,241.06,16.56,-120.12,28.31,-1.81,15.00,53.39,2.58
52.00,1.00,277.69,-4.69,-53.56,-1.69,8.06,3.75,53.39,2.58
52.00,2.00,282.44,-16.69,12.75,-0.44,-6.44,14.75,53.39,2.58
52.00,0.00,240.56,16.75,-120.69,27.75,-2.31,14.56,54.53,2.60
52.00,1.00,277.50,-4.75,-53.56,-1.94,7.31,3.62,54.53,2.60
52.00,2.00,282.00,-16.62,12.69,-0.31,-5.38,13.00,54.53,2.60
52.00,0.00,240.06,17.00,-121.31,28.62,-2.50,15.56,55.67,2.62
52.00,1.00,277.38,-4.75,-53.56,-1.00,7.12,3.75,55.67,2.62
52.00,2.00,281.75,-16.56,12.62,0.81,-3.94,12.44,55.67,2.62
52.00,0.00,239.50,17.25,-121.88,28.38,-1.19,15.56,56.79,2.64
52.00,1.00,277.25,-4.75,-53.56,-1.56,5.62,3.81,56.79,2.64
52.00,2.00,281.50,-16.56,12.56,1.12,-3.44,12.31,56.79,2.64
52.00,0.00,238.88,17.50,-122.50,27.56,0.31,14.81,57.88,2.66
52.00,1.00,277.12,-4.75,-53.56,-1.50,6.31,3.62,57.88,2.66
52.00,2.00,281.25,-16.56,12.50,0.75,-3.31,11.94,57.88,2.66
52.00,0.00,238.19,17.75,-123.06,28.12,1.81,15.56,58.98,2.68
52.00,1.00,276.94,-4.75,-53.56,-1.88,6.31,3.69,58.98,2.68
52.00,2.00,281.06,-16.50,12.38,1.12,-4.00,12.62,58.98,2.68
52.00,0.00,237.81,17.88,-123.31,27.69,3.81,16.00,60.08,2.70
52.00,1.00,276.81,-4.81,-53.50,-1.56,6.50,3.25,60.08,2.70
52.00,2.00,280.75,-16.50,12.31,1.00,-4.81,12.75,60.08,2.70
52.00,0.00,237.12,18.19,-123.88,25.62,5.00,14.06,61.13,2.72
52.00,1.00,276.69,-4.81,-53.50,-1.50,7.62,3.88,61.13,2.72
52.00,2.00,280.56,-16.44,12.25,-0.12,-5.31,11.88,61.13,2.72
52.00,0.00,236.38,18.44,-124.31,24.06,5.44,13.06,62.12,2.74
52.00,1.00,276.50,-4.88,-53.50,-0.81,8.31,3.88,62.12,2.74
52.00,2.00,280.31,-16.38,12.19,-0.31,-5.50,12.12,62.12,2.74
52.00,0.00,235.75,18.62,-124.75,23.19,4.81,12.00,63.08,2.76
52.00,1.00,276.38,-4.88,-53.50,-1.94,7.06,4.31,63.08,2.76
52.00,2.00,280.06,-16.31,12.12,-0.19,-4.75,12.50,63.08,2.76
52.00,0.00,235.19,18.81,-125.19,21.81,3.06,10.62,64.00,2.78
52.00,1.00,276.19,-4.88,-53.50,-1.12,7.12,4.38,64.00,2.78
52.00,2.00,279.81,-16.25,12.06,-0.62,-5.19,11.94,64.00,2.78
52.00,0.00,234.56,19.00,-125.62,20.62,3.06,10.25,64.88,2.80
52.00,1.00,276.06,-4.88,-53.50,-2.06,6.50,4.31,64.88,2.80
52.00,2.00,279.56,-16.19,12.00,-1.06,-4.56,12.38,64.88,2.80
52.00,0.00,234.00,19.19,-126.06,21.69,0.19,9.81,65.85,2.82
52.00,1.00,275.88,-4.88,-53.50,-1.38,7.81,4.00,65.85,2.82
52.00,2.00,279.31,-16.19,11.94,-1.88,-4.31,12.31,65.85,2.82
52.00,0.00,233.50,19.38,-126.56,22.94,-0.81,10.50,66.87,2.84
52.00,1.00,275.75,-4.88,-53.50,-1.62,7.62,3.94,66.87,2.84
52.00,2.00,279.06,-16.12,11.94,-2.00,-3.62,12.38,66.87,2.84
52.00,0.00,232.94,19.50,-127.06,23.00,1.19,11.00,67.88,2.86
52.00,1.00,275.56,-4.94,-53.50,0.06,8.81,3.50,67.88,2.86
52.00,2.00,278.81,-16.12,11.94,-1.81,-3.81,12.44,67.88,2.86
52.00,0.00,232.31,19.69,-127.50,21.12,2.12,9.50,68.77,2.88
52.00,1.00,275.44,-5.00,-53.56,-0.06,8.38,3.62,68.77,2.88
52.00,2.00,278.56,-16.06,11.94,-0.56,-3.38,11.69,68.77,2.88
52.00,0.00,231.81,19.88,-127.94,19.88,2.56,8.69,69.56,2.90
52.00,1.00,275.25,-5.00,-53.56,-0.50,8.31,3.56,69.56,2.90
52.00,2.00,278.31,-16.06,11.88,0.44,-2.75,10.75,69.56,2.90
52.00,0.00,231.31,20.00,-128.25,17.62,2.44,6.69,70.29,2.92
52.00,1.00,275.12,-5.06,-53.56,-0.62,7.94,3.75,70.29,2.92
52.00,2.00,278.12,-16.06,11.81,-0.25,-2.62,10.94,70.29,2.92
52.00,0.00,230.94,20.06,-128.56,18.00,1.75,6.56,71.05,2.94
52.00,1.00,275.00,-5.06,-53.62,-0.88,7.75,3.50,71.05,2.94
52.00,2.00,277.88,-16.00,11.75,-0.56,-3.88,11.06,71.05,2.94
52.00,0.00,230.50,20.19,-128.94,18.31,0.94,7.12,71.81,2.96
52.00,1.00,274.81,-5.12,-53.62,-0.62,7.62,3.06,71.81,2.96
52.00,2.00,277.69,-15.94,11.75,-0.19,-4.00,11.06,71.81,2.96
52.00,0.00,230.06,20.31,-129.31,15.94,2.06,6.00,72.43,2.98
52.00,1.00,274.69,-5.12,-53.62,-0.69,7.06,3.06,72.43,2.98
52.00,2.00,277.50,-15.94,11.69,0.69,-3.12,10.19,72.43,2.98
52.00,0.00,229.69,20.38,-129.56,14.44,2.75,5.00,72.99,3.00
52.00,1.00,274.56,-5.19,-53.62,-0.38,6.19,3.19,72.99,3.00
52.00,2.00,277.38,-15.94,11.62,0.62,-3.25,9.50,72.99,3.00
52.00,0.00,229.31,20.50,-129.75,13.06,3.50,3.88,73.48,3.02
52.00,1.00,274.44,-5.19,-53.62,-1.00,6.50,3.19,73.48,3.02
52.00,2.00,277.12,-15.88,11.56,1.06,-3.38,8.38,73.48,3.02
52.00,0.00,228.88,20.56,-130.00,14.44,3.94,4.75,74.05,3.04
52.00,1.00,274.31,-5.19,-53.69,-0.94,6.25,2.81,74.05,3.04
52.00,2.00,277.06,-15.88,11.56,0.69,-3.12,7.50,74.05,3.04
52.00,0.00,228.38,20.75,-130.19,14.19,4.69,5.31,74.64,3.06
52.00,1.00,274.19,-5.25,-53.69,-1.25,6.12,2.75,74.64,3.06
52.00,2.00,276.81,-15.81,11.50,-0.38,-3.31,7.44,74.64,3.06
52.00,0.00,227.94,20.81,-130.44,13.12,4.62,4.06,75.19,3.08
52.00,1.00,274.12,-5.25,-53.69,-1.12,5.75,2.31,75.19,3.08
52.00,2.00,276.69,-15.75,11.50,-0.25,-3.81,7.25,75.19,3.08
52.00,0.00,227.50,20.94,-130.62,12.81,4.69,3.88,75.69,3.10
52.00,1.00,274.00,-5.31,-53.62,-1.12,5.44,2.06,75.69,3.10
52.00,2.00,276.62,-15.69,11.50,0.62,-2.88,6.56,75.69,3.10
52.00,0.00,227.00,21.06,-130.88,13.50,5.38,5.50,76.21,3.12
52.00,1.00,273.94,-5.31,-53.62,-0.94,5.50,2.25,76.21,3.12
52.00,2.00,276.44,-15.69,11.44,0.62,-2.56,6.25,76.21,3.12
52.00,0.00,226.38,21.25,-131.12,13.38,7.44,7.12,76.74,3.14
52.00,1.00,273.81,-5.38,-53.69,-0.56,5.38,2.06,76.74,3.14
52.00,2.00,276.38,-15.62,11.44,0.38,-3.62,5.56,76.74,3.14
52.00,0.00,225.75,21.44,-131.38,11.38,7.75,6.12,77.16,3.16
52.00,1.00,273.75,-5.38,-53.62,-1.88,4.12,2.19,77.16,3.16
52.00,2.00,276.19,-15.56,11.38,1.25,-3.81,5.44,77.16,3.16
52.00,0.00,225.31,21.62,-131.44,8.31,8.31,3.62,77.44,3.18
52.00,1.00,273.62,-5.38,-53.62,-1.56,3.50,1.75,77.44,3.18
52.00,2.00,276.12,-15.50,11.38,1.50,-3.62,4.38,77.44,3.18
52.00,0.00,225.06,21.69,-131.50,4.69,5.88,0.38,77.55,3.20
52.00,1.00,273.56,-5.38,-53.62,-2.69,2.31,2.31,77.55,3.20
52.00,2.00,276.06,-15.50,11.31,1.94,-4.44,4.25,77.55,3.20
52.00,0.00,224.88,21.69,-131.56,5.00,2.50,-0.06,77.67,3.22
52.00,1.00,273.50,-5.38,-53.56,-1.31,3.19,2.06,77.67,3.22
52.00,2.00,275.94,-15.38,11.25,2.06,-5.38,4.00,77.67,3.22
52.00,0.00,224.56,21.75,-131.69,8.44,2.56,4.06,77.88,3.24
52.00,1.00,273.44,-5.38,-53.56,-1.62,2.69,2.38,77.88,3.24
52.00,2.00,275.88,-15.31,11.25,3.31,-5.38,3.81,77.88,3.24
52.00,0.00,224.06,21.94,-131.88,10.19,5.88,7.38,78.13,3.26
52.00,1.00,273.38,-5.38,-53.56,-0.19,3.25,1.94,78.13,3.26
52.00,2.00,275.81,-15.19,11.12,4.12,-5.56,3.44,78.13,3.26
52.00,0.00,223.44,22.12,-132.06,9.06,9.31,7.00,78.33,3.28
52.00,1.00,273.31,-5.38,-53.56,-0.50,2.44,1.88,78.33,3.28
52.00,2.00,275.75,-15.06,11.06,4.00,-4.56,3.19,78.33,3.28
52.00,0.00,222.81,22.38,-132.19,8.06,11.00,5.31,78.50,3.30
52.00,1.00,273.25,-5.38,-53.56,-0.62,1.81,1.69,78.50,3.30
52.00,2.00,275.69,-15.00,11.00,4.06,-4.38,2.94,78.50,3.30
52.00,0.00,222.25,22.56,-132.31,8.12,8.94,4.50,78.63,3.32
52.00,1.00,273.19,-5.38,-53.56,-0.19,1.31,1.44,78.63,3.32
52.00,2.00,275.62,-14.94,10.94,4.81,-4.12,3.12,78.63,3.32
52.00,0.00,221.75,22.75,-132.50,10.81,6.06,6.75,78.87,3.34
52.00,1.00,273.19,-5.38,-53.56,0.25,2.06,1.62,78.87,3.34
52.00,2.00,275.62,-14.88,10.88,5.00,-4.12,2.31,78.87,3.34
52.00,0.00,221.19,22.88,-132.69,10.44,5.62,7.19,79.09,3.36
52.00,1.00,273.12,-5.38,-53.62,1.19,1.88,1.75,79.09,3.36
52.00,2.00,275.56,-14.75,10.75,5.12,-4.69,2.94,79.09,3.36
52.00,0.00,220.75,23.00,-132.88,8.31,4.00,4.81,79.20,3.38
52.00,1.00,273.06,-5.38,-53.62,0.56,0.88,1.75,79.20,3.38
52.00,2.00,275.50,-14.69,10.62,5.50,-4.56,2.88,79.20,3.38
52.00,0.00,220.50,23.12,-133.00,5.69,3.25,2.69,79.22,3.40
52.00,1.00,273.00,-5.38,-53.62,0.31,0.75,1.69,79.22,3.40
52.00,2.00,275.50,-14.62,10.56,5.25,-4.50,2.62,79.22,3.40
52.00,0.00,220.25,23.19,-133.12,6.75,2.12,3.44,79.31,3.42
52.00,1.00,273.00,-5.31,-53.62,-0.06,0.50,1.69,79.31,3.42
52.00,2.00,275.38,-14.50,10.38,4.62,-5.12,3.31,79.31,3.42
52.00,0.00,219.81,23.31,-133.31,9.94,2.12,7.62,79.54,3.44
52.00,1.00,272.94,-5.31,-53.62,0.62,1.44,1.06,79.54,3.44
52.00,2.00,275.38,-14.44,10.38,4.12,-4.69,3.75,79.54,3.44
52.00,0.00,219.31,23.44,-133.56,10.56,4.38,9.62,79.84,3.46
52.00,1.00,272.94,-5.31,-53.69,0.19,1.12,1.50,79.84,3.46
52.00,2.00,275.25,-14.38,10.25,3.44,-3.94,3.88,79.84,3.46
52.00,0.00,218.75,23.69,-133.75,9.62,5.31,8.50,80.10,3.48
52.00,1.00,272.88,-5.31,-53.69,0.19,1.06,1.31,80.10,3.48
52.00,2.00,275.19,-14.31,10.12,3.19,-3.50,4.44,80.10,3.48
52.00,0.00,218.25,23.81,-133.94,8.50,4.44,7.06,80.30,3.50
52.00,1.00,272.88,-5.31,-53.69,0.44,1.94,0.88,80.30,3.50
52.00,2.00,275.12,-14.25,10.12,3.56,-2.88,4.44,80.30,3.50
52.00,0.00,217.81,24.00,-134.12,9.25,3.25,7.62,80.50,3.52
52.00,1.00,272.81,-5.31,-53.69,0.75,2.38,0.62,80.50,3.52
52.00,2.00,275.06,-14.19,10.00,4.38,-2.19,3.44,80.50,3.52
52.00,0.00,217.31,24.12,-134.38,11.75,2.38,10.31,80.84,3.54
52.00,1.00,272.75,-5.38,-53.75,0.50,2.69,1.00,80.84,3.54
52.00,2.00,275.00,-14.19,9.94,3.31,-2.44,2.75,80.84,3.54
52.00,0.00,216.75,24.31,-134.62,9.69,3.69,9.94,81.12,3.56
52.00,1.00,272.69,-5.38,-53.75,0.50,2.69,1.06,81.12,3.56
52.00,2.00,274.94,-14.12,9.88,3.06,-3.06,3.00,81.12,3.56
52.00,0.00,216.38,24.44,-134.75,5.94,2.06,6.00,81.21,3.58
52.00,1.00,272.69,-5.38,-53.75,-0.94,0.19,1.12,81.21,3.58
52.00,2.00,274.88,-14.06,9.81,3.56,-2.56,2.00,81.21,3.58
52.00,0.00,216.12,24.56,-134.94,6.00,-0.12,5.12,81.33,3.60
52.00,1.00,272.69,-5.38,-53.75,-0.06,1.25,0.69,81.33,3.60
52.00,2.00,274.88,-14.00,9.75,3.00,-2.25,1.69,81.33,3.60
52.00,0.00,215.81,24.62,-135.12,8.56,-0.44,8.19,81.56,3.62
52.00,1.00,272.62,-5.38,-53.75,0.00,1.12,0.38,81.56,3.62
52.00,2.00,274.81,-13.94,9.69,3.12,-2.50,1.75,81.56,3.62
52.00,0.00,215.44,24.75,-135.38,9.38,0.44,9.94,81.72,3.64
52.00,1.00,272.62,-5.38,-53.75,0.75,0.94,-0.12,81.72,3.64
52.00,2.00,274.81,-13.94,9.69,5.31,-1.88,0.88,81.72,3.64
52.00,0.00,215.06,24.88,-135.56,8.06,0.81,8.31,81.77,3.66
52.00,1.00,272.62,-5.38,-53.81,0.88,0.56,0.00,81.77,3.66
52.00,2.00,274.81,-13.88,9.62,6.94,-0.44,0.12,81.77,3.66
52.00,0.00,214.75,25.00,-135.69,6.06,1.31,6.19,81.78,3.68
52.00,1.00,272.62,-5.38,-53.81,1.19,1.44,0.06,81.78,3.68
52.00,2.00,274.88,-13.88,9.50,5.75,-0.44,0.50,81.78,3.68
52.00,0.00,214.50,25.06,-135.88,4.81,0.81,6.06,81.82,3.70
52.00,1.00,272.62,-5.38,-53.88,0.81,0.94,-0.06,81.82,3.70
52.00,2.00,274.88,-13.88,9.38,3.88,-1.44,1.50,81.82,3.70
52.00,0.00,214.19,25.19,-136.00,5.88,-0.12,7.00,81.91,3.72
52.00,1.00,272.56,-5.44,-53.88,0.62,1.25,0.19,81.91,3.72
52.00,2.00,274.81,-13.81,9.31,3.62,-1.38,1.75,81.91,3.72
52.00,0.00,213.94,25.25,-136.12,4.94,-0.31,6.31,81.97,3.74
52.00,1.00,272.56,-5.44,-53.88,0.56,1.94,-0.06,81.97,3.74
52.00,2.00,274.81,-13.81,9.25,3.50,-1.25,1.75,81.97,3.74
52.00,0.00,214.31,25.31,-136.25,4.56,-0.94,5.00,82.01,3.76
52.00,1.00,272.56,-5.44,-53.94,-0.31,0.62,-0.31,82.01,3.76
52.00,2.00,274.81,-13.81,9.12,3.69,-0.81,1.50,82.01,3.76
52.00,0.00,214.12,25.38,-136.38,4.62,-0.44,5.00,82.03,3.78
52.00,1.00,272.56,-5.44,-53.94,0.75,2.12,-0.88,82.03,3.78
52.00,2.00,274.75,-13.75,9.06,4.06,0.25,1.25,82.03,3.78
52.00,0.00,214.38,25.44,-136.50,4.38,0.19,5.19,82.06,3.80
52.00,1.00,272.56,-5.50,-53.94,0.19,1.00,-0.25,82.06,3.80
52.00,2.00,274.75,-13.75,9.00,3.62,-0.06,1.69,82.06,3.80
52.00,0.00,214.12,25.50,-136.62,4.00,-0.38,5.06,82.07,3.82
52.00,1.00,272.56,-5.50,-53.94,1.00,1.81,-0.12,82.07,3.82
52.00,2.00,274.75,-13.75,8.94,3.81,-1.06,1.56,82.07,3.82
52.00,0.00,213.94,25.56,-136.75,4.44,-0.50,4.56,82.07,3.84
52.00,1.00,272.50,-5.50,-54.00,0.62,0.94,0.00,82.07,3.84
52.00,2.00,274.69,-13.75,8.88,4.50,-0.81,1.06,82.07,3.84
52.00,0.00,214.06,25.62,-136.88,4.44,-0.62,4.25,82.05,3.86
52.00,1.00,272.50,-5.50,-54.00,0.81,1.00,-0.06,82.05,3.86
52.00,2.00,274.69,-13.75,8.75,4.75,-0.69,1.19,82.05,3.86
52.00,0.00,213.94,25.62,-137.00,4.38,-0.88,4.00,82.03,3.88
52.00,1.00,272.50,-5.50,-54.00,0.62,0.75,-0.44,82.03,3.88
52.00,2.00,274.69,-13.69,8.69,4.88,-1.38,1.44,82.03,3.88
52.00,0.00,213.94,25.69,-137.12,4.50,-0.31,3.50,81.97,3.90
52.00,1.00,272.50,-5.50,-54.06,0.94,0.88,-0.56,81.97,3.90
52.00,2.00,274.69,-13.69,8.56,5.94,-0.62,1.75,81.97,3.90
52.00,0.00,213.75,25.75,-137.25,4.75,0.38,3.56,81.92,3.92
52.00,1.00,272.50,-5.56,-54.06,0.69,0.56,-0.31,81.92,3.92
52.00,2.00,274.62,-13.69,8.44,6.06,-1.12,1.94,81.92,3.92
52.00,0.00,213.50,25.81,-137.38,5.31,1.00,3.94,81.93,3.94
52.00,1.00,272.50,-5.56,-54.12,0.88,1.06,-0.38,81.93,3.94
52.00,2.00,274.62,-13.62,8.31,5.00,-2.50,2.50,81.93,3.94
52.00,0.00,213.44,25.88,-137.56,5.62,1.50,3.88,81.95,3.96
52.00,1.00,272.50,-5.56,-54.12,0.81,1.19,-0.62,81.95,3.96
52.00,2.00,274.56,-13.62,8.25,5.12,-2.62,3.12,81.95,3.96
52.00,0.00,213.12,25.94,-137.69,6.06,2.25,4.06,81.96,3.98
52.00,1.00,272.50,-5.56,-54.19,0.75,1.44,-0.25,81.96,3.98
52.00,2.00,274.50,-13.56,8.12,5.88,-1.81,3.06,81.96,3.98
52.00,0.00,213.06,26.06,-137.88,7.00,3.56,4.25,82.06,4.00
52.00,1.00,272.44,-5.56,-54.19,0.88,1.81,0.06,82.06,4.00
52.00,2.00,274.50,-13.50,8.00,4.69,-2.50,3.56,82.06,4.00
52.00,0.00,212.62,26.12,-138.00,7.75,3.75,4.88,82.21,4.02
52.00,1.00,272.44,-5.62,-54.25,0.00,1.19,0.00,82.21,4.02
52.00,2.00,274.44,-13.50,7.88,4.06,-2.69,4.31,82.21,4.02
52.00,0.00,212.19,26.25,-138.19,8.38,3.75,4.81,82.34,4.04
52.00,1.00,272.44,-5.62,-54.25,0.12,1.69,-0.06,82.34,4.04
52.00,2.00,274.31,-13.44,7.75,5.00,-2.25,4.62,82.34,4.04
52.00,0.00,212.00,26.38,-138.44,9.06,3.25,4.81,82.51,4.06
52.00,1.00,272.44,-5.62,-54.25,0.25,1.94,0.00,82.51,4.06
52.00,2.00,274.25,-13.44,7.69,5.06,-1.69,4.75,82.51,4.06
52.00,0.00,211.56,26.44,-138.62,9.50,2.94,4.38,82.70,4.08
52.00,1.00,272.38,-5.69,-54.31,0.94,3.62,0.12,82.70,4.08
52.00,2.00,274.19,-13.38,7.56,4.69,-1.38,4.19,82.70,4.08
52.00,0.00,211.31,26.56,-138.81,10.38,2.75,5.00,82.95,4.10
52.00,1.00,272.38,-5.69,-54.38,1.44,4.00,0.44,82.95,4.10
52.00,2.00,274.06,-13.38,7.44,4.25,-1.69,4.62,82.95,4.10
52.00,0.00,210.88,26.69,-139.00,8.75,3.19,4.44,83.13,4.12
52.00,1.00,272.31,-5.75,-54.38,0.50,3.38,0.19,83.13,4.12
52.00,2.00,274.00,-13.31,7.31,4.50,-1.50,4.62,83.13,4.12
52.00,0.00,210.56,26.75,-139.19,9.00,0.75,3.12,83.30,4.14
52.00,1.00,272.25,-5.81,-54.38,0.62,2.69,0.38,83.30,4.14
52.00,2.00,273.94,-13.31,7.25,4.69,-1.69,3.88,83.30,4.14
52.00,0.00,210.44,26.75,-139.38,8.50,1.25,2.88,83.43,4.16
52.00,1.00,272.25,-5.81,-54.44,0.62,2.75,0.31,83.43,4.16
52.00,2.00,273.81,-13.31,7.06,5.31,-1.19,4.25,83.43,4.16
52.00,0.00,210.06,26.81,-139.56,8.88,0.69,3.50,83.59,4.18
52.00,1.00,272.25,-5.88,-54.44,0.00,2.50,0.62,83.59,4.18
52.00,2.00,273.81,-13.25,7.00,5.00,-0.75,4.19,83.59,4.18
52.00,0.00,209.94,26.88,-139.75,7.81,2.38,3.25,83.78,4.20
52.00,1.00,272.19,-5.88,-54.50,-0.25,1.94,0.69,83.78,4.20
52.00,2.00,273.69,-13.25,6.88,3.25,-1.56,3.94,83.78,4.20
52.00,0.00,209.56,27.00,-139.88,7.19,2.94,2.88,83.98,4.22
52.00,1.00,272.19,-5.88,-54.50,-0.25,2.12,0.56,83.98,4.22
52.00,2.00,273.62,-13.25,6.81,2.25,-1.56,4.12,83.98,4.22
52.00,0.00,209.19,27.06,-140.00,7.56,3.19,3.75,84.18,4.24
52.00,1.00,272.12,-5.94,-54.50,-0.38,2.25,0.31,84.18,4.24
52.00,2.00,273.56,-13.25,6.75,2.81,-1.00,4.44,84.18,4.24
52.00,0.00,209.25,27.12,-140.12,7.38,3.06,4.06,84.37,4.26
52.00,1.00,272.12,-5.94,-54.56,0.25,3.56,0.06,84.37,4.26
52.00,2.00,273.44,-13.19,6.62,2.50,-0.75,4.62,84.37,4.26
52.00,0.00,208.81,27.19,-140.25,8.31,2.94,4.50,84.61,4.28
52.00,1.00,272.06,-6.00,-54.56,0.25,3.44,-0.31,84.61,4.28
52.00,2.00,273.38,-13.19,6.56,2.50,-0.19,4.00,84.61,4.28
52.00,0.00,208.44,27.31,-140.44,6.25,3.88,3.38,84.75,4.30
52.00,1.00,272.06,-6.06,-54.56,0.00,3.56,-0.50,84.75,4.30
52.00,2.00,273.31,-13.19,6.56,2.88,0.06,3.88,84.75,4.30
52.00,0.00,208.38,27.38,-140.50,5.56,1.38,1.75,84.84,4.32
52.00,1.00,272.06,-6.06,-54.62,-0.94,2.44,-0.44,84.84,4.32
52.00,2.00,273.25,-13.19,6.44,3.25,0.81,2.12,84.84,4.32
52.00,0.00,208.25,27.38,-140.56,5.19,1.75,1.81,84.99,4.34
52.00,1.00,272.00,-6.12,-54.62,-0.31,3.56,-0.44,84.99,4.34
52.00,2.00,273.25,-13.25,6.44,1.62,0.75,1.75,84.99,4.34
52.00,0.00,208.19,27.38,-140.69,5.12,0.81,1.88,85.19,4.36
52.00,1.00,272.00,-6.12,-54.62,-0.94,2.25,-0.12,85.19,4.36
52.00,2.00,273.19,-13.25,6.38,0.12,0.38,2.69,85.19,4.36
52.00,0.00,208.06,27.38,-140.81,4.44,-1.62,2.69,85.38,4.38
52.00,1.00,271.94,-6.19,-54.62,-2.12,1.00,-0.06,85.38,4.38
52.00,2.00,273.12,-13.25,6.38,-0.12,0.56,2.06,85.38,4.38
52.00,0.00,208.00,27.38,-140.88,4.06,-2.56,2.38,85.54,4.40
52.00,1.00,271.94,-6.19,-54.62,-2.12,0.81,0.19,85.54,4.40
52.00,2.00,273.12,-13.25,6.38,0.06,0.62,1.25,85.54,4.40
52.00,0.00,208.12,27.31,-141.00,3.94,-4.75,1.62,85.70,4.42
52.00,1.00,271.94,-6.19,-54.56,-1.56,0.88,-0.44,85.70,4.42
52.00,2.00,273.12,-13.25,6.44,0.06,0.56,0.56,85.70,4.42
52.00,0.00,208.19,27.25,-141.12,3.31,-5.69,0.38,85.75,4.44
52.00,1.00,271.94,-6.25,-54.56,-2.00,0.62,-0.81,85.75,4.44
52.00,2.00,273.12,-13.25,6.44,2.12,1.25,0.75,85.75,4.44
52.00,0.00,208.38,27.19,-141.19,3.25,-4.94,0.50,85.80,4.46
52.00,1.00,271.94,-6.25,-54.50,-1.31,1.00,-1.12,85.80,4.46
52.00,2.00,273.12,-13.25,6.38,2.12,1.44,0.62,85.80,4.46
52.00,0.00,208.44,27.12,-141.31,3.31,-2.50,0.94,85.86,4.48
52.00,1.00,271.94,-6.25,-54.50,-1.00,0.75,-1.06,85.86,4.48
52.00,2.00,273.12,-13.25,6.38,1.88,0.62,1.12,85.86,4.48
52.00,0.00,208.38,27.12,-141.38,3.88,-1.31,1.56,85.94,4.50
52.00,1.00,271.94,-6.31,-54.50,-0.75,1.38,-0.69,85.94,4.50
52.00,2.00,273.06,-13.25,6.31,1.75,0.81,0.69,85.94,4.50
52.00,0.00,208.44,27.19,-141.44,1.31,2.69,0.69,85.96,4.52
52.00,1.00,271.94,-6.31,-54.50,-1.12,1.12,-0.81,85.96,4.52
52.00,2.00,273.06,-13.31,6.31,0.81,0.56,0.69,85.96,4.52
52.00,0.00,208.38,27.19,-141.44,0.19,0.38,-1.25,85.94,4.54
52.00,1.00,271.94,-6.38,-54.50,-1.75,0.38,-0.62,85.94,4.54
52.00,2.00,273.06,-13.31,6.31,0.69,0.31,0.31,85.94,4.54
52.00,0.00,208.50,27.19,-141.44,2.31,0.69,0.12,85.99,4.56
52.00,1.00,271.94,-6.38,-54.44,-1.62,0.69,-1.00,85.99,4.56
52.00,2.00,273.06,-13.31,6.31,1.12,-0.06,0.38,85.99,4.56
52.00,0.00,208.38,27.19,-141.50,3.31,1.25,1.19,86.04,4.58
52.00,1.00,271.94,-6.38,-54.44,-1.06,0.50,-1.44,86.04,4.58
52.00,2.00,273.06,-13.31,6.25,2.19,0.12,0.38,86.04,4.58
52.00,0.00,208.06,27.25,-141.56,4.06,3.44,3.06,86.09,4.60
52.00,1.00,272.00,-6.38,-54.44,-0.50,1.19,-1.31,86.09,4.60
52.00,2.00,273.06,-13.31,6.25,2.75,1.00,-0.31,86.09,4.60
52.00,0.00,207.81,27.38,-141.62,2.75,5.06,2.06,86.13,4.62
52.00,1.00,272.00,-6.44,-54.44,-1.06,0.25,-1.00,86.13,4.62
52.00,2.00,273.12,-13.31,6.19,1.81,0.31,-0.38,86.13,4.62
52.00,0.00,207.56,27.44,-141.62,1.94,4.94,0.56,86.14,4.64
52.00,1.00,272.00,-6.44,-54.38,-0.81,0.06,-1.00,86.14,4.64
52.00,2.00,273.12,-13.31,6.19,1.75,0.00,0.25,86.14,4.64
52.00,0.00,207.38,27.50,-141.62,2.19,4.00,0.75,86.15,4.66
52.00,1.00,272.00,-6.50,-54.38,-1.00,-0.38,-0.81,86.15,4.66
52.00,2.00,273.12,-13.31,6.12,1.81,0.81,0.06,86.15,4.66
52.00,0.00,207.19,27.56,-141.69,3.12,3.38,1.44,86.22,4.68
52.00,1.00,272.06,-6.50,-54.38,-0.12,1.00,-1.12,86.22,4.68
52.00,2.00,273.12,-13.31,6.12,1.50,0.44,-0.50,86.22,4.68
52.00,0.00,207.00,27.62,-141.75,3.50,2.06,1.50,86.25,4.70
52.00,1.00,272.06,-6.50,-54.38,-1.00,-0.88,-0.75,86.25,4.70
52.00,2.00,273.12,-13.31,6.12,2.62,0.44,-0.38,86.25,4.70
52.00,0.00,206.94,27.62,-141.81,3.31,-0.25,0.56,86.31,4.72
52.00,1.00,272.06,-6.50,-54.38,-0.31,0.06,-1.00,86.31,4.72
52.00,2.00,273.12,-13.31,6.06,2.00,0.38,-1.00,86.31,4.72
52.00,0.00,206.81,27.62,-141.88,3.44,-0.31,1.00,86.38,4.74
52.00,1.00,272.12,-6.56,-54.38,-0.88,-1.12,-1.12,86.38,4.74
52.00,2.00,273.12,-13.31,6.06,1.62,0.31,-0.31,86.38,4.74
52.00,0.00,206.81,27.62,-141.94,3.38,-0.88,1.06,86.42,4.76
52.00,1.00,272.12,-6.56,-54.38,-0.69,-1.19,-0.88,86.42,4.76
52.00,2.00,273.19,-13.31,6.00,2.56,0.38,-0.62,86.42,4.76
52.00,0.00,206.75,27.62,-142.06,3.12,-2.19,0.94,86.43,4.78
52.00,1.00,272.19,-6.56,-54.38,0.06,-0.88,-0.69,86.43,4.78
52.00,2.00,273.19,-13.31,6.00,2.69,0.00,-0.56,86.43,4.78
52.00,0.00,206.75,27.56,-142.12,3.56,-2.12,1.06,86.47,4.80
52.00,1.00,272.19,-6.56,-54.38,-0.12,-1.75,-0.75,86.47,4.80
52.00,2.00,273.19,-13.31,5.94,2.56,-0.69,0.06,86.47,4.80
52.00,0.00,206.81,27.56,-142.25,3.12,-1.12,1.31,86.46,4.82
52.00,1.00,272.25,-6.56,-54.38,0.69,-0.75,-1.00,86.46,4.82
52.00,2.00,273.19,-13.31,5.88,3.50,-0.25,-0.50,86.46,4.82
52.00,0.00,206.69,27.56,-142.31,3.00,-0.06,1.88,86.46,4.84
52.00,1.00,272.25,-6.56,-54.38,0.06,-1.50,-0.44,86.46,4.84
52.00,2.00,273.19,-13.31,5.81,3.00,-0.69,-0.75,86.46,4.84
52.00,0.00,206.56,27.62,-142.38,2.56,1.31,2.12,86.46,4.86
52.00,1.00,272.25,-6.56,-54.38,0.56,-0.38,-0.44,86.46,4.86
52.00,2.00,273.25,-13.25,5.75,2.50,-0.75,-0.25,86.46,4.86
52.00,0.00,206.38,27.69,-142.44,2.56,1.75,2.19,86.52,4.88
52.00,1.00,272.25,-6.56,-54.38,0.00,-0.94,-0.19,86.52,4.88
52.00,2.00,273.25,-13.25,5.75,1.25,-1.25,0.00,86.52,4.88
52.00,0.00,206.19,27.75,-142.50,2.44,2.00,2.25,86.54,4.90
52.00,1.00,272.25,-6.56,-54.44,0.06,-0.75,0.25,86.54,4.90
52.00,2.00,273.25,-13.25,5.69,1.81,-1.25,0.38,86.54,4.90
52.00,0.00,206.06,27.81,-142.56,2.38,2.00,2.25,86.55,4.92
52.00,1.00,272.25,-6.56,-54.44,0.62,-0.19,0.38,86.55,4.92
52.00,2.00,273.25,-13.19,5.62,2.25,-0.75,0.69,86.55,4.92
52.00,0.00,205.88,27.88,-142.62,2.38,2.44,1.94,86.59,4.94
52.00,1.00,272.25,-6.56,-54.44,0.56,0.38,0.56,86.59,4.94
52.00,2.00,273.19,-13.19,5.62,1.25,-0.81,1.31,86.59,4.94
52.00,0.00,205.81,27.88,-142.62,2.12,1.75,2.00,86.66,4.96
52.00,1.00,272.25,-6.50,-54.44,0.50,0.50,1.06,86.66,4.96
52.00,2.00,273.19,-13.19,5.62,0.50,-1.06,1.81,86.66,4.96
52.00,0.00,205.69,27.94,-142.69,1.69,1.06,1.62,86.69,4.98
52.00,1.00,272.25,-6.50,-54.50,0.50,0.62,0.81,86.69,4.98
52.00,2.00,273.12,-13.12,5.56,0.94,-0.69,1.88,86.69,4.98
52.00,0.00,205.56,27.94,-142.75,1.38,0.38,1.25,86.71,5.00
52.00,1.00,272.19,-6.50,-54.50,0.19,0.75,1.06,86.71,5.00
52.00,2.00,273.12,-13.12,5.56,0.75,-0.25,1.69,86.71,5.00
52.00,0.00,205.62,27.94,-142.81,1.25,0.19,0.50,86.80,5.02
52.00,1.00,272.12,-6.44,-54.56,-0.31,0.88,1.75,86.80,5.02
52.00,2.00,273.06,-13.12,5.56,-0.88,-0.81,2.44,86.80,5.02
52.00,0.00,205.56,27.94,-142.81,0.88,0.06,0.12,86.87,5.04
52.00,1.00,272.12,-6.44,-54.56,-0.50,1.44,1.56,86.87,5.04
52.00,2.00,273.00,-13.12,5.56,-0.81,-0.56,2.88,86.87,5.04
52.00,0.00,205.62,27.94,-142.81,0.31,0.44,-0.56,86.95,5.06
52.00,1.00,272.06,-6.44,-54.62,-1.19,1.44,1.62,86.95,5.06
52.00,2.00,272.94,-13.12,5.56,-1.56,0.12,2.69,86.95,5.06
52.00,0.00,205.62,27.94,-142.81,-0.31,0.38,-0.88,87.01,5.08
52.00,1.00,272.00,-6.44,-54.62,-0.88,1.69,1.44,87.01,5.08
52.00,2.00,272.88,-13.12,5.56,-1.88,0.94,2.69,87.01,5.08
52.00,0.00,205.62,27.94,-142.81,-0.50,-0.50,-1.12,87.07,5.10
52.00,1.00,271.94,-6.44,-54.62,-1.44,1.75,1.50,87.07,5.10
52.00,2.00,272.88,-13.12,5.56,-2.06,0.56,2.88,87.07,5.10
52.00,0.00,205.81,27.88,-142.81,-1.12,-0.62,-1.94,87.10,5.12
52.00,1.00,271.88,-6.44,-54.62,-1.56,1.94,1.00,87.10,5.12
52.00,2.00,272.81,-13.12,5.62,-1.81,1.12,2.81,87.10,5.12
52.00,0.00,205.94,27.81,-142.75,-1.19,-1.19,-2.50,87.14,5.14
52.00,1.00,271.88,-6.44,-54.56,-1.38,2.06,0.81,87.14,5.14
52.00,2.00,272.75,-13.19,5.62,-2.19,1.50,2.69,87.14,5.14
52.00,0.00,206.25,27.75,-142.69,-1.75,-1.38,-2.75,87.16,5.16
52.00,1.00,271.81,-6.44,-54.56,-1.75,1.81,0.94,87.16,5.16
52.00,2.00,272.69,-13.19,5.69,-2.19,1.75,2.12,87.16,5.16
52.00,0.00,206.38,27.75,-142.69,-1.81,-0.56,-2.81,87.22,5.18
52.00,1.00,271.81,-6.44,-54.56,-2.19,2.00,0.88,87.22,5.18
52.00,2.00,272.62,-13.25,5.69,-3.19,1.00,2.00,87.22,5.18
52.00,0.00,206.56,27.69,-142.62,-1.38,-2.31,-3.12,87.31,5.20
52.00,1.00,271.75,-6.44,-54.50,-2.25,1.44,1.06,87.31,5.20
52.00,2.00,272.62,-13.25,5.75,-3.56,0.62,2.38,87.31,5.20
52.00,0.00,206.81,27.56,-142.62,-0.44,-4.38,-1.44,87.43,5.22
52.00,1.00,271.75,-6.44,-54.50,-2.00,1.38,0.56,87.43,5.22
52.00,2.00,272.56,-13.25,5.88,-3.50,0.56,2.38,87.43,5.22
52.00,0.00,207.00,27.50,-142.62,-0.75,-3.31,-2.25,87.46,5.24
52.00,1.00,271.69,-6.44,-54.44,-1.81,1.19,0.06,87.46,5.24
52.00,2.00,272.50,-13.31,5.88,-1.38,1.38,2.00,87.46,5.24
52.00,0.00,207.25,27.44,-142.62,-0.44,-3.00,-2.19,87.47,5.26
52.00,1.00,271.69,-6.50,-54.44,-1.38,1.19,-0.25,87.47,5.26
52.00,2.00,272.44,-13.31,5.94,-0.62,2.12,1.06,87.47,5.26
52.00,0.00,207.38,27.38,-142.62,0.06,-2.44,-1.75,87.48,5.28
52.00,1.00,271.69,-6.50,-54.44,-1.00,1.50,-0.75,87.48,5.28
52.00,2.00,272.44,-13.38,5.94,-0.19,2.12,0.81,87.48,5.28
52.00,0.00,207.50,27.31,-142.62,0.12,-1.81,-1.31,87.52,5.30
52.00,1.00,271.69,-6.50,-54.44,-0.69,1.06,-0.44,87.52,5.30
52.00,2.00,272.44,-13.38,5.94,-0.88,1.19,1.69,87.52,5.30
52.00,0.00,207.62,27.25,-142.62,0.25,-2.12,-1.00,87.56,5.32
52.00,1.00,271.69,-6.50,-54.44,-0.44,0.56,-0.25,87.56,5.32
52.00,2.00,272.38,-13.44,6.00,-0.75,0.56,1.88,87.56,5.32
52.00,0.00,207.75,27.25,-142.62,0.19,-2.06,-0.69,87.54,5.34
52.00,1.00,271.69,-6.50,-54.44,-0.19,0.25,-0.38,87.54,5.34
52.00,2.00,272.38,-13.44,6.00,0.50,0.38,0.88,87.54,5.34
52.00,0.00,207.94,27.19,-142.62,0.44,-1.00,-0.31,87.52,5.36
52.00,1.00,271.69,-6.50,-54.44,-0.06,-0.44,-0.56,87.52,5.36
52.00,2.00,272.38,-13.44,6.06,1.00,0.69,0.19,87.52,5.36
52.00,0.00,207.94,27.19,-142.62,0.62,0.75,-0.31,87.53,5.38
52.00,1.00,271.69,-6.50,-54.44,0.44,-0.62,-0.50,87.53,5.38
52.00,2.00,272.38,-13.44,6.06,0.50,0.19,-0.44,87.53,5.38
52.00,0.00,207.88,27.25,-142.62,0.69,2.25,-0.69,87.58,5.40
52.00,1.00,271.69,-6.50,-54.44,0.00,-1.38,-0.44,87.58,5.40
52.00,2.00,272.38,-13.44,6.12,-0.50,-0.62,-0.50,87.58,5.40
52.00,0.00,207.94,27.25,-142.62,0.62,1.31,-0.56,87.61,5.42
52.00,1.00,271.75,-6.50,-54.44,0.50,-1.75,-0.94,87.61,5.42
52.00,2.00,272.38,-13.44,6.12,-0.31,-0.50,-1.31,87.61,5.42
