Iteration,IMUNo,OrientationX (deg),OrientationY,OrientationZ,GyroX (20rad/sec),GyroY,GyroZ,Elbow_Pos (rad),Time (sec)
53.00,0.00,266.44,3.94,-97.19,-1.06,0.62,-0.31,-0.05,1.02
53.00,1.00,284.06,-2.69,-55.00,-0.12,0.38,-0.25,-0.05,1.02
53.00,2.00,295.06,-17.88,13.75,0.00,0.31,-0.12,-0.05,1.02
53.00,0.00,266.44,3.94,-97.12,-1.06,0.69,-0.38,-0.08,1.04
53.00,1.00,284.06,-2.69,-55.00,0.06,0.69,-0.12,-0.08,1.04
53.00,2.00,295.06,-17.88,13.75,-0.25,0.56,0.31,-0.08,1.04
53.00,0.00,266.44,3.94,-97.12,-1.06,0.06,-0.25,-0.11,1.06
53.00,1.00,284.06,-2.69,-55.00,-0.44,0.38,-0.19,-0.11,1.06
53.00,2.00,295.06,-17.88,13.75,-0.38,0.44,0.31,-0.11,1.06
53.00,0.00,266.44,3.94,-97.12,-0.88,0.44,-0.38,-0.13,1.08
53.00,1.00,284.06,-2.69,-55.00,-0.19,0.31,-0.31,-0.13,1.08
53.00,2.00,295.06,-17.88,13.75,-0.44,0.50,0.19,-0.13,1.08
53.00,0.00,266.44,3.94,-97.06,-0.75,0.19,-0.44,-0.17,1.10
53.00,1.00,284.06,-2.69,-55.00,-0.31,0.06,-0.56,-0.17,1.10
53.00,2.00,295.06,-17.88,13.75,0.12,0.50,0.12,-0.17,1.10
53.00,0.00,266.44,3.94,-97.06,-0.25,0.38,-0.31,-0.20,1.12
53.00,1.00,284.06,-2.69,-55.00,-0.06,0.06,-0.69,-0.20,1.12
53.00,2.00,295.06,-17.88,13.75,0.56,0.75,-0.19,-0.20,1.12
53.00,0.00,266.44,3.94,-97.06,-0.31,-0.06,-0.19,-0.22,1.14
53.00,1.00,284.06,-2.69,-55.00,0.06,-0.06,-0.50,-0.22,1.14
53.00,2.00,295.12,-17.94,13.81,0.25,0.50,-0.12,-0.22,1.14
53.00,0.00,266.44,3.94,-97.06,-0.56,-0.50,-0.12,-0.27,1.16
53.00,1.00,284.06,-2.69,-55.00,0.06,-0.06,-0.62,-0.27,1.16
53.00,2.00,295.12,-17.94,13.81,0.44,0.56,-0.19,-0.27,1.16
53.00,0.00,266.44,3.94,-97.06,-0.19,-0.31,-0.06,-0.28,1.18
53.00,1.00,284.06,-2.69,-55.00,-0.06,-0.25,-0.69,-0.28,1.18
53.00,2.00,295.12,-17.94,13.81,0.19,0.44,-0.06,-0.28,1.18
53.00,0.00,266.44,3.94,-97.06,-0.19,-0.50,-0.19,-0.30,1.20
53.00,1.00,284.12,-2.69,-55.00,-0.06,-0.25,-0.75,-0.30,1.20
53.00,2.00,295.12,-17.94,13.81,0.19,0.38,-0.12,-0.30,1.20
53.00,0.00,266.44,3.94,-97.06,0.06,-0.19,-0.25,-0.31,1.22
53.00,1.00,284.12,-2.69,-55.06,-0.12,-0.12,-0.75,-0.31,1.22
53.00,2.00,295.12,-17.94,13.88,0.31,0.50,-0.62,-0.31,1.22
53.00,0.00,266.44,3.94,-97.06,-0.31,-0.06,0.06,-0.34,1.24
53.00,1.00,284.12,-2.69,-55.06,-0.19,-0.44,-0.69,-0.34,1.24
53.00,2.00,295.12,-17.94,13.88,0.31,0.12,-0.56,-0.34,1.24
53.00,0.00,266.44,3.94,-97.06,-0.19,-0.06,0.12,-0.36,1.26
53.00,1.00,284.12,-2.75,-55.06,-0.12,-0.50,-0.25,-0.36,1.26
53.00,2.00,295.12,-17.94,13.88,0.38,0.25,-0.69,-0.36,1.26
53.00,0.00,266.44,3.94,-97.06,-0.50,0.00,0.06,-0.40,1.28
53.00,1.00,284.12,-2.69,-55.06,-0.12,-0.25,-0.38,-0.40,1.28
53.00,2.00,295.12,-17.94,13.88,0.50,0.00,-0.56,-0.40,1.28
53.00,0.00,266.44,3.94,-97.06,-0.38,0.19,0.00,-0.44,1.30
53.00,1.00,284.12,-2.69,-55.06,0.06,-0.25,-0.31,-0.44,1.30
53.00,2.00,295.12,-17.94,13.94,0.50,0.25,-0.31,-0.44,1.30
53.00,0.00,266.44,3.94,-97.06,-0.50,-0.19,-0.06,-0.47,1.32
53.00,1.00,284.12,-2.69,-55.06,-0.19,0.00,-0.31,-0.47,1.32
53.00,2.00,295.12,-17.94,13.94,0.25,0.19,-0.19,-0.47,1.32
53.00,0.00,266.44,3.94,-97.06,-0.56,-0.12,0.06,-0.50,1.34
53.00,1.00,284.12,-2.69,-55.06,-0.19,0.12,0.06,-0.50,1.34
53.00,2.00,295.12,-17.94,13.94,0.00,0.00,-0.06,-0.50,1.34
53.00,0.00,266.44,3.94,-97.06,-0.88,-0.38,0.00,-0.53,1.36
53.00,1.00,284.12,-2.69,-55.06,-0.06,0.19,0.00,-0.53,1.36
53.00,2.00,295.12,-17.94,13.94,-0.19,-0.19,0.00,-0.53,1.36
53.00,0.00,266.44,3.94,-97.06,-0.81,-0.12,0.12,-0.56,1.38
53.00,1.00,284.12,-2.69,-55.06,0.00,0.06,0.19,-0.56,1.38
53.00,2.00,295.12,-18.00,13.94,0.06,-0.38,0.00,-0.56,1.38
53.00,0.00,266.44,3.94,-97.06,-0.88,0.25,0.25,-0.61,1.40
53.00,1.00,284.12,-2.69,-55.06,-0.06,-0.06,0.06,-0.61,1.40
53.00,2.00,295.12,-18.00,13.94,0.31,0.19,0.25,-0.61,1.40
53.00,0.00,266.44,3.94,-97.00,-0.62,0.69,0.19,-0.65,1.42
53.00,1.00,284.12,-2.69,-55.06,0.06,0.38,-0.06,-0.65,1.42
53.00,2.00,295.12,-18.00,13.94,0.19,0.06,0.25,-0.65,1.42
53.00,0.00,266.44,3.94,-97.00,-0.50,0.81,0.19,-0.68,1.44
53.00,1.00,284.12,-2.69,-55.06,-0.19,0.12,0.00,-0.68,1.44
53.00,2.00,295.12,-18.00,14.00,0.19,0.00,0.19,-0.68,1.44
53.00,0.00,266.38,3.94,-97.00,-0.38,0.88,0.12,-0.71,1.46
53.00,1.00,284.12,-2.69,-55.12,-0.06,0.25,0.31,-0.71,1.46
53.00,2.00,295.12,-18.00,14.00,0.25,0.06,0.06,-0.71,1.46
53.00,0.00,266.38,4.00,-97.00,-0.50,1.06,0.19,-0.71,1.48
53.00,1.00,284.12,-2.69,-55.12,-0.62,0.12,0.56,-0.71,1.48
53.00,2.00,295.12,-18.00,14.00,-0.31,-0.31,0.31,-0.71,1.48
53.00,0.00,266.38,4.00,-97.00,-0.62,1.00,0.25,-0.71,1.50
53.00,1.00,284.12,-2.69,-55.12,-0.62,0.12,0.56,-0.71,1.50
53.00,2.00,295.12,-18.00,14.00,-0.81,-0.62,0.69,-0.71,1.50
53.00,0.00,266.31,4.00,-97.00,-0.50,1.75,0.19,-0.68,1.52
53.00,1.00,284.12,-2.69,-55.12,-0.31,0.44,0.44,-0.68,1.52
53.00,2.00,295.12,-18.00,14.00,-1.19,-0.12,0.62,-0.68,1.52
53.00,0.00,266.25,4.00,-97.00,-0.19,2.62,0.62,-0.62,1.54
53.00,1.00,284.12,-2.69,-55.12,-0.44,0.19,0.50,-0.62,1.54
53.00,2.00,295.12,-18.00,14.06,-1.44,0.00,0.81,-0.62,1.54
53.00,0.00,266.19,4.00,-97.00,0.12,2.75,1.25,-0.51,1.56
53.00,1.00,284.12,-2.69,-55.12,-0.44,0.38,0.62,-0.51,1.56
53.00,2.00,295.12,-18.00,14.12,-2.56,1.62,0.25,-0.51,1.56
53.00,0.00,266.12,4.06,-97.00,1.00,1.94,1.88,-0.30,1.58
53.00,1.00,284.12,-2.69,-55.12,-1.44,0.38,0.38,-0.30,1.58
53.00,2.00,295.06,-18.06,14.19,-3.75,1.81,0.38,-0.30,1.58
53.00,0.00,266.06,4.06,-97.12,2.88,0.56,2.44,-0.01,1.60
53.00,1.00,284.12,-2.69,-55.06,-1.06,0.19,0.44,-0.01,1.60
53.00,2.00,295.06,-18.06,14.25,-4.06,0.62,0.38,-0.01,1.60
53.00,0.00,266.00,4.12,-97.19,4.56,-0.38,3.00,0.29,1.62
53.00,1.00,284.12,-2.69,-55.06,-0.62,-0.12,-0.19,0.29,1.62
53.00,2.00,295.06,-18.06,14.38,-2.31,0.12,-0.56,0.29,1.62
53.00,0.00,265.94,4.19,-97.38,6.56,-1.19,3.56,0.59,1.64
53.00,1.00,284.12,-2.69,-55.06,-0.62,-0.31,-1.31,0.59,1.64
53.00,2.00,295.06,-18.12,14.38,-0.56,0.62,-0.81,0.59,1.66
53.00,0.00,265.88,4.25,-97.56,8.38,-0.69,3.88,0.96,1.66
53.00,1.00,284.12,-2.75,-55.06,-0.81,-0.62,-1.06,0.96,1.66
53.00,2.00,295.12,-18.06,14.44,-0.19,0.44,-0.94,0.96,1.66
53.00,0.00,265.75,4.38,-97.75,10.12,-0.38,4.31,1.39,1.68
53.00,1.00,284.19,-2.75,-55.06,-0.62,0.12,-1.06,1.39,1.68
53.00,2.00,295.12,-18.06,14.44,-0.06,0.06,-0.62,1.39,1.68
53.00,0.00,265.62,4.44,-98.06,11.56,0.44,4.81,1.91,1.70
53.00,1.00,284.19,-2.75,-55.06,-0.44,-0.06,-0.75,1.91,1.70
53.00,2.00,295.12,-18.12,14.44,-0.56,-0.12,-0.19,1.91,1.70
53.00,0.00,265.44,4.56,-98.31,12.62,2.38,5.62,2.48,1.72
53.00,1.00,284.19,-2.75,-55.06,-0.19,-0.06,-0.31,2.48,1.72
53.00,2.00,295.12,-18.12,14.44,-0.81,-0.31,0.62,2.48,1.72
53.00,0.00,265.19,4.75,-98.56,13.69,5.06,5.88,3.09,1.74
53.00,1.00,284.19,-2.75,-55.06,-0.19,0.12,-0.31,3.09,1.74
53.00,2.00,295.06,-18.12,14.44,-0.44,-0.31,1.56,3.09,1.74
53.00,0.00,264.88,4.88,-98.88,15.44,6.81,7.25,3.78,1.76
53.00,1.00,284.19,-2.75,-55.06,-0.56,0.56,0.12,3.78,1.76
53.00,2.00,295.06,-18.12,14.44,-0.81,-0.06,2.50,3.78,1.76
53.00,0.00,264.50,5.06,-99.19,16.69,6.56,7.38,4.59,1.78
53.00,1.00,284.19,-2.75,-55.06,-0.62,0.88,0.81,4.59,1.78
53.00,2.00,295.00,-18.12,14.44,-2.25,-0.38,3.94,4.59,1.78
53.00,0.00,264.25,5.19,-99.50,16.38,5.56,6.12,5.41,1.80
53.00,1.00,284.12,-2.75,-55.00,-0.56,1.50,1.25,5.41,1.80
53.00,2.00,294.88,-18.12,14.44,-2.69,-0.75,4.69,5.41,1.80
53.00,0.00,264.00,5.31,-99.81,15.62,5.81,5.56,6.18,1.82
53.00,1.00,284.06,-2.75,-55.00,-0.69,2.06,1.06,6.18,1.82
53.00,2.00,294.75,-18.19,14.50,-2.50,-0.81,5.38,6.18,1.82
53.00,0.00,263.69,5.44,-100.12,15.12,6.56,5.06,6.92,1.84
53.00,1.00,284.06,-2.75,-55.00,-0.81,2.62,1.31,6.92,1.84
53.00,2.00,294.62,-18.19,14.50,-2.19,-0.56,5.75,6.92,1.84
53.00,0.00,263.44,5.56,-100.44,14.38,6.38,4.81,7.66,1.86
53.00,1.00,284.00,-2.75,-55.00,-1.12,3.31,1.62,7.66,1.86
53.00,2.00,294.50,-18.19,14.50,-3.00,-0.56,6.00,7.66,1.86
53.00,0.00,263.12,5.69,-100.75,17.06,6.56,6.88,8.57,1.88
53.00,1.00,283.88,-2.81,-55.00,-1.06,3.88,1.75,8.57,1.88
53.00,2.00,294.38,-18.25,14.56,-4.19,-0.19,6.25,8.57,1.88
53.00,0.00,262.75,5.88,-101.12,19.69,6.00,9.44,9.57,1.90
53.00,1.00,283.81,-2.81,-54.94,-1.00,4.00,1.12,9.57,1.90
53.00,2.00,294.25,-18.25,14.62,-3.69,-0.75,6.81,9.57,1.90
53.00,0.00,262.38,6.12,-101.50,19.94,5.12,9.00,10.47,1.92
53.00,1.00,283.81,-2.88,-54.94,-0.75,4.19,0.44,10.47,1.92
53.00,2.00,294.12,-18.31,14.62,-1.06,-0.81,7.12,10.47,1.92
53.00,0.00,262.00,6.31,-101.88,18.81,6.25,8.25,11.25,1.94
53.00,1.00,283.75,-2.94,-54.94,-0.56,5.06,-0.12,11.25,1.94
53.00,2.00,293.94,-18.31,14.56,0.44,-1.38,6.44,11.25,1.94
53.00,0.00,261.62,6.50,-102.25,20.06,6.25,9.44,12.10,1.96
53.00,1.00,283.69,-2.94,-54.94,-0.38,5.25,-0.56,12.10,1.96
53.00,2.00,293.81,-18.31,14.50,0.12,-1.69,7.00,12.10,1.96
53.00,0.00,261.25,6.69,-102.62,22.38,5.38,11.50,13.06,1.98
53.00,1.00,283.62,-3.00,-54.94,-0.38,4.44,-0.12,13.06,1.98
53.00,2.00,293.69,-18.31,14.50,0.00,-1.69,7.75,13.06,1.98
53.00,0.00,260.81,6.94,-103.12,23.94,4.31,12.00,14.09,2.00
53.00,1.00,283.56,-3.06,-54.94,-0.88,4.00,-0.06,14.09,2.00
53.00,2.00,293.50,-18.31,14.44,-0.19,-1.56,7.56,14.09,2.00
53.00,0.00,260.44,7.19,-103.56,23.94,4.50,11.44,15.16,2.02
53.00,1.00,283.56,-3.12,-54.94,-1.12,4.56,-0.12,15.16,2.02
53.00,2.00,293.38,-18.31,14.38,-1.00,-2.25,7.56,15.16,2.02
53.00,0.00,260.00,7.44,-104.06,25.19,3.12,11.81,16.26,2.04
53.00,1.00,283.50,-3.19,-54.94,-0.44,3.62,-0.25,16.26,2.04
53.00,2.00,293.25,-18.31,14.38,-0.62,-2.25,7.44,16.26,2.04
53.00,0.00,259.62,7.62,-104.62,26.88,2.56,12.62,17.39,2.06
53.00,1.00,283.44,-3.19,-54.94,-0.31,3.88,-0.38,17.39,2.06
53.00,2.00,293.06,-18.31,14.38,0.38,-2.00,7.06,17.39,2.06
53.00,0.00,259.19,7.94,-105.12,28.38,2.81,13.56,18.56,2.08
53.00,1.00,283.44,-3.25,-54.94,-0.62,3.75,-0.31,18.56,2.08
53.00,2.00,292.94,-18.31,14.31,1.12,-1.19,6.69,18.56,2.08
53.00,0.00,258.75,8.19,-105.75,30.12,2.25,13.75,19.81,2.10
53.00,1.00,283.38,-3.31,-54.94,-0.88,3.81,-0.31,19.81,2.10
53.00,2.00,292.81,-18.31,14.25,0.69,-2.06,7.50,19.81,2.10
53.00,0.00,258.38,8.44,-106.38,30.94,1.31,13.50,21.11,2.12
53.00,1.00,283.38,-3.31,-54.94,-0.19,4.44,-0.12,21.11,2.12
53.00,2.00,292.62,-18.31,14.12,0.69,-3.38,8.62,21.11,2.12
53.00,0.00,258.00,8.69,-106.94,29.88,1.19,11.81,22.36,2.14
53.00,1.00,283.31,-3.38,-54.94,-0.19,4.69,0.19,22.36,2.14
53.00,2.00,292.44,-18.25,14.06,0.50,-2.69,8.94,22.36,2.14
53.00,0.00,257.56,8.88,-107.50,29.75,1.88,11.69,23.62,2.16
53.00,1.00,283.25,-3.44,-54.94,-0.38,4.06,0.69,23.62,2.16
53.00,2.00,292.25,-18.25,14.00,0.25,-2.75,9.25,23.62,2.16
53.00,0.00,257.19,9.12,-108.12,31.00,2.31,12.62,24.93,2.18
53.00,1.00,283.19,-3.50,-54.94,-0.81,4.12,0.56,24.93,2.18
53.00,2.00,292.06,-18.25,13.94,0.44,-3.75,9.75,24.93,2.18
53.00,0.00,256.69,9.38,-108.75,31.81,1.56,13.00,26.19,2.20
53.00,1.00,283.12,-3.50,-54.94,-0.81,4.94,0.88,26.19,2.20
53.00,2.00,291.88,-18.25,13.88,2.25,-3.44,10.25,26.19,2.20
53.00,0.00,256.25,9.62,-109.38,32.12,2.12,12.88,27.51,2.22
53.00,1.00,283.06,-3.56,-54.94,-0.62,5.31,1.31,27.51,2.22
53.00,2.00,291.69,-18.25,13.75,1.25,-3.00,11.25,27.51,2.22
53.00,0.00,255.75,9.88,-110.00,31.81,3.00,13.25,28.91,2.24
53.00,1.00,283.00,-3.56,-54.88,-0.81,5.50,1.56,28.91,2.24
53.00,2.00,291.44,-18.19,13.69,-0.88,-4.44,12.50,28.91,2.24
53.00,0.00,255.25,10.12,-110.62,30.88,3.31,12.38,30.29,2.26
53.00,1.00,282.88,-3.62,-54.88,-0.88,6.38,1.69,30.29,2.26
53.00,2.00,291.12,-18.19,13.62,-1.44,-4.94,13.19,30.29,2.26
53.00,0.00,254.81,10.38,-111.25,32.25,2.31,13.50,31.66,2.28
53.00,1.00,282.81,-3.69,-54.88,-0.94,6.31,1.88,31.66,2.28
53.00,2.00,290.88,-18.12,13.56,0.00,-4.75,13.06,31.66,2.28
53.00,0.00,254.19,10.69,-111.88,33.88,3.94,15.50,33.07,2.30
53.00,1.00,282.69,-3.75,-54.88,-2.00,6.38,1.62,33.07,2.30
53.00,2.00,290.62,-18.12,13.44,1.00,-4.62,13.75,33.07,2.30
53.00,0.00,253.56,11.00,-112.56,33.38,4.56,15.25,34.44,2.32
53.00,1.00,282.56,-3.75,-54.81,-1.88,7.62,1.75,34.44,2.32
53.00,2.00,290.31,-18.06,13.31,1.31,-5.38,14.50,34.44,2.32
53.00,0.00,252.94,11.31,-113.19,33.12,5.25,15.31,35.81,2.34
53.00,1.00,282.44,-3.81,-54.81,-0.50,8.19,1.81,35.81,2.34
53.00,2.00,290.00,-18.06,13.25,1.06,-5.25,15.12,35.81,2.34
53.00,0.00,252.25,11.62,-113.81,31.88,7.12,15.25,37.11,2.36
53.00,1.00,282.38,-3.88,-54.81,-2.88,6.25,2.50,37.11,2.36
53.00,2.00,289.75,-18.00,13.12,1.50,-5.12,14.62,37.11,2.36
53.00,0.00,251.56,11.94,-114.44,32.94,6.00,15.31,38.44,2.38
53.00,1.00,282.19,-3.94,-54.81,-0.94,8.62,2.50,38.44,2.38
53.00,2.00,289.44,-18.00,13.00,1.69,-3.75,14.94,38.44,2.38
53.00,0.00,250.81,12.31,-115.06,34.00,7.50,16.62,39.83,2.40
53.00,1.00,282.06,-3.94,-54.81,-0.94,7.31,2.81,39.83,2.40
53.00,2.00,289.12,-18.00,12.88,1.56,-4.50,16.50,39.83,2.40
53.00,0.00,250.00,12.62,-115.75,33.38,7.94,15.75,41.18,2.42
53.00,1.00,281.94,-4.00,-54.81,-1.31,8.38,2.81,41.18,2.42
53.00,2.00,288.81,-17.94,12.69,1.81,-6.69,16.62,41.18,2.42
53.00,0.00,249.25,13.00,-116.38,33.62,8.00,16.31,42.57,2.44
53.00,1.00,281.81,-4.06,-54.81,-1.19,8.75,2.81,42.57,2.44
53.00,2.00,288.50,-17.88,12.56,1.12,-5.44,16.25,42.57,2.44
53.00,0.00,248.81,13.12,-116.69,33.50,8.75,16.81,44.02,2.46
53.00,1.00,281.62,-4.12,-54.81,-1.44,8.50,2.88,44.02,2.46
53.00,2.00,288.12,-17.88,12.50,-0.50,-5.50,16.88,44.02,2.46
53.00,0.00,247.62,13.69,-117.62,34.25,7.44,17.38,45.49,2.48
53.00,1.00,281.50,-4.12,-54.75,-1.38,8.25,2.88,45.49,2.48
53.00,2.00,287.81,-17.81,12.38,-0.19,-6.75,16.19,45.49,2.48
53.00,0.00,246.81,14.00,-118.31,33.44,7.50,16.75,46.85,2.50
53.00,1.00,281.38,-4.19,-54.75,-2.12,7.75,3.00,46.85,2.50
53.00,2.00,287.50,-17.75,12.31,1.56,-5.62,15.69,46.85,2.50
53.00,0.00,246.12,14.25,-118.88,32.75,5.75,15.25,48.18,2.52
53.00,1.00,281.19,-4.25,-54.75,-0.31,8.88,2.62,48.18,2.52
53.00,2.00,287.19,-17.69,12.12,1.75,-4.25,16.00,48.18,2.52
53.00,0.00,245.44,14.50,-119.50,31.69,4.06,14.88,49.53,2.54
53.00,1.00,281.06,-4.25,-54.75,-1.81,8.62,3.31,49.53,2.54
53.00,2.00,286.88,-17.69,12.06,0.12,-4.56,17.25,49.53,2.54
53.00,0.00,245.12,14.69,-119.81,32.56,1.75,15.38,50.92,2.56
53.00,1.00,280.88,-4.31,-54.75,-1.00,10.06,3.12,50.92,2.56
53.00,2.00,286.50,-17.62,11.94,-0.06,-4.75,17.44,50.92,2.56
53.00,0.00,244.56,14.88,-120.50,32.44,-0.56,14.50,52.28,2.58
53.00,1.00,280.75,-4.38,-54.75,-2.25,9.00,2.75,52.28,2.58
53.00,2.00,286.19,-17.62,11.88,0.56,-4.94,16.88,52.28,2.58
53.00,0.00,244.12,15.06,-121.12,31.19,-2.00,13.25,53.55,2.60
53.00,1.00,280.56,-4.44,-54.69,-1.31,10.00,2.75,53.55,2.60
53.00,2.00,285.88,-17.62,11.75,1.50,-3.94,16.75,53.55,2.60
53.00,0.00,243.75,15.19,-121.69,29.44,-2.88,12.19,54.79,2.62
53.00,1.00,280.44,-4.50,-54.69,-1.50,8.75,2.19,54.79,2.62
53.00,2.00,285.50,-17.56,11.62,0.38,-3.94,16.88,54.79,2.62
53.00,0.00,243.38,15.31,-122.25,30.31,-4.25,12.75,56.05,2.64
53.00,1.00,280.31,-4.56,-54.69,-0.69,10.69,2.12,56.05,2.64
53.00,2.00,285.19,-17.56,11.56,0.81,-2.00,17.19,56.05,2.64
53.00,0.00,243.00,15.44,-122.88,29.38,-2.56,12.50,57.26,2.66
53.00,1.00,280.12,-4.69,-54.69,-0.44,10.62,2.38,57.26,2.66
53.00,2.00,284.88,-17.62,11.44,1.19,-2.25,16.50,57.26,2.66
53.00,0.00,242.62,15.56,-123.38,28.44,-2.06,9.75,58.43,2.68
53.00,1.00,280.00,-4.75,-54.69,-1.38,10.50,2.94,58.43,2.68
53.00,2.00,284.56,-17.62,11.31,0.88,-3.31,15.81,58.43,2.68
53.00,0.00,242.31,15.69,-123.88,30.00,-2.62,10.44,59.71,2.70
53.00,1.00,279.81,-4.81,-54.69,-1.19,10.62,2.56,59.71,2.70
53.00,2.00,284.25,-17.62,11.25,0.25,-3.38,16.25,59.71,2.70
53.00,0.00,241.94,15.81,-124.44,29.94,-2.25,11.19,61.02,2.72
53.00,1.00,279.69,-4.88,-54.69,-1.75,9.75,2.81,61.02,2.72
53.00,2.00,283.94,-17.56,11.19,-0.75,-4.12,16.69,61.02,2.72
53.00,0.00,241.50,15.94,-125.00,29.69,-1.19,10.38,62.30,2.74
53.00,1.00,279.50,-4.94,-54.69,-1.94,8.56,2.94,62.30,2.74
53.00,2.00,283.62,-17.56,11.06,-0.31,-4.44,15.69,62.30,2.74
53.00,0.00,241.06,16.00,-125.56,29.62,-1.19,10.00,63.56,2.76
53.00,1.00,279.38,-5.00,-54.62,-1.88,7.88,2.81,63.56,2.76
53.00,2.00,283.31,-17.50,11.06,0.12,-4.69,15.19,63.56,2.76
53.00,0.00,240.62,16.12,-126.06,26.94,0.62,8.19,64.65,2.78
53.00,1.00,279.25,-5.06,-54.62,-1.19,8.44,2.62,64.65,2.78
53.00,2.00,283.00,-17.50,11.00,1.31,-4.75,14.25,64.65,2.78
53.00,0.00,240.25,16.25,-126.50,24.69,0.75,7.19,65.60,2.80
53.00,1.00,279.12,-5.06,-54.62,-0.31,8.56,2.88,65.60,2.80
53.00,2.00,282.75,-17.44,10.88,2.44,-3.88,13.62,65.60,2.80
53.00,0.00,239.88,16.25,-126.94,24.25,0.25,7.06,66.56,2.82
53.00,1.00,279.06,-5.12,-54.69,-0.56,7.94,3.19,66.56,2.82
53.00,2.00,282.50,-17.44,10.75,1.94,-3.38,13.69,66.56,2.82
53.00,0.00,239.56,16.38,-127.31,23.88,-1.31,6.62,67.52,2.84
53.00,1.00,278.81,-5.19,-54.69,-0.25,7.31,2.88,67.52,2.84
53.00,2.00,282.25,-17.38,10.69,1.38,-5.44,13.25,67.52,2.84
53.00,0.00,239.12,16.44,-127.81,23.88,-2.19,7.00,68.48,2.86
53.00,1.00,278.75,-5.19,-54.69,-1.00,6.81,2.94,68.48,2.86
53.00,2.00,282.00,-17.31,10.62,1.50,-4.75,12.62,68.48,2.86
53.00,0.00,238.81,16.50,-128.25,22.00,-0.69,6.00,69.36,2.88
53.00,1.00,278.56,-5.25,-54.69,0.38,7.00,2.69,69.36,2.88
53.00,2.00,281.75,-17.25,10.50,1.38,-4.19,12.06,69.36,2.88
53.00,0.00,238.56,16.56,-128.56,20.88,-0.56,5.25,70.20,2.90
53.00,1.00,278.56,-5.25,-54.69,0.06,6.50,2.81,70.20,2.90
53.00,2.00,281.50,-17.25,10.44,1.12,-4.06,11.50,70.20,2.90
53.00,0.00,238.31,16.56,-128.88,19.44,-1.44,3.88,70.96,2.92
53.00,1.00,278.44,-5.31,-54.69,-0.38,5.25,2.50,70.96,2.92
53.00,2.00,281.31,-17.19,10.38,1.62,-4.31,10.62,70.96,2.92
53.00,0.00,238.06,16.62,-129.31,20.88,-2.75,4.75,71.77,2.94
53.00,1.00,278.31,-5.31,-54.75,0.12,5.75,2.44,71.77,2.94
53.00,2.00,281.12,-17.12,10.31,1.94,-4.31,9.81,71.77,2.94
53.00,0.00,237.69,16.69,-129.75,21.56,-1.38,7.06,72.61,2.96
53.00,1.00,278.19,-5.31,-54.75,0.25,5.38,2.25,72.61,2.96
53.00,2.00,280.94,-17.06,10.19,2.00,-3.19,9.81,72.61,2.96
53.00,0.00,237.25,16.81,-130.12,19.81,0.94,6.88,73.41,2.98
53.00,1.00,278.06,-5.38,-54.75,0.12,5.31,2.38,73.41,2.98
53.00,2.00,280.75,-17.06,10.12,1.00,-3.75,9.62,73.41,2.98
53.00,0.00,236.81,16.94,-130.44,16.94,3.19,5.19,74.08,3.00
53.00,1.00,278.00,-5.38,-54.75,0.19,4.38,2.12,74.08,3.00
53.00,2.00,280.56,-17.00,10.06,1.31,-4.06,9.81,74.08,3.00
53.00,0.00,236.38,17.00,-130.69,14.06,3.88,3.31,74.54,3.02
53.00,1.00,277.94,-5.38,-54.75,0.12,4.38,1.88,74.54,3.02
53.00,2.00,280.38,-16.94,10.00,3.19,-3.38,9.00,74.54,3.02
53.00,0.00,236.00,17.12,-130.94,13.38,3.62,3.25,74.97,3.04
53.00,1.00,277.88,-5.44,-54.81,0.62,5.44,2.12,74.97,3.04
53.00,2.00,280.25,-16.88,9.88,3.44,-3.31,8.19,74.97,3.04
53.00,0.00,235.56,17.19,-131.19,14.56,3.62,4.44,75.51,3.06
53.00,1.00,277.75,-5.44,-54.81,-0.56,4.56,2.12,75.51,3.06
53.00,2.00,280.06,-16.88,9.75,1.88,-3.31,8.88,75.51,3.06
53.00,0.00,235.06,17.38,-131.50,15.38,4.19,5.50,76.13,3.08
53.00,1.00,277.62,-5.44,-54.81,0.81,6.00,2.19,76.13,3.08
53.00,2.00,279.88,-16.81,9.69,0.94,-5.00,9.00,76.13,3.08
53.00,0.00,234.56,17.50,-131.69,12.31,6.25,3.81,76.56,3.10
53.00,1.00,277.50,-5.50,-54.88,0.25,4.81,2.19,76.56,3.10
53.00,2.00,279.69,-16.75,9.62,2.25,-4.12,8.94,76.56,3.10
53.00,0.00,234.19,17.56,-131.88,10.81,5.31,1.88,76.90,3.12
53.00,1.00,277.50,-5.50,-54.88,0.25,4.81,2.19,76.90,3.12
53.00,2.00,279.56,-16.69,9.56,2.88,-3.31,8.38,76.90,3.12
53.00,0.00,233.69,17.69,-132.12,13.56,6.12,5.00,77.37,3.14
53.00,1.00,277.38,-5.50,-54.88,0.94,5.88,2.31,77.37,3.14
53.00,2.00,279.38,-16.62,9.44,2.44,-3.81,8.50,77.37,3.14
53.00,0.00,233.00,17.94,-132.38,12.06,9.81,5.62,77.81,3.16
53.00,1.00,277.25,-5.56,-54.88,0.19,4.81,2.25,77.81,3.16
53.00,2.00,279.25,-16.56,9.38,1.81,-3.94,8.31,77.81,3.16
53.00,0.00,232.88,18.06,-132.56,11.44,7.56,3.00,78.21,3.18
53.00,1.00,277.19,-5.56,-54.88,0.56,4.75,1.81,78.21,3.18
53.00,2.00,279.06,-16.50,9.31,2.00,-4.44,8.19,78.21,3.18
53.00,0.00,232.38,18.19,-132.75,13.31,6.56,3.69,78.65,3.20
53.00,1.00,277.12,-5.56,-54.94,0.44,4.69,1.94,78.65,3.20
53.00,2.00,278.94,-16.44,9.25,3.12,-3.50,7.50,78.65,3.20
53.00,0.00,232.19,18.38,-133.00,14.19,7.25,5.25,79.13,3.22
53.00,1.00,277.00,-5.56,-54.94,0.50,4.81,2.38,79.13,3.22
53.00,2.00,278.81,-16.38,9.19,2.94,-3.44,6.62,79.13,3.22
53.00,0.00,231.69,18.50,-133.19,12.44,6.50,3.62,79.54,3.24
53.00,1.00,276.94,-5.62,-54.94,0.75,5.31,2.12,79.54,3.24
53.00,2.00,278.69,-16.31,9.06,2.81,-4.19,6.62,79.54,3.24
53.00,0.00,231.31,18.56,-133.38,11.12,4.81,1.25,79.88,3.26
53.00,1.00,276.81,-5.62,-54.94,-0.31,3.38,2.00,79.88,3.26
53.00,2.00,278.56,-16.25,9.00,3.19,-4.19,6.19,79.88,3.26
53.00,0.00,231.25,18.62,-133.62,12.44,4.12,2.25,80.27,3.28
53.00,1.00,276.75,-5.62,-55.00,-0.25,2.88,1.56,80.27,3.28
53.00,2.00,278.50,-16.12,8.94,3.38,-4.62,5.19,80.27,3.28
53.00,0.00,230.75,18.75,-133.88,13.25,4.94,4.25,80.69,3.30
53.00,1.00,276.69,-5.62,-55.00,-0.38,2.44,1.62,80.69,3.30
53.00,2.00,278.38,-16.06,8.81,3.44,-4.31,5.06,80.69,3.30
53.00,0.00,230.62,18.88,-134.06,12.38,5.50,4.19,81.04,3.32
53.00,1.00,276.62,-5.69,-55.00,0.38,3.31,1.25,81.04,3.32
53.00,2.00,278.31,-16.00,8.75,4.00,-4.06,4.44,81.04,3.32
53.00,0.00,230.19,19.00,-134.31,11.38,5.12,3.50,81.36,3.34
53.00,1.00,276.62,-5.69,-55.00,-0.12,2.31,1.50,81.36,3.34
53.00,2.00,278.19,-15.94,8.62,3.88,-3.69,5.06,81.36,3.34
53.00,0.00,229.69,19.12,-134.50,10.75,5.00,3.19,81.67,3.36
53.00,1.00,276.56,-5.69,-55.00,0.69,2.81,1.25,81.67,3.36
53.00,2.00,278.12,-15.88,8.56,3.62,-4.00,4.81,81.67,3.36
53.00,0.00,229.50,19.19,-134.69,10.19,4.75,3.06,81.94,3.38
53.00,1.00,276.50,-5.69,-55.00,0.31,2.88,1.25,81.94,3.38
53.00,2.00,278.00,-15.75,8.44,3.81,-3.88,4.69,81.94,3.38
53.00,0.00,229.12,19.31,-134.88,11.00,2.31,3.00,82.23,3.40
53.00,1.00,276.44,-5.69,-55.06,-0.25,2.31,1.56,82.23,3.40
53.00,2.00,277.94,-15.69,8.38,4.31,-3.25,4.25,82.23,3.40
53.00,0.00,228.94,19.38,-135.12,14.00,2.88,5.94,82.66,3.42
53.00,1.00,276.38,-5.69,-55.06,0.00,3.00,1.00,82.66,3.42
53.00,2.00,277.88,-15.62,8.25,3.88,-3.75,4.94,82.66,3.42
53.00,0.00,228.38,19.56,-135.38,12.44,5.62,6.38,83.03,3.44
53.00,1.00,276.31,-5.75,-55.06,0.75,3.25,0.81,83.03,3.44
53.00,2.00,277.81,-15.56,8.19,3.69,-3.88,4.69,83.03,3.44
53.00,0.00,227.88,19.69,-135.62,10.25,4.12,4.38,83.27,3.46
53.00,1.00,276.31,-5.75,-55.06,0.06,2.75,0.56,83.27,3.46
53.00,2.00,277.69,-15.50,8.06,4.81,-3.12,3.75,83.27,3.46
53.00,0.00,227.88,19.81,-135.81,11.00,3.12,4.25,83.51,3.48
53.00,1.00,276.31,-5.75,-55.06,-0.25,1.69,0.31,83.51,3.48
53.00,2.00,277.69,-15.44,8.00,5.25,-2.94,3.69,83.51,3.48
53.00,0.00,227.44,19.94,-136.06,12.56,3.12,6.38,83.86,3.50
53.00,1.00,276.25,-5.81,-55.06,0.50,2.38,0.56,83.86,3.50
53.00,2.00,277.62,-15.38,7.88,4.50,-3.38,3.81,83.86,3.50
53.00,0.00,227.25,20.06,-136.31,12.19,3.25,7.25,84.20,3.52
53.00,1.00,276.25,-5.81,-55.06,-0.25,1.38,0.94,84.20,3.52
53.00,2.00,277.50,-15.31,7.81,4.19,-4.69,3.88,84.20,3.52
53.00,0.00,226.81,20.19,-136.56,10.81,2.75,5.06,84.41,3.54
53.00,1.00,276.19,-5.81,-55.06,1.25,2.75,0.25,84.41,3.54
53.00,2.00,277.50,-15.25,7.69,5.81,-3.69,3.31,84.41,3.54
53.00,0.00,226.44,20.25,-136.75,11.00,1.81,4.19,84.62,3.56
53.00,1.00,276.19,-5.81,-55.12,0.38,1.25,0.44,84.62,3.56
53.00,2.00,277.44,-15.19,7.56,6.19,-3.06,2.56,84.62,3.56
53.00,0.00,226.38,20.31,-137.00,12.06,0.88,5.50,84.91,3.58
53.00,1.00,276.19,-5.88,-55.12,0.88,2.38,0.50,84.91,3.58
53.00,2.00,277.38,-15.12,7.44,5.12,-3.88,2.62,84.91,3.58
53.00,0.00,225.88,20.44,-137.25,12.44,1.69,6.88,85.25,3.60
53.00,1.00,276.12,-5.88,-55.12,-0.12,0.94,0.62,85.25,3.60
53.00,2.00,277.31,-15.00,7.31,4.56,-4.75,3.25,85.25,3.60
53.00,0.00,225.69,20.56,-137.56,12.88,2.25,7.31,85.59,3.62
53.00,1.00,276.12,-5.88,-55.12,1.25,2.44,0.06,85.59,3.62
53.00,2.00,277.31,-14.94,7.25,5.00,-3.81,3.25,85.59,3.62
53.00,0.00,225.25,20.69,-137.81,11.81,2.62,6.00,85.86,3.64
53.00,1.00,276.12,-5.88,-55.19,0.50,1.19,0.12,85.86,3.64
53.00,2.00,277.25,-14.88,7.12,5.31,-3.50,3.44,85.86,3.64
53.00,0.00,224.88,20.75,-138.00,11.25,1.38,4.75,86.09,3.66
53.00,1.00,276.06,-5.94,-55.19,1.25,1.88,0.06,86.09,3.66
53.00,2.00,277.19,-14.81,7.00,5.88,-3.25,3.19,86.09,3.66
53.00,0.00,224.62,20.81,-138.31,13.25,0.75,6.31,86.42,3.68
53.00,1.00,276.06,-5.94,-55.19,0.94,1.56,0.25,86.42,3.68
53.00,2.00,277.12,-14.75,6.88,5.62,-3.31,3.31,86.42,3.68
53.00,0.00,224.12,20.94,-138.56,12.44,3.00,6.75,86.71,3.70
53.00,1.00,276.06,-5.94,-55.25,1.81,2.50,0.19,86.71,3.70
53.00,2.00,277.06,-14.69,6.75,5.62,-3.38,3.31,86.71,3.70
53.00,0.00,223.94,21.00,-138.69,8.75,2.00,3.31,86.86,3.72
53.00,1.00,276.06,-6.00,-55.25,0.25,0.75,0.38,86.86,3.72
53.00,2.00,277.06,-14.62,6.62,5.31,-3.25,3.25,86.86,3.72
53.00,0.00,223.88,20.94,-138.81,8.31,-0.88,0.81,86.99,3.74
53.00,1.00,276.00,-6.00,-55.25,0.12,1.50,0.44,86.99,3.74
53.00,2.00,277.00,-14.50,6.56,5.12,-3.31,2.56,86.99,3.74
53.00,0.00,223.62,20.94,-139.00,11.19,-1.25,2.94,87.30,3.76
53.00,1.00,276.00,-6.00,-55.25,-0.19,0.75,0.56,87.30,3.76
53.00,2.00,276.94,-14.44,6.44,4.12,-3.06,2.94,87.30,3.76
53.00,0.00,104.50,21.06,-139.31,14.06,0.81,7.31,87.72,3.78
53.00,1.00,276.00,-6.00,-55.31,1.69,2.62,0.00,87.72,3.78
53.00,2.00,276.88,-14.44,6.38,4.06,-2.69,3.19,87.72,3.78
53.00,0.00,104.56,21.19,-139.56,10.25,3.69,5.75,87.96,3.80
53.00,1.00,276.00,-6.06,-55.31,1.62,2.12,0.19,87.96,3.80
53.00,2.00,276.88,-14.38,6.25,4.69,-2.56,2.06,87.96,3.80
53.00,0.00,104.75,21.25,-139.69,6.19,1.19,0.44,88.03,3.82
53.00,1.00,275.94,-6.06,-55.31,0.19,0.38,0.12,88.03,3.82
53.00,2.00,276.81,-14.31,6.19,4.50,-2.38,1.25,88.03,3.82
53.00,0.00,104.75,21.25,-139.81,7.12,-1.00,-0.38,88.14,3.84
53.00,1.00,275.94,-6.06,-55.31,0.25,0.44,-0.44,88.14,3.84
53.00,2.00,276.81,-14.25,6.12,4.62,-2.12,1.56,88.14,3.84
53.00,0.00,104.75,21.25,-140.00,9.81,-0.31,2.44,88.35,3.86
53.00,1.00,275.94,-6.06,-55.31,0.25,-0.56,-0.31,88.35,3.86
53.00,2.00,276.81,-14.19,6.00,4.88,-2.00,1.44,88.35,3.86
53.00,0.00,105.12,21.31,-140.19,9.94,2.56,5.00,88.59,3.88
53.00,1.00,275.94,-6.06,-55.38,1.50,1.56,-0.31,88.59,3.88
53.00,2.00,276.81,-14.19,5.94,4.25,-2.44,0.62,88.59,3.88
53.00,0.00,105.12,21.44,-140.38,7.00,3.19,2.38,88.73,3.90
53.00,1.00,275.94,-6.06,-55.38,0.75,-0.25,0.00,88.73,3.90
53.00,2.00,276.81,-14.12,5.88,3.75,-2.06,1.00,88.73,3.90
53.00,0.00,105.44,21.44,-140.50,6.25,2.50,0.31,88.85,3.92
53.00,1.00,276.00,-6.06,-55.38,-0.31,-1.44,-0.25,88.85,3.92
53.00,2.00,276.75,-14.06,5.81,3.38,-1.81,0.62,88.85,3.92
53.00,0.00,105.44,21.50,-140.56,6.81,2.88,1.06,88.98,3.94
53.00,1.00,276.00,-6.06,-55.38,1.44,0.69,-0.62,88.98,3.94
53.00,2.00,276.81,-14.06,5.75,3.81,-1.31,0.38,88.98,3.94
53.00,0.00,105.44,21.56,-140.75,7.56,2.56,2.75,89.14,3.96
53.00,1.00,276.00,-6.06,-55.44,0.94,-0.31,-0.38,89.14,3.96
53.00,2.00,276.81,-14.00,5.69,3.88,-0.88,0.56,89.14,3.96
53.00,0.00,105.56,21.62,-140.88,7.00,2.62,2.25,89.31,3.98
53.00,1.00,276.00,-6.06,-55.44,1.94,0.50,-0.25,89.31,3.98
53.00,2.00,276.81,-14.00,5.62,3.00,-1.31,0.44,89.31,3.98
53.00,0.00,105.56,21.69,-140.94,6.06,2.38,1.31,89.44,4.00
53.00,1.00,276.00,-6.06,-55.50,0.94,-0.19,-0.06,89.44,4.00
53.00,2.00,276.81,-13.94,5.56,3.12,-1.88,0.94,89.44,4.00
53.00,0.00,105.50,21.69,-141.00,5.81,1.62,0.75,89.55,4.02
53.00,1.00,276.00,-6.06,-55.50,1.25,-0.31,-0.06,89.55,4.02
53.00,2.00,276.81,-13.94,5.50,3.19,-1.44,0.75,89.55,4.02
53.00,0.00,105.69,21.75,-141.19,5.75,1.06,1.19,89.66,4.04
53.00,1.00,276.00,-6.06,-55.50,1.12,-0.56,0.06,89.66,4.04
53.00,2.00,276.81,-13.88,5.44,3.19,-1.44,0.62,89.66,4.04
53.00,0.00,105.69,21.81,-141.31,6.38,1.69,1.44,89.82,4.06
53.00,1.00,276.00,-6.06,-55.56,1.06,-0.75,0.25,89.82,4.06
53.00,2.00,276.75,-13.88,5.38,2.62,-1.38,0.62,89.82,4.06
53.00,0.00,105.69,21.88,-141.44,6.56,2.38,2.00,89.97,4.08
53.00,1.00,276.00,-6.06,-55.56,1.62,-0.12,0.00,89.97,4.08
53.00,2.00,276.75,-13.81,5.31,3.06,-1.50,1.75,89.97,4.08
53.00,0.00,105.69,21.94,-141.56,7.50,4.06,2.62,90.11,4.10
53.00,1.00,276.00,-6.06,-55.62,1.44,-0.31,-0.31,90.11,4.10
53.00,2.00,276.75,-13.81,5.25,4.19,-1.88,1.56,90.11,4.10
53.00,0.00,105.69,22.00,-141.62,8.00,6.25,3.38,90.28,4.12
53.00,1.00,276.00,-6.06,-55.62,1.25,-0.62,0.19,90.28,4.12
53.00,2.00,276.75,-13.75,5.12,4.12,-0.69,1.38,90.28,4.12
53.00,0.00,105.88,22.12,-141.81,8.06,6.94,4.25,90.52,4.14
53.00,1.00,276.00,-6.06,-55.69,2.31,1.62,0.62,90.52,4.14
53.00,2.00,276.69,-13.75,5.06,2.31,-1.88,2.19,90.52,4.14
53.00,0.00,105.88,22.31,-141.94,9.75,7.88,5.19,90.87,4.16
53.00,1.00,275.94,-6.06,-55.69,1.94,1.06,1.31,90.87,4.16
53.00,2.00,276.62,-13.69,5.00,1.62,-3.00,2.88,90.87,4.16
53.00,0.00,106.06,22.50,-142.12,8.50,10.25,5.88,91.12,4.18
53.00,1.00,275.94,-6.06,-55.75,2.81,1.69,0.94,91.12,4.18
53.00,2.00,276.62,-13.62,4.94,2.69,-2.44,2.38,91.12,4.18
53.00,0.00,106.06,22.75,-142.25,5.56,7.62,2.31,91.22,4.20
53.00,1.00,275.88,-6.06,-55.81,2.00,1.50,1.19,91.22,4.20
53.00,2.00,276.56,-13.56,4.88,3.06,-1.81,2.00,91.22,4.20
53.00,0.00,106.06,22.88,-142.38,6.25,2.94,1.50,91.37,4.22
53.00,1.00,275.81,-6.06,-55.88,1.50,0.75,1.06,91.37,4.22
53.00,2.00,276.50,-13.50,4.81,2.75,-1.94,2.62,91.37,4.22
53.00,0.00,106.19,22.94,-142.50,8.75,3.00,3.06,91.62,4.24
53.00,1.00,275.81,-6.06,-55.88,1.31,0.69,0.88,91.62,4.24
53.00,2.00,276.44,-13.50,4.75,3.06,-2.25,3.25,91.62,4.24
53.00,0.00,106.19,23.00,-142.69,9.12,4.56,5.62,91.86,4.26
53.00,1.00,275.75,-6.06,-55.94,2.62,2.31,1.06,91.86,4.26
53.00,2.00,276.44,-13.44,4.69,3.50,-1.12,3.06,91.86,4.26
53.00,0.00,106.31,23.12,-142.81,7.50,5.50,5.19,92.08,4.28
53.00,1.00,275.75,-6.06,-56.00,2.50,2.31,1.88,92.08,4.28
53.00,2.00,276.38,-13.44,4.56,2.31,-0.69,3.19,92.08,4.28
53.00,0.00,106.31,23.25,-142.94,7.69,3.19,3.12,92.37,4.30
53.00,1.00,275.69,-6.00,-56.06,1.50,1.31,1.94,92.37,4.30
53.00,2.00,276.31,-13.38,4.56,0.94,-1.38,3.56,92.37,4.30
53.00,0.00,106.38,23.38,-143.12,8.44,3.69,4.38,92.67,4.32
53.00,1.00,275.62,-6.00,-56.12,1.62,2.25,1.12,92.67,4.32
53.00,2.00,276.25,-13.38,4.50,1.31,-0.88,3.06,92.67,4.32
53.00,0.00,106.44,23.50,-143.25,5.56,3.38,3.12,92.85,4.34
53.00,1.00,275.56,-6.00,-56.19,2.06,2.25,0.81,92.85,4.34
53.00,2.00,276.19,-13.31,4.50,1.31,-0.19,2.25,92.85,4.34
53.00,0.00,106.44,23.56,-143.38,2.88,-0.62,-0.31,92.90,4.36
53.00,1.00,275.56,-6.00,-56.25,0.81,1.50,0.19,92.90,4.36
53.00,2.00,276.12,-13.31,4.44,1.88,-0.06,1.81,92.90,4.36
53.00,0.00,106.50,23.50,-143.44,2.62,-2.00,-1.38,92.89,4.38
53.00,1.00,275.50,-6.00,-56.25,0.88,2.12,-0.81,92.89,4.38
53.00,2.00,276.12,-13.31,4.38,2.81,0.00,2.00,92.89,4.38
53.00,0.00,106.50,23.44,-143.50,5.94,-1.44,2.44,93.01,4.40
53.00,1.00,275.50,-6.06,-56.31,-0.25,1.62,-0.75,93.01,4.40
53.00,2.00,276.06,-13.31,4.31,3.06,-1.12,2.44,93.01,4.40
53.00,0.00,106.50,23.50,-143.62,6.56,0.62,4.31,93.15,4.42
53.00,1.00,275.50,-6.06,-56.31,1.25,3.94,-0.88,93.15,4.42
53.00,2.00,276.06,-13.25,4.25,3.25,-1.25,2.00,93.15,4.42
53.00,0.00,106.81,23.62,-143.81,6.19,3.88,6.00,93.28,4.44
53.00,1.00,275.44,-6.12,-56.31,0.25,2.56,-0.94,93.28,4.44
53.00,2.00,276.00,-13.25,4.19,3.19,-0.31,2.50,93.28,4.44
53.00,0.00,106.88,23.75,-143.94,5.38,4.88,5.50,93.37,4.46
53.00,1.00,275.44,-6.19,-56.31,0.25,2.69,-0.94,93.37,4.46
53.00,2.00,276.00,-13.25,4.12,3.31,-1.12,1.56,93.37,4.46
53.00,0.00,107.25,23.88,-144.00,5.50,3.12,4.50,93.43,4.48
53.00,1.00,275.44,-6.19,-56.31,-0.44,1.69,-0.94,93.43,4.48
53.00,2.00,276.00,-13.19,4.06,3.94,-0.88,0.56,93.43,4.48
53.00,0.00,107.25,23.88,-144.12,6.00,0.56,3.94,93.49,4.50
53.00,1.00,275.44,-6.25,-56.38,0.38,1.31,-1.06,93.49,4.50
53.00,2.00,276.00,-13.19,4.00,4.62,-0.56,-0.31,93.49,4.50
53.00,0.00,107.31,23.88,-144.25,5.69,-1.94,4.00,93.57,4.52
53.00,1.00,275.50,-6.25,-56.38,0.00,0.94,-1.19,93.57,4.52
53.00,2.00,276.00,-13.19,3.94,3.88,-1.06,-0.19,93.57,4.52
53.00,0.00,107.50,23.88,-144.38,5.31,-2.81,3.94,93.64,4.54
53.00,1.00,275.50,-6.31,-56.31,-0.69,-0.56,-1.38,93.64,4.54
53.00,2.00,276.00,-13.12,3.88,3.62,-1.19,-0.06,93.64,4.54
53.00,0.00,107.56,23.94,-144.56,5.25,-1.69,3.94,93.69,4.56
53.00,1.00,275.56,-6.31,-56.31,-0.62,-0.62,-1.56,93.69,4.56
53.00,2.00,276.00,-13.12,3.81,4.06,-0.81,-0.56,93.69,4.56
53.00,0.00,107.75,23.94,-144.69,5.19,0.69,4.06,93.78,4.58
53.00,1.00,275.56,-6.31,-56.31,0.00,-0.19,-1.19,93.78,4.58
53.00,2.00,276.06,-13.06,3.75,3.12,-1.00,-0.69,93.78,4.58
53.00,0.00,107.81,24.06,-144.75,4.56,2.56,4.12,93.87,4.60
53.00,1.00,275.56,-6.31,-56.31,-0.06,-0.94,-1.25,93.87,4.60
53.00,2.00,276.06,-13.06,3.69,2.44,-1.12,-0.50,93.87,4.60
53.00,0.00,107.88,24.12,-144.88,4.50,3.62,4.25,93.95,4.62
53.00,1.00,275.62,-6.38,-56.31,0.19,-0.38,-1.25,93.95,4.62
53.00,2.00,276.06,-13.00,3.69,2.75,-0.50,-0.56,93.95,4.62
53.00,0.00,108.00,24.25,-144.94,4.69,3.06,4.25,94.04,4.64
53.00,1.00,275.62,-6.38,-56.31,0.25,-0.50,-1.12,94.04,4.64
53.00,2.00,276.06,-13.00,3.62,2.44,-0.81,-0.88,94.04,4.64
53.00,0.00,108.06,24.31,-145.00,4.62,2.19,3.75,94.16,4.66
53.00,1.00,275.69,-6.38,-56.31,0.38,-1.12,-1.12,94.16,4.66
53.00,2.00,276.12,-13.00,3.62,1.88,-0.56,-1.38,94.16,4.66
53.00,0.00,108.31,24.31,-145.06,4.44,0.94,3.12,94.27,4.68
53.00,1.00,275.69,-6.38,-56.31,0.44,-0.19,-1.06,94.27,4.68
53.00,2.00,276.12,-13.00,3.56,1.81,0.00,-1.00,94.27,4.68
53.00,0.00,108.31,24.31,-145.12,3.69,0.00,2.38,94.32,4.70
53.00,1.00,275.75,-6.38,-56.31,0.25,-1.25,-0.88,94.32,4.70
53.00,2.00,276.19,-13.00,3.56,2.69,-0.06,-1.00,94.32,4.70
53.00,0.00,108.38,24.31,-145.19,3.00,-1.56,1.88,94.31,4.72
53.00,1.00,275.75,-6.38,-56.31,0.38,-0.88,-0.94,94.31,4.72
53.00,2.00,276.19,-13.00,3.50,3.06,0.31,-0.81,94.31,4.72
53.00,0.00,108.44,24.31,-145.31,2.12,-2.12,1.75,94.28,4.74
53.00,1.00,275.75,-6.38,-56.31,0.38,-0.56,-0.75,94.28,4.74
53.00,2.00,276.19,-13.00,3.44,2.81,0.69,-0.12,94.28,4.74
53.00,0.00,108.50,24.25,-145.38,2.06,-1.81,1.56,94.25,4.76
53.00,1.00,275.81,-6.44,-56.31,0.75,-0.19,-0.81,94.25,4.76
53.00,2.00,276.19,-13.00,3.38,2.81,-0.06,0.31,94.25,4.76
53.00,0.00,108.69,24.31,-145.38,2.06,0.31,1.75,94.24,4.78
53.00,1.00,275.81,-6.44,-56.31,1.00,-0.25,-0.62,94.24,4.78
53.00,2.00,276.25,-13.00,3.38,2.38,0.31,0.06,94.24,4.78
53.00,0.00,108.75,24.31,-145.44,1.50,0.75,1.75,94.22,4.80
53.00,1.00,275.81,-6.44,-56.38,0.88,-0.19,-0.19,94.22,4.80
53.00,2.00,276.25,-13.00,3.31,1.88,0.31,-0.38,94.22,4.80
53.00,0.00,108.75,24.38,-145.50,0.94,0.69,1.75,94.18,4.82
53.00,1.00,275.81,-6.44,-56.38,0.38,-0.38,-0.25,94.18,4.82
53.00,2.00,276.25,-12.94,3.25,1.88,-0.19,0.12,94.18,4.82
53.00,0.00,108.88,24.38,-145.50,1.31,-0.06,1.44,94.12,4.84
53.00,1.00,275.81,-6.44,-56.38,0.50,-0.31,-0.88,94.12,4.84
53.00,2.00,276.25,-12.94,3.25,2.69,0.06,0.12,94.12,4.84
53.00,0.00,108.94,24.38,-145.56,2.00,-0.44,1.38,94.09,4.86
53.00,1.00,275.81,-6.44,-56.38,0.50,-0.25,-0.75,94.09,4.86
53.00,2.00,276.25,-12.94,3.19,2.81,0.81,0.00,94.09,4.86
53.00,0.00,108.94,24.38,-145.62,2.69,0.88,1.50,94.12,4.88
53.00,1.00,275.81,-6.44,-56.38,1.56,0.75,-0.62,94.12,4.88
53.00,2.00,276.25,-12.94,3.12,1.94,0.38,0.31,94.12,4.88
53.00,0.00,108.94,24.44,-145.69,2.56,1.94,1.88,94.18,4.90
53.00,1.00,275.81,-6.44,-56.44,0.81,0.06,0.06,94.18,4.90
53.00,2.00,276.25,-12.94,3.12,1.19,-0.44,0.62,94.18,4.90
53.00,0.00,108.94,24.50,-145.75,2.19,1.62,1.81,94.19,4.92
53.00,1.00,275.81,-6.44,-56.44,0.69,0.06,-0.12,94.19,4.92
53.00,2.00,276.25,-12.94,3.06,2.00,0.00,0.25,94.19,4.92
53.00,0.00,109.12,24.50,-145.81,2.81,0.50,1.75,94.19,4.94
53.00,1.00,275.81,-6.44,-56.50,1.06,-0.19,-0.31,94.19,4.94
53.00,2.00,276.25,-12.94,3.00,2.75,0.12,0.31,94.19,4.94
53.00,0.00,109.12,24.56,-145.88,3.12,-0.25,1.44,94.20,4.96
53.00,1.00,275.81,-6.44,-56.56,1.31,0.31,-0.38,94.20,4.96
53.00,2.00,276.25,-12.94,3.00,2.81,0.44,0.50,94.20,4.96
53.00,0.00,109.19,24.56,-145.94,3.25,0.81,1.56,94.27,4.98
53.00,1.00,275.81,-6.44,-56.56,0.81,0.19,-0.06,94.27,4.98
53.00,2.00,276.25,-12.94,2.94,1.75,0.31,0.56,94.27,4.98
53.00,0.00,109.25,24.62,-146.00,2.75,1.69,1.69,94.39,5.00
53.00,1.00,275.81,-6.38,-56.62,0.69,1.00,0.19,94.39,5.00
53.00,2.00,276.25,-12.94,2.88,0.00,-0.62,0.94,94.39,5.00
53.00,0.00,109.25,24.69,-146.06,2.62,2.06,1.69,94.53,5.02
53.00,1.00,275.81,-6.38,-56.62,0.25,0.00,0.38,94.53,5.02
53.00,2.00,276.19,-12.88,2.88,-0.75,-1.00,1.62,94.53,5.02
53.00,0.00,109.38,24.69,-146.12,2.00,2.12,1.31,94.59,5.04
53.00,1.00,275.81,-6.38,-56.69,0.44,0.69,0.00,94.59,5.04
53.00,2.00,276.19,-12.88,2.88,0.50,0.00,1.00,94.59,5.04
53.00,0.00,109.38,24.75,-146.19,1.88,1.50,1.19,94.63,5.06
53.00,1.00,275.75,-6.38,-56.69,-0.12,0.75,0.00,94.63,5.06
53.00,2.00,276.19,-12.88,2.88,1.00,0.12,1.38,94.63,5.06
53.00,0.00,109.62,24.75,-146.19,2.00,0.81,0.56,94.68,5.08
53.00,1.00,275.75,-6.38,-56.69,0.44,2.06,-0.38,94.68,5.08
53.00,2.00,276.12,-12.88,2.81,0.94,0.50,1.56,94.68,5.08
53.00,0.00,109.62,24.81,-146.25,2.12,1.00,0.31,94.76,5.10
53.00,1.00,275.75,-6.38,-56.69,-0.06,1.31,-0.06,94.76,5.10
53.00,2.00,276.12,-12.88,2.81,0.06,0.62,1.69,94.76,5.10
53.00,0.00,109.62,24.81,-146.31,2.06,0.44,0.06,94.88,5.12
53.00,1.00,275.69,-6.38,-56.75,-0.19,2.56,-0.19,94.88,5.12
53.00,2.00,276.06,-12.88,2.81,-0.56,0.81,2.00,94.88,5.12
53.00,0.00,109.81,24.81,-146.31,1.81,0.75,-0.25,94.96,5.14
53.00,1.00,275.69,-6.44,-56.75,-0.56,1.50,-0.44,94.96,5.14
53.00,2.00,276.06,-12.88,2.81,-0.19,1.19,1.88,94.96,5.14
53.00,0.00,109.81,24.81,-146.38,1.38,0.94,-0.38,95.03,5.16
53.00,1.00,275.62,-6.44,-56.75,-0.69,1.69,-0.44,95.03,5.16
53.00,2.00,276.00,-12.88,2.81,-0.25,1.50,1.62,95.03,5.16
53.00,0.00,110.00,24.81,-146.38,1.44,0.69,-0.50,95.13,5.18
53.00,1.00,275.62,-6.44,-56.75,-0.56,1.81,-0.38,95.13,5.18
53.00,2.00,275.94,-12.94,2.81,-0.81,1.06,2.06,95.13,5.18
53.00,0.00,110.00,24.81,-146.38,1.00,0.25,-1.00,95.22,5.20
53.00,1.00,275.62,-6.44,-56.75,-0.88,1.50,0.06,95.22,5.20
53.00,2.00,275.94,-12.94,2.81,-1.25,1.00,1.88,95.22,5.20
53.00,0.00,110.00,24.81,-146.38,0.50,-0.56,-1.56,95.29,5.22
53.00,1.00,275.56,-6.44,-56.75,-1.50,1.56,-0.38,95.29,5.22
53.00,2.00,275.88,-12.94,2.81,-1.12,1.50,1.12,95.29,5.22
53.00,0.00,109.94,24.75,-146.38,0.06,-0.88,-2.12,95.36,5.24
53.00,1.00,275.56,-6.44,-56.75,-1.56,1.94,-0.88,95.36,5.24
53.00,2.00,275.88,-12.94,2.81,-1.44,2.19,0.69,95.36,5.24
53.00,0.00,109.88,24.75,-146.38,-0.06,-0.75,-2.31,95.47,5.26
53.00,1.00,275.56,-6.50,-56.75,-1.94,2.19,-1.12,95.47,5.26
53.00,2.00,275.88,-13.00,2.88,-2.69,1.56,0.88,95.47,5.26
53.00,0.00,109.88,24.69,-146.38,-0.62,-1.06,-2.38,95.57,5.28
53.00,1.00,275.56,-6.56,-56.69,-2.31,2.56,-1.31,95.57,5.28
53.00,2.00,275.81,-13.00,2.94,-2.94,1.62,1.38,95.57,5.28
53.00,0.00,109.81,24.62,-146.31,-1.31,-0.94,-2.50,95.60,5.30
53.00,1.00,275.56,-6.62,-56.69,-2.50,2.81,-1.75,95.60,5.30
53.00,2.00,275.81,-13.06,3.00,-2.12,2.69,1.19,95.60,5.30
53.00,0.00,109.81,24.62,-146.25,-1.75,-0.81,-2.44,95.61,5.32
53.00,1.00,275.56,-6.62,-56.62,-2.50,2.75,-1.94,95.61,5.32
53.00,2.00,275.75,-13.12,3.00,-1.94,3.62,1.56,95.61,5.32
53.00,0.00,109.75,24.56,-146.25,-1.31,-0.31,-1.88,95.64,5.34
53.00,1.00,275.56,-6.75,-56.56,-1.81,2.94,-1.88,95.64,5.34
53.00,2.00,275.75,-13.19,3.06,-2.00,3.56,1.69,95.64,5.34
53.00,0.00,109.75,24.56,-146.19,-1.25,1.00,-1.75,95.67,5.36
53.00,1.00,275.56,-6.75,-56.56,-1.56,3.25,-1.62,95.67,5.36
53.00,2.00,275.69,-13.25,3.06,-1.88,3.62,1.25,95.67,5.36
53.00,0.00,109.69,24.56,-146.12,-0.88,-0.56,-2.06,95.74,5.38
53.00,1.00,275.56,-6.81,-56.56,-1.69,3.06,-1.12,95.74,5.38
53.00,2.00,275.69,-13.31,3.12,-2.50,3.00,1.31,95.74,5.38
53.00,0.00,109.69,24.50,-146.12,-0.31,-3.69,-0.31,95.83,5.40
53.00,1.00,275.50,-6.88,-56.50,-2.00,2.75,-0.94,95.83,5.40
53.00,2.00,275.62,-13.38,3.19,-2.56,2.50,1.56,95.83,5.40
53.00,0.00,109.69,24.38,-146.12,-0.62,-4.00,-1.31,95.90,5.42
53.00,1.00,275.50,-6.94,-56.44,-2.38,2.00,-0.75,95.90,5.42
53.00,2.00,275.62,-13.44,3.25,-2.25,2.69,1.06,95.90,5.42
53.00,0.00,109.69,24.31,-146.12,-0.19,-3.62,-1.75,95.98,5.44
53.00,1.00,275.50,-6.94,-56.44,-1.94,1.56,-1.06,95.98,5.44
53.00,2.00,275.62,-13.44,3.31,-2.00,2.19,0.38,95.98,5.44
53.00,0.00,109.69,24.25,-146.12,0.00,-2.50,-1.06,96.05,5.46
53.00,1.00,275.50,-7.00,-56.38,-2.00,1.31,-1.31,96.05,5.46
53.00,2.00,275.62,-13.50,3.38,-1.62,2.50,0.19,96.05,5.46
53.00,0.00,109.69,24.25,-146.12,-0.25,-1.44,-0.31,96.12,5.48
53.00,1.00,275.56,-7.00,-56.38,-1.31,1.31,-1.25,96.12,5.48
53.00,2.00,275.62,-13.56,3.44,-1.88,2.44,-0.19,96.12,5.48
53.00,0.00,109.69,24.19,-146.12,-0.62,-0.94,-0.19,96.17,5.50
53.00,1.00,275.56,-7.06,-56.31,-1.50,0.50,-1.19,96.17,5.50
53.00,2.00,275.62,-13.56,3.50,-1.88,1.69,0.00,96.17,5.50
53.00,0.00,109.69,24.19,-146.12,-0.62,0.19,0.12,96.16,5.52
53.00,1.00,275.56,-7.06,-56.31,-1.00,0.44,-1.19,96.16,5.52
53.00,2.00,275.62,-13.62,3.50,-0.44,1.75,-0.94,96.16,5.52
53.00,0.00,109.69,24.25,-146.06,-0.56,0.31,0.56,96.14,5.54
53.00,1.00,275.62,-7.12,-56.25,-0.88,-0.12,-1.19,96.14,5.54
53.00,2.00,275.62,-13.62,3.56,0.00,1.56,-1.06,96.14,5.54
53.00,0.00,109.69,24.25,-146.06,-0.38,1.50,1.00,96.12,5.56
53.00,1.00,275.62,-7.12,-56.25,-0.56,-0.56,-1.12,96.12,5.56
53.00,2.00,275.69,-13.62,3.56,0.00,1.25,-1.12,96.12,5.56
53.00,0.00,109.69,24.31,-146.06,-0.06,3.56,1.50,96.14,5.58
53.00,1.00,275.62,-7.12,-56.25,-0.31,-0.06,-1.00,96.14,5.58
53.00,2.00,275.69,-13.69,3.62,-0.50,0.81,-1.31,96.14,5.58
53.00,0.00,109.75,24.44,-146.06,-0.38,4.56,2.00,96.14,5.60
53.00,1.00,275.69,-7.12,-56.25,-0.12,-0.62,-0.31,96.14,5.60
53.00,2.00,275.75,-13.69,3.62,-0.25,-0.44,-1.38,96.14,5.60
53.00,0.00,109.75,24.50,-146.00,-0.50,4.25,2.19,96.09,5.62
53.00,1.00,275.69,-7.12,-56.25,0.19,-1.31,-0.44,96.09,5.62
53.00,2.00,275.75,-13.69,3.69,0.50,0.00,-1.81,96.09,5.62
53.00,0.00,109.75,24.50,-145.94,-1.38,1.56,1.62,95.99,5.64
53.00,1.00,275.69,-7.12,-56.25,0.25,-2.00,-0.56,95.99,5.64
53.00,2.00,275.81,-13.69,3.69,1.19,0.56,-1.75,95.99,5.64
53.00,0.00,109.75,24.50,-145.94,-2.00,-1.44,0.44,95.82,5.66
53.00,1.00,275.75,-7.12,-56.19,0.56,-2.75,-0.81,95.82,5.66
53.00,2.00,275.88,-13.69,3.69,1.81,-0.31,-1.81,95.82,5.66
53.00,0.00,109.75,24.44,-145.88,-1.75,-2.19,0.12,95.65,5.68
53.00,1.00,275.81,-7.06,-56.19,0.62,-3.19,-0.50,95.65,5.68
53.00,2.00,275.94,-13.62,3.69,2.25,-0.75,-2.44,95.65,5.68
53.00,0.00,109.75,24.38,-145.81,-1.44,-1.62,0.25,95.51,5.70
53.00,1.00,275.81,-7.06,-56.25,1.25,-3.38,-0.25,95.51,5.70
53.00,2.00,275.94,-13.62,3.69,1.88,-1.06,-2.50,95.51,5.70
53.00,0.00,109.75,24.38,-145.81,-2.12,-1.75,0.44,95.37,5.72
53.00,1.00,275.88,-7.00,-56.25,1.00,-4.06,0.06,95.37,5.72
53.00,2.00,276.00,-13.62,3.69,1.25,-1.25,-2.69,95.37,5.72
