Iteration,IMUNo,OrientationX (deg),OrientationY,OrientationZ,GyroX (20rad/sec),GyroY,GyroZ,Elbow_Pos (rad),Time (sec)
70.00,0.00,266.50,4.94,-95.62,-0.62,1.50,-0.12,-0.02,1.02
70.00,1.00,300.62,-6.62,-55.06,0.25,0.19,0.69,-0.02,1.02
70.00,2.00,358.06,-19.25,17.62,0.00,0.06,0.44,-0.02,1.02
70.00,0.00,266.44,5.00,-95.62,-0.62,1.75,0.31,-0.02,1.04
70.00,1.00,300.62,-6.56,-55.06,-0.50,-0.38,1.25,-0.02,1.04
70.00,2.00,358.06,-19.25,17.62,-0.75,-0.56,0.81,-0.02,1.04
70.00,0.00,266.44,5.00,-95.56,-0.81,1.56,0.38,-0.02,1.06
70.00,1.00,300.56,-6.56,-55.06,-0.69,-0.44,1.50,-0.02,1.06
70.00,2.00,358.00,-19.25,17.62,-0.75,-0.88,1.38,-0.02,1.06
70.00,0.00,266.38,5.00,-95.56,-0.81,1.81,0.50,-0.04,1.06
70.00,1.00,300.56,-6.56,-55.06,-0.31,-0.56,1.38,-0.04,1.06
70.00,2.00,358.00,-19.25,17.62,-0.31,-0.69,1.31,-0.04,1.08
70.00,0.00,266.31,5.00,-95.56,-0.62,2.12,0.25,-0.06,1.08
70.00,1.00,300.56,-6.50,-55.06,-0.56,-0.69,0.81,-0.06,1.08
70.00,2.00,358.00,-19.25,17.62,-0.19,-0.56,1.25,-0.06,1.08
70.00,0.00,266.31,5.00,-95.56,-0.69,2.31,0.38,-0.07,1.10
70.00,1.00,300.50,-6.50,-55.06,-0.56,-0.81,1.19,-0.07,1.10
70.00,2.00,357.94,-19.25,17.62,-0.38,-0.38,0.94,-0.07,1.10
70.00,0.00,266.25,5.00,-95.50,-0.81,2.44,0.19,-0.11,1.12
70.00,1.00,300.50,-6.50,-55.06,-0.69,-0.06,0.88,-0.11,1.12
70.00,2.00,357.94,-19.25,17.62,0.19,-0.19,0.44,-0.11,1.12
70.00,0.00,266.19,5.00,-95.50,-0.38,2.25,0.25,-0.13,1.14
70.00,1.00,300.50,-6.50,-55.06,-0.12,-0.19,0.69,-0.13,1.14
70.00,2.00,357.94,-19.25,17.62,0.25,-0.19,0.88,-0.13,1.14
70.00,0.00,266.19,5.00,-95.50,-0.38,1.56,0.06,-0.15,1.16
70.00,1.00,300.50,-6.44,-55.06,-0.19,-0.50,0.56,-0.15,1.16
70.00,2.00,357.94,-19.25,17.62,0.06,-0.38,0.88,-0.15,1.16
70.00,0.00,266.12,5.00,-95.50,-0.50,1.19,0.00,-0.14,1.18
70.00,1.00,300.50,-6.44,-55.00,0.00,-0.19,0.56,-0.14,1.18
70.00,2.00,357.94,-19.25,17.62,-0.81,-0.06,1.00,-0.14,1.18
70.00,0.00,266.12,5.00,-95.50,-0.44,0.62,-0.06,-0.13,1.20
70.00,1.00,300.50,-6.44,-55.00,-0.25,-0.12,0.25,-0.13,1.20
70.00,2.00,357.88,-19.25,17.69,-0.62,-0.31,0.94,-0.13,1.20
70.00,0.00,266.12,5.00,-95.50,-0.56,0.38,-0.44,-0.15,1.22
70.00,1.00,300.50,-6.44,-55.00,-0.19,-0.38,-0.06,-0.15,1.22
70.00,2.00,357.88,-19.25,17.69,0.06,0.38,-0.31,-0.15,1.22
70.00,0.00,266.12,5.00,-95.50,-0.06,-0.19,-0.25,-0.18,1.24
70.00,1.00,300.50,-6.44,-55.00,-0.38,0.12,-0.88,-0.18,1.24
70.00,2.00,357.88,-19.31,17.69,0.56,1.06,-0.75,-0.18,1.24
70.00,0.00,266.12,5.00,-95.50,-0.06,-0.44,-0.31,-0.20,1.26
70.00,1.00,300.50,-6.50,-55.00,-0.62,-0.25,-0.81,-0.20,1.26
70.00,2.00,357.94,-19.31,17.69,0.50,0.81,-0.75,-0.20,1.26
70.00,0.00,266.19,5.00,-95.50,-0.12,-0.75,-0.19,-0.22,1.28
70.00,1.00,300.50,-6.50,-55.00,0.44,-0.06,-0.50,-0.22,1.28
70.00,2.00,357.94,-19.31,17.69,0.50,0.81,-0.75,-0.22,1.28
70.00,0.00,266.19,4.94,-95.50,-0.38,-1.12,-0.38,-0.24,1.30
70.00,1.00,300.50,-6.50,-55.00,0.19,0.06,-0.81,-0.24,1.30
70.00,2.00,357.94,-19.31,17.75,0.12,0.88,-0.19,-0.24,1.30
70.00,0.00,266.19,4.94,-95.50,-0.25,-1.19,-0.56,-0.25,1.32
70.00,1.00,300.50,-6.50,-55.00,-0.25,-0.06,-0.88,-0.25,1.32
70.00,2.00,357.94,-19.31,17.75,-0.06,0.62,0.25,-0.25,1.32
70.00,0.00,266.25,4.94,-95.50,-0.38,-0.88,-1.00,-0.25,1.34
70.00,1.00,300.56,-6.50,-55.00,-0.12,-0.12,-1.12,-0.25,1.34
70.00,2.00,357.94,-19.31,17.75,-0.25,0.88,0.06,-0.25,1.34
70.00,0.00,266.25,4.94,-95.50,-0.06,-0.56,-0.94,-0.25,1.36
70.00,1.00,300.56,-6.50,-55.00,-0.06,-0.12,-1.12,-0.25,1.36
70.00,2.00,357.94,-19.38,17.75,-0.12,0.75,0.00,-0.25,1.36
70.00,0.00,266.31,4.94,-95.50,0.00,-0.69,-0.81,-0.27,1.38
70.00,1.00,300.56,-6.56,-55.00,0.06,-0.19,-0.50,-0.27,1.38
70.00,2.00,357.94,-19.38,17.75,0.44,0.62,-0.19,-0.27,1.38
70.00,0.00,266.31,4.88,-95.50,-0.25,-0.69,-0.38,-0.27,1.40
70.00,1.00,300.56,-6.56,-55.00,-0.94,-0.31,-0.31,-0.27,1.40
70.00,2.00,357.94,-19.38,17.75,-0.19,0.25,-0.06,-0.27,1.40
70.00,0.00,266.31,4.88,-95.50,-0.75,-0.12,0.06,-0.29,1.42
70.00,1.00,300.56,-6.56,-54.94,-2.69,-1.44,-0.44,-0.29,1.42
70.00,2.00,357.94,-19.38,17.75,-0.31,-0.19,0.12,-0.29,1.42
70.00,0.00,266.31,4.94,-95.50,-0.88,0.38,0.12,-0.28,1.44
70.00,1.00,300.62,-6.50,-54.81,-5.50,-2.56,0.75,-0.28,1.44
70.00,2.00,357.94,-19.38,17.75,-1.06,-0.81,0.62,-0.28,1.44
70.00,0.00,266.31,4.94,-95.50,-0.81,0.56,0.31,-0.26,1.46
70.00,1.00,300.62,-6.44,-54.75,-3.62,-1.19,2.06,-0.26,1.46
70.00,2.00,357.94,-19.38,17.75,-1.38,-1.12,0.94,-0.26,1.46
70.00,0.00,266.31,4.94,-95.50,-1.31,1.88,0.50,-0.24,1.48
70.00,1.00,300.56,-6.44,-54.69,-1.56,0.00,2.25,-0.24,1.48
70.00,2.00,357.88,-19.31,17.81,-1.75,-1.62,1.06,-0.24,1.48
70.00,0.00,266.25,4.94,-95.44,-1.88,2.19,0.81,-0.27,1.50
70.00,1.00,300.56,-6.38,-54.62,-3.81,-1.69,1.44,-0.27,1.50
70.00,2.00,357.88,-19.31,17.81,-1.12,-1.50,1.50,-0.27,1.50
70.00,0.00,266.19,4.94,-95.44,-1.50,2.88,1.19,-0.29,1.52
70.00,1.00,300.50,-6.38,-54.56,-3.44,-1.69,2.19,-0.29,1.52
70.00,2.00,357.81,-19.31,17.81,-1.12,-1.69,1.75,-0.29,1.52
70.00,0.00,266.06,5.00,-95.38,-1.19,2.88,2.19,-0.28,1.54
70.00,1.00,300.44,-6.31,-54.50,-1.19,0.12,3.12,-0.28,1.54
70.00,2.00,357.81,-19.25,17.81,-1.44,-1.94,1.50,-0.28,1.54
70.00,0.00,265.94,5.06,-95.38,-0.88,2.88,2.50,-0.21,1.56
70.00,1.00,300.38,-6.25,-54.50,-0.81,0.12,2.94,-0.21,1.56
70.00,2.00,357.75,-19.25,17.88,-2.50,-1.31,2.12,-0.21,1.56
70.00,0.00,265.88,5.12,-95.38,-0.25,2.31,3.00,-0.15,1.58
70.00,1.00,300.38,-6.25,-54.44,-1.44,-0.56,1.88,-0.15,1.58
70.00,2.00,357.69,-19.25,17.88,-1.94,-1.25,2.12,-0.15,1.58
70.00,0.00,265.75,5.19,-95.38,1.00,1.44,3.31,-0.08,1.60
70.00,1.00,300.38,-6.19,-54.44,-1.12,-0.75,0.50,-0.08,1.60
70.00,2.00,357.62,-19.19,17.88,-0.69,-1.19,1.38,-0.08,1.60
70.00,0.00,265.69,5.25,-95.44,2.44,0.94,3.38,0.01,1.62
70.00,1.00,300.38,-6.19,-54.44,-0.44,0.06,0.19,0.01,1.62
70.00,2.00,357.62,-19.19,17.94,0.06,-1.19,1.00,0.01,1.62
70.00,0.00,265.62,5.31,-95.50,4.00,0.44,3.44,0.15,1.64
70.00,1.00,300.38,-6.25,-54.44,-0.06,1.06,-0.12,0.15,1.64
70.00,2.00,357.62,-19.19,17.94,0.19,-0.69,0.25,0.15,1.64
70.00,0.00,265.50,5.38,-95.62,5.12,0.44,3.38,0.37,1.66
70.00,1.00,300.38,-6.25,-54.38,-0.06,0.38,-0.12,0.37,1.66
70.00,2.00,357.62,-19.19,17.94,-0.38,-1.06,-0.12,0.37,1.66
70.00,0.00,265.44,5.44,-95.75,5.75,1.06,3.31,0.59,1.68
70.00,1.00,300.38,-6.25,-54.38,-0.31,-0.81,-0.38,0.59,1.68
70.00,2.00,357.62,-19.12,17.94,-0.06,-1.25,-0.88,0.59,1.68
70.00,0.00,265.31,5.50,-95.88,6.56,1.81,3.12,0.83,1.70
70.00,1.00,300.38,-6.25,-54.38,-0.56,-0.94,-0.38,0.83,1.70
70.00,2.00,357.62,-19.12,17.94,0.25,-1.69,-1.25,0.83,1.70
70.00,0.00,265.19,5.56,-96.06,7.81,2.94,2.75,1.12,1.72
70.00,1.00,300.38,-6.19,-54.38,-0.38,-1.00,-0.38,1.12,1.72
70.00,2.00,357.69,-19.06,17.94,0.19,-2.12,-1.12,1.12,1.72
70.00,0.00,265.06,5.62,-96.25,8.75,3.50,2.56,1.47,1.74
70.00,1.00,300.38,-6.19,-54.38,-0.31,-1.06,-0.06,1.47,1.74
70.00,2.00,357.69,-19.00,17.94,-0.25,-1.94,-0.75,1.47,1.74
70.00,0.00,264.94,5.62,-96.44,9.56,4.06,1.94,1.85,1.76
70.00,1.00,300.38,-6.19,-54.38,-0.06,-0.88,0.31,1.85,1.76
70.00,2.00,357.69,-19.00,17.94,-0.38,-1.50,0.31,1.85,1.76
70.00,0.00,264.75,5.69,-96.62,10.62,3.81,2.19,2.27,1.78
70.00,1.00,300.38,-6.19,-54.38,0.06,-0.25,0.44,2.27,1.78
70.00,2.00,357.62,-19.00,17.94,-0.19,-0.12,1.31,2.27,1.78
70.00,0.00,264.62,5.75,-96.88,11.75,3.06,2.81,2.72,1.80
70.00,1.00,300.38,-6.19,-54.38,0.50,0.31,0.62,2.72,1.80
70.00,2.00,357.62,-19.00,17.94,0.00,-0.75,2.12,2.72,1.80
70.00,0.00,264.44,5.81,-97.12,13.31,1.94,3.44,3.24,1.82
70.00,1.00,300.38,-6.12,-54.38,0.75,0.56,1.06,3.24,1.82
70.00,2.00,357.56,-19.00,17.94,-0.25,-1.19,2.81,3.24,1.82
70.00,0.00,264.31,5.94,-97.44,13.25,3.12,2.94,3.75,1.84
70.00,1.00,300.31,-6.12,-54.38,0.94,1.06,1.62,3.75,1.84
70.00,2.00,357.50,-19.00,17.88,-0.06,-1.88,3.00,3.75,1.84
70.00,0.00,264.06,6.00,-97.69,12.50,5.81,3.12,4.23,1.86
70.00,1.00,300.25,-6.12,-54.38,0.56,1.31,1.75,4.23,1.86
70.00,2.00,357.44,-19.00,17.88,0.12,-1.94,3.38,4.23,1.86
70.00,0.00,263.75,6.12,-97.94,12.69,7.06,4.31,4.73,1.88
70.00,1.00,300.25,-6.12,-54.44,0.56,0.88,1.75,4.73,1.88
70.00,2.00,357.31,-18.94,17.88,-0.25,-1.56,4.06,4.73,1.88
70.00,0.00,263.44,6.31,-98.25,15.88,5.81,7.50,5.35,1.90
70.00,1.00,300.19,-6.06,-54.44,0.62,1.25,1.88,5.35,1.90
70.00,2.00,357.25,-18.94,17.81,-0.38,-2.12,4.69,5.35,1.90
70.00,0.00,263.12,6.50,-98.56,17.69,4.88,9.56,6.04,1.92
70.00,1.00,300.12,-6.06,-54.44,0.38,1.31,2.19,6.04,1.92
70.00,2.00,357.12,-18.94,17.81,-0.19,-2.88,5.12,6.04,1.92
70.00,0.00,262.81,6.69,-98.94,17.38,3.94,8.38,6.71,1.94
70.00,1.00,300.06,-6.06,-54.44,0.31,1.44,2.50,6.71,1.94
70.00,2.00,357.00,-18.94,17.75,-0.06,-3.50,5.50,6.71,1.94
70.00,0.00,262.50,6.81,-99.25,18.19,2.31,9.00,7.40,1.96
70.00,1.00,300.00,-6.06,-54.44,1.19,2.00,2.06,7.40,1.96
70.00,2.00,356.94,-18.88,17.69,0.31,-3.19,5.25,7.40,1.96
70.00,0.00,262.25,7.00,-99.62,18.25,1.44,9.06,8.08,1.98
70.00,1.00,299.94,-6.00,-54.44,0.50,1.19,1.88,8.08,1.98
70.00,2.00,356.81,-18.88,17.69,0.56,-2.56,5.38,8.08,1.98
70.00,0.00,262.00,7.19,-99.94,17.75,1.62,8.12,8.71,2.00
70.00,1.00,299.88,-6.00,-54.44,0.56,1.56,2.19,8.71,2.00
70.00,2.00,356.69,-18.88,17.62,1.19,-1.94,4.75,8.71,2.00
70.00,0.00,261.75,7.38,-100.31,19.50,1.88,10.12,9.43,2.02
70.00,1.00,299.81,-6.00,-54.44,0.50,2.12,2.00,9.43,2.02
70.00,2.00,356.62,-18.81,17.56,0.88,-3.12,5.00,9.43,2.02
70.00,0.00,261.38,7.62,-100.75,20.00,1.88,11.69,10.19,2.04
70.00,1.00,299.75,-6.00,-54.50,0.44,2.62,1.69,10.19,2.04
70.00,2.00,356.50,-18.81,17.50,0.19,-4.06,6.38,10.19,2.04
70.00,0.00,261.06,7.88,-101.12,19.88,3.06,11.69,10.94,2.06
70.00,1.00,299.75,-6.00,-54.50,0.50,2.44,1.75,10.94,2.06
70.00,2.00,356.31,-18.75,17.50,0.38,-5.19,5.88,10.94,2.06
70.00,0.00,260.62,8.12,-101.56,21.38,4.19,13.12,11.71,2.08
70.00,1.00,299.69,-6.00,-54.50,0.38,2.88,1.50,11.71,2.08
70.00,2.00,356.25,-18.69,17.44,1.50,-4.75,5.50,11.71,2.08
70.00,0.00,260.12,8.38,-101.94,22.12,4.44,14.25,12.49,2.10
70.00,1.00,299.62,-6.00,-54.50,-0.31,2.44,1.62,12.49,2.10
70.00,2.00,356.12,-18.62,17.31,1.81,-4.38,5.56,12.49,2.10
70.00,0.00,259.69,8.69,-102.38,21.94,4.56,14.56,13.28,2.12
70.00,1.00,299.56,-6.00,-54.50,0.00,2.75,2.00,13.28,2.12
70.00,2.00,356.00,-18.56,17.25,1.31,-4.62,5.88,13.28,2.12
70.00,0.00,259.19,9.00,-102.81,21.06,5.44,14.50,14.04,2.14
70.00,1.00,299.50,-6.00,-54.50,0.31,2.25,2.12,14.04,2.14
70.00,2.00,355.88,-18.56,17.19,1.44,-5.19,6.56,14.04,2.14
70.00,0.00,258.69,9.31,-103.19,21.94,5.00,14.38,14.80,2.16
70.00,1.00,299.44,-6.00,-54.50,0.50,2.06,2.19,14.80,2.16
70.00,2.00,355.69,-18.50,17.12,2.00,-5.38,6.81,14.80,2.16
70.00,0.00,258.25,9.56,-103.62,22.88,3.50,15.06,15.62,2.18
70.00,1.00,299.38,-6.00,-54.50,0.38,2.44,2.06,15.62,2.18
70.00,2.00,355.56,-18.38,17.00,1.69,-6.69,5.56,15.62,2.18
70.00,0.00,257.75,9.88,-104.12,24.94,3.19,15.81,16.48,2.20
70.00,1.00,299.31,-6.00,-54.50,-0.12,2.00,2.06,16.48,2.20
70.00,2.00,355.50,-18.31,16.94,2.56,-7.00,5.00,16.48,2.20
70.00,0.00,257.50,10.06,-104.38,26.38,3.75,16.12,17.34,2.22
70.00,1.00,299.25,-6.00,-54.50,0.00,1.81,1.44,17.34,2.22
70.00,2.00,355.38,-18.19,16.88,4.00,-5.69,5.44,17.34,2.22
70.00,0.00,256.69,10.50,-105.19,26.38,4.31,15.75,18.20,2.24
70.00,1.00,299.19,-6.00,-54.56,0.88,2.31,1.31,18.20,2.24
70.00,2.00,355.25,-18.12,16.75,3.88,-4.81,5.88,18.20,2.24
70.00,0.00,256.19,10.81,-105.69,25.88,3.62,15.12,19.13,2.26
70.00,1.00,299.12,-6.00,-54.56,1.00,2.12,1.88,19.13,2.26
70.00,2.00,355.12,-18.06,16.62,1.69,-4.81,6.06,19.13,2.26
70.00,0.00,255.69,11.12,-106.19,27.06,1.88,16.44,20.17,2.28
70.00,1.00,299.06,-6.00,-54.56,1.06,2.31,2.00,20.17,2.28
70.00,2.00,355.00,-18.00,16.56,0.00,-5.56,6.31,20.17,2.28
70.00,0.00,255.19,11.44,-106.75,28.94,1.31,17.69,21.24,2.30
70.00,1.00,299.00,-5.94,-54.62,1.06,2.06,2.12,21.24,2.30
70.00,2.00,354.88,-17.94,16.50,1.25,-5.38,5.94,21.24,2.30
70.00,0.00,254.62,11.75,-107.38,30.81,1.38,17.62,22.30,2.32
70.00,1.00,299.00,-5.94,-54.62,1.75,2.75,1.44,22.30,2.32
70.00,2.00,354.75,-17.88,16.44,3.06,-4.25,6.25,22.30,2.32
70.00,0.00,254.38,11.94,-107.69,30.69,2.44,16.50,23.36,2.34
70.00,1.00,298.94,-6.00,-54.69,1.75,3.31,0.88,23.36,2.34
70.00,2.00,354.62,-17.88,16.31,3.19,-3.75,6.69,23.36,2.34
70.00,0.00,253.81,12.25,-108.31,31.62,2.38,18.06,24.49,2.36
70.00,1.00,298.88,-6.00,-54.69,0.88,2.69,1.50,24.49,2.36
70.00,2.00,354.44,-17.81,16.25,2.38,-4.81,7.38,24.49,2.36
70.00,0.00,253.19,12.62,-108.94,31.44,2.88,19.06,25.63,2.38
70.00,1.00,298.81,-6.00,-54.75,0.94,3.00,1.75,25.63,2.38
70.00,2.00,354.31,-17.75,16.12,1.69,-6.06,7.94,25.63,2.38
70.00,0.00,252.56,13.00,-109.56,32.00,3.12,19.50,26.75,2.40
70.00,1.00,298.75,-6.00,-54.75,1.81,4.25,1.31,26.75,2.40
70.00,2.00,354.12,-17.69,16.06,2.94,-5.38,9.00,26.75,2.40
70.00,0.00,251.88,13.38,-110.19,32.75,2.25,19.25,27.86,2.42
70.00,1.00,298.69,-6.06,-54.81,2.25,4.56,1.19,27.86,2.42
70.00,2.00,353.94,-17.62,15.88,3.75,-5.25,9.44,27.86,2.42
70.00,0.00,251.25,13.69,-110.88,32.88,0.81,19.19,29.01,2.44
70.00,1.00,298.62,-6.06,-54.88,2.25,5.19,1.88,29.01,2.44
70.00,2.00,353.75,-17.62,15.75,3.00,-4.81,9.50,29.01,2.44
70.00,0.00,250.62,14.06,-111.56,32.44,-0.19,18.75,30.19,2.46
70.00,1.00,298.50,-6.12,-54.94,1.25,4.50,2.50,30.19,2.46
70.00,2.00,353.56,-17.56,15.69,1.94,-5.12,9.81,30.19,2.46
70.00,0.00,250.00,14.38,-112.19,33.75,1.31,19.38,31.38,2.48
70.00,1.00,298.44,-6.12,-54.94,1.62,4.50,2.19,31.38,2.48
70.00,2.00,353.38,-17.50,15.56,2.56,-5.38,10.62,31.38,2.48
70.00,0.00,249.31,14.75,-112.88,33.38,3.62,18.62,32.55,2.50
70.00,1.00,298.38,-6.12,-55.00,2.44,3.94,1.81,32.55,2.50
70.00,2.00,353.12,-17.44,15.44,2.94,-5.50,10.62,32.55,2.50
70.00,0.00,248.56,15.12,-113.56,33.44,4.25,18.31,33.70,2.52
70.00,1.00,298.25,-6.12,-55.06,3.06,4.06,2.31,33.70,2.52
70.00,2.00,352.94,-17.44,15.31,3.69,-5.88,10.38,33.70,2.52
70.00,0.00,247.81,15.50,-114.25,34.62,5.81,20.06,34.94,2.54
70.00,1.00,298.19,-6.12,-55.12,3.75,2.50,3.75,34.94,2.54
70.00,2.00,352.75,-17.31,15.19,2.38,-8.12,9.31,34.94,2.54
70.00,0.00,246.94,15.88,-114.94,35.81,4.88,20.75,36.22,2.56
70.00,1.00,298.06,-6.06,-55.19,1.75,1.88,3.94,36.22,2.56
70.00,2.00,352.56,-17.19,15.12,2.56,-10.12,7.81,36.22,2.56
70.00,0.00,246.06,16.31,-115.62,36.69,4.50,21.31,37.47,2.58
70.00,1.00,298.00,-6.06,-55.25,2.12,3.62,2.50,37.47,2.58
70.00,2.00,352.44,-17.06,15.00,4.12,-8.88,6.69,37.47,2.58
70.00,0.00,245.19,16.69,-116.38,37.06,3.44,18.62,38.66,2.60
70.00,1.00,297.94,-6.06,-55.31,3.69,4.38,1.88,38.66,2.60
70.00,2.00,352.31,-16.94,14.88,6.00,-6.56,6.56,38.66,2.60
70.00,0.00,244.44,17.00,-117.12,37.25,2.62,17.88,39.91,2.62
70.00,1.00,297.81,-6.12,-55.38,3.44,4.50,1.50,39.91,2.62
70.00,2.00,352.19,-16.88,14.69,4.81,-5.81,6.75,39.91,2.62
70.00,0.00,243.62,17.31,-117.94,39.62,2.19,19.62,41.31,2.64
70.00,1.00,297.75,-6.12,-55.44,0.94,3.00,1.94,41.31,2.64
70.00,2.00,352.00,-16.75,14.56,3.31,-6.50,8.38,41.31,2.64
70.00,0.00,242.75,17.69,-118.75,39.75,1.56,19.81,42.72,2.66
70.00,1.00,297.69,-6.12,-55.50,3.81,5.44,1.62,42.72,2.66
70.00,2.00,351.81,-16.69,14.44,3.12,-6.50,8.94,42.72,2.66
70.00,0.00,241.94,18.00,-119.56,39.75,1.38,18.62,44.06,2.68
70.00,1.00,297.62,-6.19,-55.56,2.50,5.00,1.88,44.06,2.68
70.00,2.00,351.62,-16.62,14.31,4.81,-6.62,9.31,44.06,2.68
70.00,0.00,241.06,18.31,-120.31,38.81,3.00,17.81,45.39,2.70
70.00,1.00,297.56,-6.19,-55.62,2.88,5.25,1.81,45.39,2.70
70.00,2.00,351.44,-16.56,14.19,4.31,-6.19,9.81,45.39,2.70
70.00,0.00,240.19,18.62,-121.12,36.94,4.31,17.56,46.68,2.72
70.00,1.00,297.44,-6.19,-55.69,1.81,4.62,1.75,46.68,2.72
70.00,2.00,351.25,-16.50,14.00,3.38,-6.19,10.62,46.68,2.72
70.00,0.00,239.19,19.00,-121.81,36.38,5.62,17.94,47.96,2.74
70.00,1.00,297.38,-6.25,-55.75,2.00,5.75,1.50,47.96,2.74
70.00,2.00,351.06,-16.38,13.94,2.88,-6.75,10.12,47.96,2.74
70.00,0.00,238.19,19.38,-122.56,35.56,7.50,16.75,49.21,2.76
70.00,1.00,297.31,-6.31,-55.75,1.38,4.56,1.44,49.21,2.76
70.00,2.00,350.88,-16.31,13.81,3.12,-5.62,9.88,49.21,2.76
70.00,0.00,237.12,19.69,-123.25,36.06,7.69,17.38,50.50,2.78
70.00,1.00,297.19,-6.31,-55.81,1.25,6.12,0.94,50.50,2.78
70.00,2.00,350.62,-16.25,13.69,2.62,-5.12,10.31,50.50,2.78
70.00,0.00,236.12,20.06,-123.94,36.00,7.69,18.19,51.79,2.80
70.00,1.00,297.12,-6.38,-55.81,1.00,7.31,1.00,51.79,2.80
70.00,2.00,350.44,-16.19,13.56,2.38,-5.19,10.19,51.79,2.80
70.00,0.00,235.06,20.44,-124.62,35.06,8.25,17.38,53.09,2.82
70.00,1.00,297.00,-6.44,-55.88,1.88,8.81,1.25,53.09,2.82
70.00,2.00,350.25,-16.19,13.44,1.19,-4.88,10.94,53.09,2.82
70.00,0.00,234.06,20.69,-125.31,34.69,6.69,16.81,54.41,2.84
70.00,1.00,296.88,-6.50,-55.94,1.50,8.06,1.25,54.41,2.84
70.00,2.00,350.00,-16.12,13.38,0.38,-4.81,11.69,54.41,2.84
70.00,0.00,233.19,21.00,-126.00,35.81,4.31,17.25,55.76,2.86
70.00,1.00,296.81,-6.62,-56.00,2.50,9.19,1.31,55.76,2.86
70.00,2.00,349.75,-16.06,13.31,0.69,-5.12,11.31,55.76,2.86
70.00,0.00,232.31,21.25,-126.69,34.50,2.69,16.62,57.02,2.88
70.00,1.00,296.69,-6.69,-56.06,1.88,8.44,0.81,57.02,2.88
70.00,2.00,349.56,-16.06,13.25,1.88,-4.88,10.75,57.02,2.88
70.00,0.00,231.44,21.50,-127.38,32.62,2.19,14.62,58.15,2.90
70.00,1.00,296.62,-6.75,-56.12,2.12,8.62,0.44,58.15,2.90
70.00,2.00,349.38,-16.00,13.12,3.06,-4.25,9.81,58.15,2.90
70.00,0.00,230.56,21.69,-128.06,32.56,1.69,14.25,59.28,2.92
70.00,1.00,296.56,-6.81,-56.12,2.69,7.69,0.44,59.28,2.92
70.00,2.00,349.12,-15.94,13.00,3.38,-3.38,10.88,59.28,2.92
70.00,0.00,229.69,21.94,-128.69,31.38,3.38,14.50,60.37,2.94
70.00,1.00,296.44,-6.94,-56.25,2.69,7.50,0.88,60.37,2.94
70.00,2.00,348.94,-15.94,12.88,3.06,-4.19,11.25,60.37,2.94
70.00,0.00,228.81,22.19,-129.31,30.12,3.50,13.31,61.40,2.96
70.00,1.00,296.31,-7.00,-56.31,3.44,8.25,0.69,61.40,2.96
70.00,2.00,348.75,-15.88,12.75,3.12,-5.19,11.06,61.40,2.96
70.00,0.00,227.94,22.44,-129.88,29.50,4.12,13.81,62.40,2.98
70.00,1.00,296.31,-7.06,-56.38,3.00,8.38,1.19,62.40,2.98
70.00,2.00,348.50,-15.81,12.62,3.56,-4.81,10.62,62.40,2.98
70.00,0.00,227.06,22.62,-130.44,29.00,4.31,13.31,63.36,3.00
70.00,1.00,296.12,-7.12,-56.50,2.50,6.81,1.06,63.36,3.00
70.00,2.00,348.31,-15.81,12.50,4.19,-3.69,10.25,63.36,3.00
70.00,0.00,226.25,22.88,-130.94,28.00,3.56,12.81,64.29,3.02
70.00,1.00,296.06,-7.19,-56.50,3.38,9.25,1.12,64.29,3.02
70.00,2.00,348.12,-15.75,12.38,3.75,-2.81,10.88,64.29,3.02
70.00,0.00,225.44,23.06,-131.44,26.50,3.94,12.88,65.21,3.04
70.00,1.00,295.94,-7.31,-56.62,2.31,8.44,1.50,65.21,3.04
70.00,2.00,347.94,-15.75,12.25,2.62,-2.88,10.94,65.21,3.04
70.00,0.00,224.62,23.31,-131.94,25.69,2.62,12.00,66.11,3.06
70.00,1.00,295.81,-7.31,-56.69,1.31,7.00,1.50,66.11,3.06
70.00,2.00,347.69,-15.75,12.12,2.19,-2.88,10.69,66.11,3.06
70.00,0.00,223.81,23.50,-132.44,25.69,3.38,12.19,66.99,3.08
70.00,1.00,295.75,-7.38,-56.69,1.81,7.25,1.81,66.99,3.08
70.00,2.00,347.50,-15.75,12.06,2.88,-3.12,9.62,66.99,3.08
70.00,0.00,223.06,23.69,-132.88,24.81,4.44,12.31,67.84,3.10
70.00,1.00,295.62,-7.44,-56.75,1.50,7.44,2.06,67.84,3.10
70.00,2.00,347.31,-15.69,11.94,2.50,-2.88,9.38,67.84,3.10
70.00,0.00,222.31,23.88,-133.25,23.00,4.38,11.88,68.68,3.12
70.00,1.00,295.56,-7.44,-56.81,2.19,8.44,1.44,68.68,3.12
70.00,2.00,347.12,-15.69,11.88,1.38,-3.06,9.25,68.68,3.12
70.00,0.00,221.56,24.06,-133.62,20.56,4.56,10.75,69.37,3.14
70.00,1.00,295.44,-7.50,-56.81,0.50,4.94,0.81,69.37,3.14
70.00,2.00,347.00,-15.62,11.81,2.50,-3.12,8.75,69.37,3.14
70.00,0.00,220.94,24.25,-134.00,18.75,4.44,9.56,69.96,3.16
70.00,1.00,295.31,-7.62,-56.88,2.38,7.00,0.62,69.96,3.16
70.00,2.00,346.81,-15.62,11.69,3.38,-2.88,8.19,69.96,3.16
70.00,0.00,220.31,24.38,-134.31,18.38,3.44,8.94,70.51,3.18
70.00,1.00,295.31,-7.62,-56.94,2.31,5.75,0.81,70.51,3.18
70.00,2.00,346.69,-15.62,11.62,4.12,-2.44,6.94,70.51,3.18
70.00,0.00,219.62,24.56,-134.69,17.44,3.56,9.50,71.00,3.20
70.00,1.00,295.25,-7.69,-57.00,1.62,5.50,1.06,71.00,3.20
70.00,2.00,346.56,-15.56,11.50,4.81,-3.31,7.94,71.00,3.20
70.00,0.00,219.00,24.75,-135.00,15.50,4.38,9.56,71.20,3.22
70.00,1.00,295.12,-7.69,-57.00,1.94,6.25,0.62,71.20,3.22
70.00,2.00,346.38,-15.50,11.25,10.06,-7.31,8.06,71.20,3.22
70.00,0.00,218.44,24.88,-135.25,12.00,4.19,6.56,71.19,3.24
70.00,1.00,295.06,-7.75,-57.06,1.62,5.12,0.06,71.19,3.24
70.00,2.00,346.25,-15.38,11.00,12.25,-7.06,8.69,71.19,3.24
70.00,0.00,217.94,25.00,-135.44,11.19,3.56,5.56,71.19,3.26
70.00,1.00,295.00,-7.88,-57.12,1.94,5.50,0.25,71.19,3.26
70.00,2.00,346.12,-15.25,10.75,11.31,-6.56,7.19,71.19,3.26
70.00,0.00,217.44,25.19,-135.69,12.62,3.06,7.50,71.31,3.28
70.00,1.00,294.94,-7.88,-57.19,1.44,5.12,0.19,71.31,3.28
70.00,2.00,346.00,-15.19,10.50,9.56,-7.06,7.81,71.31,3.28
70.00,0.00,216.81,25.38,-136.00,14.12,4.00,10.44,71.50,3.30
70.00,1.00,294.94,-7.94,-57.19,1.94,4.31,-0.12,71.50,3.30
70.00,2.00,345.88,-15.06,10.31,9.00,-6.88,7.88,71.50,3.30
70.00,0.00,216.06,25.56,-136.31,12.88,6.38,10.06,71.63,3.32
70.00,1.00,294.88,-8.00,-57.25,2.69,5.38,-0.44,71.63,3.32
70.00,2.00,345.75,-14.94,10.06,9.56,-5.62,6.56,71.63,3.32
70.00,0.00,215.44,25.75,-136.50,11.50,6.69,8.25,71.74,3.34
70.00,1.00,294.81,-8.00,-57.31,0.88,2.88,0.19,71.74,3.34
70.00,2.00,345.62,-14.88,9.88,8.62,-4.69,6.75,71.74,3.34
70.00,0.00,214.75,25.94,-136.75,11.25,6.31,7.81,71.86,3.36
70.00,1.00,294.81,-8.06,-57.31,1.56,4.75,0.31,71.86,3.36
70.00,2.00,345.50,-14.81,9.69,8.12,-4.81,7.12,71.86,3.36
70.00,0.00,214.12,26.12,-137.00,11.25,5.31,8.38,71.99,3.38
70.00,1.00,294.75,-8.12,-57.38,1.56,4.31,0.31,71.99,3.38
70.00,2.00,345.38,-14.75,9.50,8.00,-4.62,7.06,71.99,3.38
70.00,0.00,213.50,26.31,-137.25,12.06,4.50,9.12,72.19,3.40
70.00,1.00,294.69,-8.12,-57.44,1.94,4.88,0.31,72.19,3.40
70.00,2.00,345.25,-14.69,9.31,6.88,-4.75,7.12,72.19,3.40
70.00,0.00,212.88,26.50,-137.50,12.44,4.75,9.12,72.36,3.42
70.00,1.00,294.62,-8.19,-57.50,2.50,5.25,-0.31,72.36,3.42
70.00,2.00,345.12,-14.62,9.12,8.06,-3.62,6.94,72.36,3.42
70.00,0.00,212.19,26.69,-137.81,11.94,5.25,9.06,72.50,3.44
70.00,1.00,294.62,-8.25,-57.56,2.25,4.38,0.12,72.50,3.44
70.00,2.00,345.00,-14.56,8.94,8.06,-2.50,6.81,72.50,3.44
70.00,0.00,211.50,26.88,-138.06,11.62,6.06,9.25,72.65,3.46
70.00,1.00,294.56,-8.31,-57.56,1.88,3.00,0.81,72.65,3.46
70.00,2.00,344.88,-14.50,8.75,7.88,-2.44,7.19,72.65,3.46
70.00,0.00,210.88,27.12,-138.25,10.44,6.56,8.94,72.81,3.48
70.00,1.00,294.50,-8.31,-57.62,2.94,4.81,1.31,72.81,3.48
70.00,2.00,344.75,-14.50,8.56,6.25,-2.75,8.00,72.81,3.48
70.00,0.00,210.25,27.31,-138.50,9.19,5.31,8.69,73.00,3.50
70.00,1.00,294.44,-8.31,-57.69,1.25,3.44,2.19,73.00,3.50
70.00,2.00,344.56,-14.44,8.38,4.12,-3.31,9.25,73.00,3.50
70.00,0.00,209.75,27.44,-138.69,8.19,4.12,7.81,73.15,3.52
70.00,1.00,294.38,-8.31,-57.75,1.19,3.56,2.38,73.15,3.52
70.00,2.00,344.38,-14.38,8.31,4.38,-4.38,9.12,73.15,3.52
70.00,0.00,209.31,27.56,-138.88,8.44,2.44,7.25,73.25,3.54
70.00,1.00,294.25,-8.31,-57.75,1.88,4.19,1.88,73.25,3.54
70.00,2.00,344.25,-14.31,8.12,5.81,-3.19,7.81,73.25,3.54
70.00,0.00,208.88,27.69,-139.12,9.19,1.06,8.38,73.43,3.56
70.00,1.00,294.19,-8.31,-57.81,1.31,4.44,2.38,73.43,3.56
70.00,2.00,344.12,-14.31,8.00,4.50,-2.06,7.38,73.43,3.56
70.00,0.00,208.44,27.81,-139.31,7.56,2.50,7.94,73.63,3.58
70.00,1.00,294.06,-8.38,-57.88,0.88,5.12,2.31,73.63,3.58
70.00,2.00,344.00,-14.31,7.94,2.38,-2.12,8.06,73.63,3.58
70.00,0.00,208.12,27.88,-139.44,6.06,0.69,6.00,73.79,3.60
70.00,1.00,294.00,-8.38,-57.88,0.19,4.44,2.38,73.79,3.60
70.00,2.00,343.81,-14.25,7.81,1.88,-2.38,8.06,73.79,3.60
70.00,0.00,207.88,28.00,-139.62,7.00,-0.44,6.69,73.99,3.62
70.00,1.00,293.88,-8.38,-57.88,0.31,4.56,2.25,73.99,3.62
70.00,2.00,343.69,-14.25,7.75,1.88,-2.31,7.94,73.99,3.62
70.00,0.00,207.50,28.06,-139.88,7.69,-0.62,7.81,74.23,3.64
70.00,1.00,293.81,-8.38,-57.88,-0.38,4.50,2.12,74.23,3.64
70.00,2.00,343.50,-14.19,7.69,1.50,-2.06,7.69,74.23,3.64
70.00,0.00,207.19,28.12,-140.06,8.25,-1.06,8.69,74.48,3.66
70.00,1.00,293.69,-8.38,-57.94,0.06,5.00,2.00,74.48,3.66
70.00,2.00,343.38,-14.19,7.62,1.62,-1.31,7.19,74.48,3.66
70.00,0.00,206.81,28.25,-140.25,6.38,0.75,7.50,74.65,3.68
70.00,1.00,293.62,-8.44,-57.94,0.19,5.25,2.00,74.65,3.68
70.00,2.00,343.25,-14.19,7.56,2.00,-0.31,7.12,74.65,3.68
70.00,0.00,206.62,28.31,-140.38,4.06,0.12,5.50,74.76,3.70
70.00,1.00,293.50,-8.44,-57.94,-0.56,5.12,1.75,74.76,3.70
70.00,2.00,343.12,-14.19,7.50,1.12,-0.06,6.88,74.76,3.70
70.00,0.00,206.50,28.31,-140.50,2.25,-1.12,3.69,74.86,3.72
70.00,1.00,293.44,-8.44,-57.94,-0.88,5.75,1.75,74.86,3.72
70.00,2.00,342.94,-14.19,7.44,-0.38,-1.12,8.00,74.86,3.72
70.00,0.00,206.56,28.31,-140.56,2.94,-4.19,3.06,74.98,3.74
70.00,1.00,293.38,-8.50,-57.94,-1.06,4.75,1.50,74.98,3.74
70.00,2.00,342.81,-14.19,7.44,0.06,-2.50,8.00,74.98,3.74
70.00,0.00,206.56,28.25,-140.69,4.88,-5.50,5.12,75.06,3.76
70.00,1.00,293.25,-8.50,-57.94,-1.12,3.94,1.06,75.06,3.76
70.00,2.00,342.69,-14.19,7.38,2.69,-1.25,5.31,75.06,3.76
70.00,0.00,206.44,28.25,-140.94,5.62,-4.38,7.44,75.14,3.78
70.00,1.00,293.19,-8.56,-57.94,-0.81,4.94,0.50,75.14,3.78
70.00,2.00,342.62,-14.12,7.31,3.56,-0.31,5.00,75.14,3.78
70.00,0.00,206.25,28.31,-141.06,4.50,-1.94,6.75,75.17,3.80
70.00,1.00,293.12,-8.62,-57.94,-0.38,5.69,-0.19,75.17,3.80
70.00,2.00,342.50,-14.19,7.19,3.62,0.81,5.31,75.17,3.80
70.00,0.00,206.06,28.38,-141.19,3.56,-0.69,4.69,75.19,3.82
70.00,1.00,293.12,-8.69,-57.94,-0.31,5.31,-0.19,75.19,3.82
70.00,2.00,342.44,-14.19,7.12,3.12,1.50,5.31,75.19,3.82
70.00,0.00,205.94,28.38,-141.31,3.50,-1.81,3.81,75.25,3.84
70.00,1.00,293.06,-8.69,-57.94,-1.56,4.25,0.38,75.25,3.84
70.00,2.00,342.31,-14.25,7.06,1.88,0.81,5.31,75.25,3.84
70.00,0.00,205.94,28.38,-141.44,3.44,-3.44,3.56,75.37,3.86
70.00,1.00,293.00,-8.75,-57.94,-1.25,5.69,0.25,75.37,3.86
70.00,2.00,342.19,-14.25,7.00,0.31,-0.12,6.44,75.37,3.86
70.00,0.00,205.94,28.31,-141.56,4.38,-6.00,3.12,75.51,3.88
70.00,1.00,292.94,-8.81,-57.94,-1.56,3.62,-0.38,75.51,3.88
70.00,2.00,342.12,-14.25,7.00,0.69,0.75,6.12,75.51,3.88
70.00,0.00,206.06,28.19,-141.75,4.94,-7.44,2.44,75.67,3.90
70.00,1.00,292.88,-8.88,-57.88,-0.62,4.56,0.06,75.67,3.90
70.00,2.00,342.00,-14.25,6.94,0.88,1.00,5.19,75.67,3.90
70.00,0.00,206.12,28.12,-141.88,4.50,-7.31,1.94,75.82,3.92
70.00,1.00,292.88,-8.88,-57.88,-1.00,4.25,-0.06,75.82,3.92
70.00,2.00,341.88,-14.25,6.94,0.50,0.44,5.38,75.82,3.92
70.00,0.00,206.19,28.06,-141.94,4.00,-7.44,1.44,75.97,3.94
70.00,1.00,292.81,-8.94,-57.88,-1.12,3.12,0.25,75.97,3.94
70.00,2.00,341.75,-14.31,6.94,0.12,-0.12,5.69,75.97,3.94
70.00,0.00,206.38,27.88,-142.19,4.81,-7.88,1.62,76.08,3.96
70.00,1.00,292.75,-8.94,-57.88,-1.44,2.25,-0.50,76.08,3.96
70.00,2.00,341.69,-14.31,6.88,1.94,0.50,4.75,76.08,3.96
70.00,0.00,206.38,27.88,-142.25,5.31,-7.38,1.94,76.21,3.98
70.00,1.00,292.75,-9.00,-57.81,-1.31,3.00,-0.50,76.21,3.98
70.00,2.00,341.62,-14.31,6.81,2.06,1.00,4.00,76.21,3.98
70.00,0.00,206.44,27.75,-142.44,5.62,-7.31,2.25,76.42,4.00
70.00,1.00,292.69,-9.00,-57.81,-2.12,2.06,0.19,76.42,4.00
70.00,2.00,341.50,-14.31,6.81,0.12,0.81,4.75,76.42,4.00
70.00,0.00,206.50,27.69,-142.56,5.31,-6.81,1.69,76.66,4.02
70.00,1.00,292.69,-9.06,-57.81,-0.50,4.38,-0.06,76.66,4.02
70.00,2.00,341.44,-14.38,6.81,-0.94,0.50,4.94,76.66,4.02
70.00,0.00,206.56,27.56,-142.75,4.31,-7.31,1.12,76.87,4.04
70.00,1.00,292.62,-9.12,-57.81,-0.81,3.69,0.12,76.87,4.04
70.00,2.00,341.31,-14.38,6.81,-1.19,1.88,4.69,76.87,4.04
70.00,0.00,108.31,27.44,-142.88,3.31,-7.69,0.12,77.06,4.06
70.00,1.00,292.56,-9.12,-57.81,-1.69,2.81,1.00,77.06,4.06
70.00,2.00,341.25,-14.44,6.81,-1.56,1.19,4.94,77.06,4.06
70.00,0.00,108.31,27.31,-142.94,2.75,-8.19,-0.12,77.21,4.08
70.00,1.00,292.50,-9.12,-57.75,-1.69,3.31,0.75,77.21,4.08
70.00,2.00,341.12,-14.44,6.81,-1.31,0.75,5.38,77.21,4.08
70.00,0.00,108.38,27.19,-143.00,1.69,-9.12,-0.75,77.30,4.10
70.00,1.00,292.50,-9.19,-57.75,-1.56,2.75,0.31,77.30,4.10
70.00,2.00,341.00,-14.44,6.81,-0.62,1.19,5.06,77.30,4.10
70.00,0.00,108.38,27.00,-143.12,3.75,-9.00,0.12,77.48,4.12
70.00,1.00,292.44,-9.19,-57.69,-1.19,2.69,0.38,77.48,4.12
70.00,2.00,340.94,-14.50,6.81,-0.88,1.88,4.62,77.48,4.12
70.00,0.00,108.44,26.94,-143.25,1.25,-5.75,0.12,77.65,4.14
70.00,1.00,292.38,-9.19,-57.69,-0.62,3.69,0.69,77.65,4.14
70.00,2.00,340.81,-14.56,6.81,-3.12,2.19,4.75,77.65,4.14
70.00,0.00,108.44,26.81,-143.25,-2.81,-5.81,-3.31,77.71,4.16
70.00,1.00,292.38,-9.25,-57.69,-1.94,2.00,1.06,77.71,4.16
70.00,2.00,340.75,-14.62,6.88,-4.38,1.25,4.44,77.71,4.16
70.00,0.00,108.44,26.69,-143.19,-3.50,-6.38,-4.50,77.66,4.18
70.00,1.00,292.31,-9.25,-57.62,-2.31,1.50,0.75,77.66,4.18
70.00,2.00,340.69,-14.62,6.94,-2.31,0.62,3.88,77.66,4.18
70.00,0.00,108.38,26.50,-143.19,-2.44,-7.06,-1.81,77.60,4.20
70.00,1.00,292.31,-9.25,-57.62,-2.06,1.38,0.12,77.60,4.20
70.00,2.00,340.62,-14.62,6.94,-0.75,1.44,3.00,77.60,4.20
70.00,0.00,108.44,26.38,-143.12,-0.81,-6.50,0.06,77.60,4.22
70.00,1.00,292.25,-9.25,-57.56,-1.62,1.62,-0.25,77.60,4.22
70.00,2.00,340.56,-14.69,6.94,-0.88,2.06,3.12,77.60,4.24
70.00,0.00,108.50,26.31,-143.19,-3.88,-3.19,-1.25,77.54,4.24
70.00,1.00,292.25,-9.25,-57.56,-1.94,1.94,0.12,77.54,4.24
70.00,2.00,340.50,-14.75,7.00,-2.19,2.25,3.06,77.54,4.24
70.00,0.00,108.50,26.25,-143.06,-8.00,-2.62,-4.94,77.34,4.26
70.00,1.00,292.25,-9.31,-57.50,-2.81,1.12,0.19,77.34,4.26
70.00,2.00,340.44,-14.75,7.06,-3.00,1.62,3.00,77.34,4.26
70.00,0.00,108.44,26.12,-142.88,-7.50,-3.19,-5.44,77.14,4.28
70.00,1.00,292.19,-9.31,-57.44,-2.81,1.25,-0.12,77.14,4.28
70.00,2.00,340.38,-14.81,7.06,-2.19,1.94,2.94,77.14,4.28
70.00,0.00,108.38,26.06,-142.75,-5.00,-2.00,-2.75,77.03,4.30
70.00,1.00,292.19,-9.31,-57.44,-2.44,1.62,-0.06,77.03,4.30
70.00,2.00,340.31,-14.81,7.12,-2.19,1.56,2.69,77.03,4.30
70.00,0.00,108.38,26.00,-142.69,-3.25,-0.19,-1.00,77.01,4.32
70.00,1.00,292.12,-9.31,-57.38,-2.75,2.25,-0.12,77.01,4.32
70.00,2.00,340.25,-14.88,7.12,-2.75,1.31,3.19,77.01,4.34
70.00,0.00,108.38,26.00,-142.62,-3.31,0.00,-1.31,77.00,4.34
70.00,1.00,292.12,-9.38,-57.31,-2.50,2.12,0.19,77.00,4.34
70.00,2.00,340.12,-14.88,7.19,-3.06,1.12,3.56,77.00,4.34
70.00,0.00,108.38,26.00,-142.50,-4.25,1.81,-2.38,76.97,4.36
70.00,1.00,292.12,-9.38,-57.25,-2.50,1.88,0.75,76.97,4.36
70.00,2.00,340.06,-14.94,7.19,-3.38,1.69,4.00,76.97,4.38
70.00,0.00,108.31,26.00,-142.38,-5.06,2.25,-2.69,76.91,4.38
70.00,1.00,292.06,-9.38,-57.25,-2.88,1.75,0.94,76.91,4.38
70.00,2.00,340.00,-15.00,7.25,-3.44,1.31,4.50,76.91,4.38
70.00,0.00,108.25,26.00,-142.25,-6.00,1.12,-2.94,76.85,4.40
70.00,1.00,292.00,-9.38,-57.19,-3.44,1.69,1.25,76.85,4.40
70.00,2.00,339.88,-15.00,7.31,-4.62,1.19,5.25,76.85,4.42
70.00,0.00,108.25,25.94,-142.12,-6.12,0.19,-3.50,76.82,4.42
70.00,1.00,291.94,-9.38,-57.12,-3.94,2.12,0.81,76.82,4.42
70.00,2.00,339.75,-15.00,7.38,-5.12,0.38,6.38,76.82,4.44
70.00,0.00,108.19,25.88,-142.00,-5.94,-0.06,-3.56,76.77,4.44
70.00,1.00,291.88,-9.38,-57.06,-3.38,2.31,1.31,76.77,4.44
70.00,2.00,339.62,-15.06,7.44,-4.62,1.06,6.75,76.77,4.44
70.00,0.00,108.19,25.81,-141.88,-6.06,-0.25,-3.38,76.74,4.46
70.00,1.00,291.81,-9.38,-57.00,-3.69,3.31,2.31,76.74,4.46
70.00,2.00,339.44,-15.06,7.50,-5.44,1.19,6.81,76.74,4.46
70.00,0.00,212.12,25.81,-141.69,-6.50,0.44,-3.50,76.75,4.48
70.00,1.00,291.75,-9.38,-56.94,-4.12,3.62,2.19,76.75,4.48
70.00,2.00,339.31,-15.12,7.56,-6.62,0.50,7.12,76.75,4.48
70.00,0.00,212.38,25.75,-141.56,-6.50,0.25,-3.69,76.71,4.50
70.00,1.00,291.62,-9.38,-56.88,-4.00,3.75,1.81,76.71,4.50
70.00,2.00,339.12,-15.12,7.69,-5.56,0.19,7.06,76.71,4.52
70.00,0.00,212.56,25.69,-141.44,-5.25,-0.31,-3.44,76.63,4.52
70.00,1.00,291.56,-9.44,-56.81,-3.25,4.19,0.75,76.63,4.52
70.00,2.00,339.00,-15.19,7.69,-3.12,3.06,4.69,76.63,4.54
70.00,0.00,212.75,25.69,-141.31,-3.75,-0.56,-3.38,76.64,4.54
70.00,1.00,291.50,-9.50,-56.75,-3.06,4.75,0.50,76.64,4.54
70.00,2.00,338.94,-15.25,7.75,-3.94,3.56,4.62,76.64,4.54
70.00,0.00,213.00,25.62,-141.25,-3.31,-1.50,-3.38,76.73,4.56
70.00,1.00,291.44,-9.50,-56.69,-3.56,4.56,0.62,76.73,4.56
70.00,2.00,338.81,-15.31,7.81,-5.75,2.75,5.56,76.73,4.56
70.00,0.00,213.25,25.50,-141.19,-3.25,-1.69,-3.81,76.86,4.58
70.00,1.00,291.38,-9.56,-56.62,-4.06,4.75,0.94,76.86,4.58
70.00,2.00,338.69,-15.38,7.94,-6.56,1.25,5.88,76.86,4.58
70.00,0.00,213.50,25.44,-141.06,-3.69,-1.62,-4.38,76.94,4.60
70.00,1.00,291.31,-9.56,-56.56,-4.00,4.56,0.88,76.94,4.60
70.00,2.00,338.56,-15.44,8.00,-5.88,2.38,5.25,76.94,4.60
70.00,0.00,213.75,25.38,-141.00,-3.50,-2.62,-4.38,77.02,4.62
70.00,1.00,291.25,-9.62,-56.50,-3.88,4.50,0.44,77.02,4.62
70.00,2.00,338.44,-15.50,8.12,-5.56,2.31,4.75,77.02,4.62
70.00,0.00,214.06,25.25,-140.88,-3.19,-3.06,-4.31,77.05,4.64
70.00,1.00,291.19,-9.69,-56.44,-3.75,4.50,-0.31,77.05,4.64
70.00,2.00,338.38,-15.56,8.19,-4.06,2.88,4.06,77.05,4.64
70.00,0.00,214.31,25.12,-140.81,-3.12,-3.38,-4.19,77.06,4.66
70.00,1.00,291.12,-9.75,-56.38,-3.81,4.50,-0.56,77.06,4.66
70.00,2.00,338.31,-15.62,8.25,-3.19,3.50,3.50,77.06,4.66
70.00,0.00,214.56,25.06,-140.75,-3.25,-2.31,-4.19,77.11,4.68
70.00,1.00,291.06,-9.75,-56.31,-4.12,4.38,-0.69,77.11,4.68
70.00,2.00,338.19,-15.69,8.31,-4.69,2.62,4.25,77.11,4.68
70.00,0.00,214.81,25.00,-140.69,-3.31,-1.25,-3.94,77.18,4.70
70.00,1.00,291.06,-9.81,-56.25,-4.19,3.88,-0.62,77.18,4.70
70.00,2.00,338.12,-15.69,8.38,-5.00,2.25,4.00,77.18,4.70
70.00,0.00,215.00,24.94,-140.56,-2.94,-0.62,-3.44,77.24,4.72
70.00,1.00,291.00,-9.88,-56.19,-4.44,3.50,-0.62,77.24,4.72
70.00,2.00,338.06,-15.75,8.50,-4.62,2.31,3.25,77.24,4.72
70.00,0.00,215.12,24.88,-140.50,-2.69,-0.25,-3.19,77.30,4.74
70.00,1.00,291.00,-9.94,-56.12,-4.19,3.44,-1.25,77.30,4.74
70.00,2.00,338.00,-15.81,8.56,-4.12,2.44,2.69,77.30,4.74
70.00,0.00,215.25,24.88,-140.44,-2.50,-0.25,-2.62,77.33,4.76
70.00,1.00,291.00,-10.00,-56.00,-4.00,3.25,-1.81,77.33,4.76
70.00,2.00,337.94,-15.88,8.62,-3.38,3.44,2.56,77.33,4.76
70.00,0.00,215.38,24.81,-140.38,-2.00,-0.12,-2.31,77.40,4.78
70.00,1.00,290.94,-10.06,-55.94,-4.06,3.44,-1.69,77.40,4.78
70.00,2.00,337.88,-15.94,8.69,-3.88,3.88,2.06,77.40,4.78
70.00,0.00,215.44,24.81,-140.31,-1.69,-0.12,-2.00,77.51,4.80
70.00,1.00,290.94,-10.12,-55.88,-4.19,4.06,-2.25,77.51,4.80
70.00,2.00,337.81,-16.00,8.75,-4.56,2.94,2.31,77.51,4.80
70.00,0.00,215.50,24.81,-140.31,-1.50,-0.19,-1.31,77.61,4.82
70.00,1.00,290.94,-10.19,-55.81,-3.75,3.88,-2.00,77.61,4.82
70.00,2.00,337.81,-16.06,8.88,-3.94,2.38,2.12,77.61,4.82
70.00,0.00,215.56,24.75,-140.25,-1.12,-0.69,-1.25,77.68,4.84
70.00,1.00,290.94,-10.25,-55.75,-3.94,3.19,-1.88,77.68,4.84
70.00,2.00,337.75,-16.12,8.88,-3.06,2.38,2.31,77.68,4.84
70.00,0.00,215.62,24.75,-140.25,-0.94,-0.12,-1.00,77.77,4.86
70.00,1.00,290.94,-10.38,-55.69,-3.25,3.81,-1.62,77.77,4.86
70.00,2.00,337.69,-16.19,8.94,-3.31,2.69,2.38,77.77,4.86
70.00,0.00,215.69,24.75,-140.25,-1.06,0.19,-0.88,77.88,4.88
70.00,1.00,290.94,-10.44,-55.62,-3.62,3.94,-1.50,77.88,4.88
70.00,2.00,337.62,-16.25,9.00,-3.94,2.62,2.62,77.88,4.88
70.00,0.00,215.69,24.75,-140.19,-1.31,0.50,-0.75,78.00,4.90
70.00,1.00,290.88,-10.50,-55.56,-3.50,3.44,-1.31,78.00,4.90
70.00,2.00,337.56,-16.25,9.06,-4.44,2.25,3.31,78.00,4.90
70.00,0.00,215.75,24.75,-140.19,-1.19,0.56,-0.50,78.12,4.92
70.00,1.00,290.88,-10.56,-55.50,-3.19,3.50,-1.56,78.12,4.92
70.00,2.00,337.50,-16.31,9.19,-4.25,1.94,3.19,78.12,4.92
70.00,0.00,215.75,24.75,-140.19,-0.62,-0.06,0.00,78.23,4.94
70.00,1.00,290.88,-10.62,-55.44,-3.06,3.12,-1.56,78.23,4.94
70.00,2.00,337.44,-16.38,9.25,-3.44,2.31,2.31,78.23,4.94
70.00,0.00,215.75,24.75,-140.19,-0.25,0.00,0.12,78.37,4.96
70.00,1.00,290.88,-10.69,-55.38,-2.50,4.12,-1.44,78.37,4.96
70.00,2.00,337.38,-16.44,9.31,-3.88,2.75,2.06,78.37,4.96
70.00,0.00,215.75,24.75,-140.19,-0.88,-0.44,0.00,78.49,4.98
70.00,1.00,290.81,-10.75,-55.31,-3.69,2.88,-1.06,78.49,4.98
70.00,2.00,337.31,-16.44,9.38,-4.06,2.25,2.44,78.49,4.98
70.00,0.00,215.81,24.75,-140.12,-1.62,-0.88,-0.25,78.56,5.00
70.00,1.00,290.81,-10.75,-55.25,-3.50,3.19,-1.44,78.56,5.00
70.00,2.00,337.25,-16.50,9.44,-3.31,1.62,2.38,78.56,5.00
70.00,0.00,215.94,24.69,-140.12,-2.00,-1.00,-0.44,78.56,5.02
70.00,1.00,290.81,-10.81,-55.25,-3.06,2.94,-0.88,78.56,5.02
70.00,2.00,337.25,-16.50,9.50,-2.19,1.69,2.25,78.56,5.02
70.00,0.00,216.06,24.69,-140.06,-2.44,-1.88,-0.25,78.57,5.04
70.00,1.00,290.81,-10.88,-55.19,-3.06,3.50,-0.69,78.57,5.04
70.00,2.00,337.19,-16.56,9.50,-2.50,1.50,2.56,78.57,5.04
70.00,0.00,216.19,24.62,-140.06,-2.06,-1.69,-0.19,78.61,5.06
70.00,1.00,290.75,-10.88,-55.12,-3.44,3.06,-0.56,78.61,5.06
70.00,2.00,337.12,-16.62,9.56,-3.25,1.31,3.50,78.61,5.06
70.00,0.00,216.31,24.62,-140.00,-2.44,-1.56,-0.25,78.65,5.08
70.00,1.00,290.75,-10.94,-55.06,-3.38,3.06,-0.62,78.65,5.08
70.00,2.00,337.06,-16.62,9.62,-3.38,1.62,3.38,78.65,5.08
70.00,0.00,216.44,24.62,-140.00,-2.06,-1.56,-0.31,78.69,5.10
70.00,1.00,290.69,-11.00,-55.06,-3.31,3.25,-0.81,78.69,5.10
70.00,2.00,336.94,-16.69,9.69,-3.12,1.81,3.44,78.69,5.10
70.00,0.00,216.50,24.56,-139.94,-1.62,-1.31,-0.31,78.76,5.12
70.00,1.00,290.69,-11.00,-55.00,-3.31,3.81,-0.94,78.76,5.12
70.00,2.00,336.88,-16.75,9.69,-3.50,1.56,3.38,78.76,5.12
70.00,0.00,216.62,24.56,-139.94,-1.31,-0.94,-0.31,78.86,5.14
70.00,1.00,290.62,-11.06,-54.94,-3.75,3.88,-1.06,78.86,5.14
70.00,2.00,336.81,-16.75,9.75,-3.88,1.69,3.81,78.86,5.14
70.00,0.00,216.62,24.56,-139.94,-1.12,0.00,-0.19,78.97,5.16
70.00,1.00,290.62,-11.12,-54.88,-3.50,4.50,-1.06,78.97,5.16
70.00,2.00,336.75,-16.81,9.81,-4.00,1.62,3.75,78.97,5.16
70.00,0.00,216.62,24.56,-139.88,-1.06,0.62,-0.38,79.06,5.18
70.00,1.00,290.56,-11.19,-54.81,-3.19,4.62,-1.06,79.06,5.18
70.00,2.00,336.62,-16.81,9.88,-3.31,1.50,3.94,79.06,5.18
70.00,0.00,216.62,24.56,-139.88,-0.94,1.56,-0.44,79.14,5.20
70.00,1.00,290.56,-11.25,-54.75,-3.50,4.50,-1.06,79.14,5.20
70.00,2.00,336.56,-16.88,9.94,-3.06,1.69,3.62,79.14,5.20
70.00,0.00,216.56,24.62,-139.81,-0.56,2.56,-0.88,79.25,5.22
70.00,1.00,290.50,-11.31,-54.69,-3.12,5.12,-0.69,79.25,5.22
70.00,2.00,336.50,-16.94,10.00,-3.50,2.19,4.00,79.25,5.22
70.00,0.00,216.50,24.62,-139.81,0.19,2.75,-1.31,79.39,5.24
70.00,1.00,290.44,-11.44,-54.62,-3.00,5.38,-0.56,79.39,5.24
70.00,2.00,336.38,-16.94,10.06,-3.56,0.94,4.06,79.39,5.24
70.00,0.00,216.44,24.69,-139.81,0.44,2.69,-1.31,79.52,5.26
70.00,1.00,290.44,-11.44,-54.62,-3.38,4.81,-1.12,79.52,5.26
70.00,2.00,336.31,-17.00,10.12,-2.75,0.94,3.56,79.52,5.26
70.00,0.00,216.31,24.69,-139.75,1.38,3.38,-1.44,79.62,5.28
70.00,1.00,290.38,-11.56,-54.56,-1.94,4.94,-1.19,79.62,5.28
70.00,2.00,336.25,-17.00,10.19,-1.31,2.00,2.88,79.62,5.28
70.00,0.00,216.19,24.75,-139.75,1.50,4.31,-1.56,79.76,5.30
70.00,1.00,290.38,-11.62,-54.50,-2.50,4.62,-0.88,79.76,5.30
70.00,2.00,336.19,-17.06,10.19,-2.25,2.06,2.81,79.76,5.30
70.00,0.00,216.00,24.75,-139.75,1.06,4.81,-1.88,79.95,5.32
70.00,1.00,290.31,-11.69,-54.50,-3.06,4.62,-0.50,79.95,5.32
70.00,2.00,336.12,-17.12,10.25,-3.62,2.50,3.31,79.95,5.32
70.00,0.00,215.88,24.81,-139.75,0.81,4.88,-1.94,80.15,5.34
70.00,1.00,290.25,-11.75,-54.44,-3.25,4.69,-0.69,80.15,5.34
70.00,2.00,336.06,-17.19,10.31,-4.50,1.75,4.62,80.15,5.34
70.00,0.00,215.69,24.81,-139.69,1.06,4.31,-1.81,80.35,5.36
70.00,1.00,290.19,-11.75,-54.38,-3.81,3.69,-0.19,80.35,5.36
70.00,2.00,335.94,-17.25,10.38,-4.25,1.56,4.00,80.35,5.36
70.00,0.00,215.62,24.88,-139.69,0.81,2.44,-1.94,80.56,5.38
70.00,1.00,290.19,-11.81,-54.31,-3.25,5.19,-0.38,80.56,5.38
70.00,2.00,335.88,-17.25,10.44,-4.56,1.44,3.38,80.56,5.38
70.00,0.00,215.81,24.75,-139.69,0.50,-1.81,-2.94,80.76,5.40
70.00,1.00,290.12,-11.88,-54.25,-3.69,4.25,-0.31,80.76,5.40
70.00,2.00,335.81,-17.31,10.50,-4.62,1.44,3.44,80.76,5.40
70.00,0.00,216.12,24.62,-139.75,1.44,-8.88,-1.25,80.99,5.42
70.00,1.00,290.06,-11.94,-54.19,-4.12,4.31,-0.88,80.99,5.42
70.00,2.00,335.75,-17.31,10.56,-4.56,2.12,2.81,80.99,5.42
70.00,0.00,216.44,24.50,-139.81,1.00,-7.44,-1.00,81.20,5.44
70.00,1.00,290.00,-12.00,-54.12,-4.00,4.56,-1.31,81.20,5.44
70.00,2.00,335.69,-17.38,10.69,-4.56,2.50,3.06,81.20,5.44
70.00,0.00,216.62,24.38,-139.81,0.69,-5.00,-1.44,81.43,5.46
70.00,1.00,290.00,-12.06,-54.06,-3.81,4.25,-1.56,81.43,5.46
70.00,2.00,335.62,-17.44,10.81,-5.31,2.38,2.50,81.43,5.46
70.00,0.00,216.88,24.31,-139.81,0.19,-4.62,-1.00,81.61,5.48
70.00,1.00,290.00,-12.12,-54.00,-4.38,3.88,-1.88,81.61,5.48
70.00,2.00,335.56,-17.50,10.94,-4.31,3.12,0.94,81.61,5.48
70.00,0.00,217.00,24.25,-139.81,0.00,-3.88,0.06,81.73,5.50
70.00,1.00,290.00,-12.19,-53.94,-4.25,3.56,-2.00,81.73,5.50
70.00,2.00,335.56,-17.56,11.00,-3.19,4.06,0.44,81.73,5.50
70.00,0.00,217.06,24.19,-139.88,2.06,-3.12,1.38,81.92,5.52
70.00,1.00,290.00,-12.31,-53.81,-3.94,3.94,-2.75,81.92,5.52
70.00,2.00,335.56,-17.62,11.12,-2.88,4.25,0.12,81.92,5.52
70.00,0.00,217.00,24.19,-139.94,3.00,-1.12,1.56,82.14,5.54
70.00,1.00,290.00,-12.44,-53.69,-3.19,3.69,-2.94,82.14,5.54
70.00,2.00,335.62,-17.69,11.25,-2.75,4.25,-0.62,82.14,5.54
70.00,0.00,216.94,24.25,-140.00,2.88,0.06,1.25,82.33,5.56
70.00,1.00,290.06,-12.56,-53.62,-3.06,2.12,-3.19,82.33,5.56
70.00,2.00,335.62,-17.81,11.38,-2.12,3.94,-1.56,82.33,5.56
70.00,0.00,216.81,24.25,-140.00,1.75,1.94,0.38,82.43,5.58
70.00,1.00,290.19,-12.69,-53.50,-2.38,1.75,-3.31,82.43,5.58
70.00,2.00,335.69,-17.88,11.50,-0.94,3.81,-3.06,82.43,5.58
70.00,0.00,216.69,24.31,-140.06,1.06,2.94,-0.25,82.48,5.60
70.00,1.00,290.25,-12.81,-53.44,-0.62,0.19,-3.25,82.48,5.60
70.00,2.00,335.81,-17.94,11.56,-0.12,3.25,-3.38,82.48,5.60
70.00,0.00,216.62,24.31,-140.00,0.69,3.00,-0.50,82.47,5.62
70.00,1.00,290.38,-12.88,-53.38,-0.44,-1.06,-3.06,82.47,5.62
70.00,2.00,335.88,-18.00,11.62,0.94,2.12,-3.94,82.47,5.62
70.00,0.00,216.56,24.31,-140.00,0.38,3.06,-0.62,82.40,5.64
70.00,1.00,290.44,-12.94,-53.31,0.62,-1.00,-2.88,82.40,5.64
70.00,2.00,335.94,-18.00,11.62,2.12,1.44,-4.62,82.40,5.64
70.00,0.00,216.50,24.38,-139.94,0.38,1.19,-0.88,82.35,5.66
70.00,1.00,290.50,-13.00,-53.25,0.75,-1.69,-2.31,82.35,5.66
70.00,2.00,336.06,-18.00,11.69,1.75,0.00,-4.50,82.35,5.66
70.00,0.00,216.56,24.38,-139.94,0.00,0.25,-1.00,82.30,5.68
70.00,1.00,290.62,-13.06,-53.25,1.00,-2.62,-1.38,82.30,5.68
70.00,2.00,336.12,-17.94,11.69,1.31,-1.06,-4.50,82.30,5.68
70.00,0.00,216.62,24.31,-139.88,-0.44,0.88,-1.75,82.21,5.70
70.00,1.00,290.69,-13.06,-53.25,1.06,-3.12,-1.56,82.21,5.70
70.00,2.00,336.25,-17.94,11.69,1.94,-0.88,-5.19,82.21,5.70
70.00,0.00,216.75,24.31,-139.75,-0.69,0.88,-2.25,82.09,5.72
70.00,1.00,290.75,-13.06,-53.25,1.88,-3.88,-1.31,82.09,5.72
70.00,2.00,336.38,-17.88,11.69,2.50,-1.00,-5.62,82.09,5.72
