Iteration,IMUNo,OrientationX (deg),OrientationY,OrientationZ,GyroX (20rad/sec),GyroY,GyroZ,Elbow_Pos (rad),Time (sec)
9.00,0.00,275.81,0.06,-94.94,-0.75,0.56,0.00,-0.01,1.02
9.00,1.00,271.00,-5.75,-53.56,0.25,0.62,0.25,-0.01,1.02
9.00,2.00,291.12,-20.38,18.38,-0.50,0.06,0.19,-0.01,1.02
9.00,0.00,275.81,0.06,-94.94,-0.75,0.56,0.00,-0.01,1.02
9.00,1.00,271.00,-5.75,-53.56,0.25,0.62,0.25,-0.01,1.02
9.00,2.00,291.12,-20.38,18.38,-0.50,0.06,0.19,-0.01,1.02
9.00,0.00,275.81,0.06,-94.94,-0.44,0.81,0.25,0.00,1.04
9.00,1.00,271.00,-5.75,-53.56,-0.25,0.38,0.00,0.00,1.04
9.00,2.00,291.12,-20.38,18.38,-0.69,-0.12,-0.06,0.00,1.04
9.00,0.00,275.81,0.06,-94.94,-0.62,0.56,0.19,0.00,1.06
9.00,1.00,271.00,-5.75,-53.56,-0.62,0.00,-0.44,0.00,1.06
9.00,2.00,291.12,-20.38,18.38,-0.56,0.38,-0.31,0.00,1.06
9.00,0.00,275.81,0.06,-94.94,-0.38,0.38,-0.06,0.00,1.08
9.00,1.00,270.94,-5.75,-53.56,-0.19,0.31,0.00,0.00,1.08
9.00,2.00,291.12,-20.38,18.38,-0.31,0.06,-0.38,0.00,1.08
9.00,0.00,275.81,0.06,-94.88,-0.94,0.06,-0.31,-0.02,1.10
9.00,1.00,270.94,-5.75,-53.56,0.38,0.06,0.31,-0.02,1.10
9.00,2.00,291.12,-20.38,18.38,-0.06,-0.31,-0.56,-0.02,1.10
9.00,0.00,275.81,0.06,-94.88,-0.75,-0.12,-0.38,-0.05,1.12
9.00,1.00,270.94,-5.75,-53.56,0.25,-0.12,-0.06,-0.05,1.12
9.00,2.00,291.12,-20.38,18.38,0.38,0.06,-0.56,-0.05,1.12
9.00,0.00,275.81,0.06,-94.88,-0.62,0.00,-0.12,-0.07,1.14
9.00,1.00,270.94,-5.75,-53.56,0.06,-0.06,0.00,-0.07,1.14
9.00,2.00,291.12,-20.38,18.38,0.44,-0.12,-0.38,-0.07,1.14
9.00,0.00,275.81,0.06,-94.88,-0.06,0.81,-0.06,-0.07,1.16
9.00,1.00,270.94,-5.75,-53.56,0.19,-0.06,-0.31,-0.07,1.16
9.00,2.00,291.12,-20.38,18.44,-0.38,-0.06,0.19,-0.07,1.16
9.00,0.00,275.75,0.06,-94.88,-0.06,1.00,-0.06,-0.07,1.18
9.00,1.00,270.94,-5.75,-53.56,0.25,0.06,-0.25,-0.07,1.18
9.00,2.00,291.12,-20.38,18.44,0.06,0.25,0.31,-0.07,1.18
9.00,0.00,275.75,0.06,-94.88,0.12,0.50,0.00,-0.08,1.20
9.00,1.00,271.00,-5.75,-53.56,0.69,0.12,0.00,-0.08,1.20
9.00,2.00,291.12,-20.44,18.44,0.38,0.31,0.12,-0.08,1.20
9.00,0.00,275.75,0.06,-94.88,0.00,0.00,-0.06,-0.08,1.22
9.00,1.00,271.00,-5.75,-53.56,0.62,0.19,0.06,-0.08,1.22
9.00,2.00,291.12,-20.44,18.44,0.31,0.25,-0.12,-0.08,1.22
9.00,0.00,275.75,0.06,-94.88,0.00,0.31,-0.25,-0.09,1.24
9.00,1.00,271.00,-5.75,-53.56,0.50,-0.06,0.06,-0.09,1.24
9.00,2.00,291.12,-20.44,18.44,0.44,0.12,-0.12,-0.09,1.24
9.00,0.00,275.75,0.06,-94.88,0.00,0.44,-0.06,-0.09,1.26
9.00,1.00,271.00,-5.75,-53.56,0.44,-0.25,0.19,-0.09,1.26
9.00,2.00,291.12,-20.44,18.44,-0.12,-0.06,-0.06,-0.09,1.26
9.00,0.00,275.75,0.06,-94.88,-0.31,0.38,0.00,-0.10,1.28
9.00,1.00,271.00,-5.75,-53.56,0.00,0.06,-0.12,-0.10,1.28
9.00,2.00,291.12,-20.44,18.44,0.12,-0.44,0.38,-0.10,1.28
9.00,0.00,275.75,0.06,-94.88,-0.44,0.81,0.06,-0.11,1.30
9.00,1.00,271.00,-5.75,-53.56,0.25,0.25,-0.12,-0.11,1.30
9.00,2.00,291.12,-20.44,18.44,-0.12,-0.12,0.31,-0.11,1.30
9.00,0.00,275.75,0.06,-94.88,-0.06,0.81,0.38,-0.11,1.32
9.00,1.00,271.00,-5.75,-53.56,0.12,0.44,0.19,-0.11,1.32
9.00,2.00,291.12,-20.44,18.44,-0.12,0.25,0.62,-0.11,1.32
9.00,0.00,275.69,0.06,-94.88,-0.25,0.94,0.31,-0.10,1.34
9.00,1.00,271.00,-5.75,-53.56,0.56,0.56,0.19,-0.10,1.34
9.00,2.00,291.12,-20.44,18.44,-0.38,0.00,0.25,-0.10,1.34
9.00,0.00,275.69,0.06,-94.88,-0.06,0.75,0.31,-0.10,1.36
9.00,1.00,271.00,-5.75,-53.56,0.31,0.31,0.06,-0.10,1.36
9.00,2.00,291.12,-20.44,18.50,-0.19,-0.25,0.00,-0.10,1.36
9.00,0.00,275.69,0.06,-94.88,-0.25,0.62,0.06,-0.12,1.38
9.00,1.00,271.00,-5.75,-53.56,0.06,0.00,0.19,-0.12,1.38
9.00,2.00,291.12,-20.44,18.50,0.50,-0.19,-0.06,-0.12,1.38
9.00,0.00,275.69,0.06,-94.88,-0.38,0.75,0.19,-0.13,1.40
9.00,1.00,271.00,-5.75,-53.56,0.12,0.12,0.00,-0.13,1.40
9.00,2.00,291.12,-20.44,18.50,0.12,-0.06,-0.12,-0.13,1.40
9.00,0.00,275.62,0.06,-94.88,-0.50,0.62,0.06,-0.13,1.42
9.00,1.00,271.00,-5.75,-53.56,0.12,0.44,0.06,-0.13,1.42
9.00,2.00,291.12,-20.50,18.50,-0.44,-0.25,0.12,-0.13,1.42
9.00,0.00,275.62,0.06,-94.88,-0.31,0.19,0.12,-0.13,1.44
9.00,1.00,271.00,-5.75,-53.56,0.00,0.25,-0.06,-0.13,1.44
9.00,2.00,291.12,-20.50,18.50,-0.50,0.12,0.31,-0.13,1.44
9.00,0.00,275.62,0.06,-94.88,0.00,-0.06,0.12,-0.12,1.46
9.00,1.00,271.00,-5.75,-53.56,0.00,0.12,-0.06,-0.12,1.46
9.00,2.00,291.12,-20.50,18.50,-0.38,0.00,0.06,-0.12,1.46
9.00,0.00,275.62,0.06,-94.88,0.00,0.25,-0.19,-0.11,1.48
9.00,1.00,271.00,-5.75,-53.56,-0.19,-0.12,-0.06,-0.11,1.48
9.00,2.00,291.12,-20.50,18.50,-0.38,-0.06,-0.06,-0.11,1.48
9.00,0.00,275.62,0.06,-94.88,-0.19,0.81,-0.12,-0.12,1.50
9.00,1.00,271.00,-5.75,-53.56,0.06,0.06,-0.06,-0.12,1.50
9.00,2.00,291.12,-20.50,18.50,0.12,0.19,-0.06,-0.12,1.50
9.00,0.00,275.62,0.06,-94.88,-0.25,1.31,-0.06,-0.11,1.52
9.00,1.00,271.00,-5.75,-53.56,-0.38,0.25,-0.12,-0.11,1.52
9.00,2.00,291.12,-20.50,18.50,-0.31,0.12,0.00,-0.11,1.52
9.00,0.00,275.56,0.06,-94.88,0.00,1.56,0.12,-0.09,1.54
9.00,1.00,271.00,-5.75,-53.56,-0.44,0.38,0.19,-0.09,1.54
9.00,2.00,291.12,-20.50,18.50,-1.00,-0.25,0.50,-0.09,1.54
9.00,0.00,275.56,0.06,-94.88,0.31,1.44,0.38,-0.05,1.56
9.00,1.00,271.00,-5.75,-53.56,-0.44,0.31,0.06,-0.05,1.56
9.00,2.00,291.06,-20.50,18.56,-1.44,-0.50,0.75,-0.05,1.56
9.00,0.00,275.50,0.06,-94.88,0.62,2.00,0.44,-0.01,1.58
9.00,1.00,271.00,-5.75,-53.56,-0.25,0.44,0.25,-0.01,1.58
9.00,2.00,291.06,-20.50,18.56,-1.06,-0.69,0.94,-0.01,1.58
9.00,0.00,275.44,0.06,-94.94,1.19,3.00,0.31,0.03,1.60
9.00,1.00,271.00,-5.75,-53.56,-0.19,0.50,0.25,0.03,1.60
9.00,2.00,291.00,-20.50,18.56,-0.62,-0.38,1.00,0.03,1.60
9.00,0.00,275.38,0.06,-94.94,2.00,3.56,0.62,0.09,1.62
9.00,1.00,270.94,-5.75,-53.56,0.06,0.75,0.50,0.09,1.62
9.00,2.00,291.00,-20.50,18.56,-0.75,-0.31,1.50,0.09,1.62
9.00,0.00,275.31,0.12,-95.00,2.44,3.56,0.75,0.17,1.64
9.00,1.00,270.94,-5.75,-53.56,0.38,1.06,0.44,0.17,1.64
9.00,2.00,290.94,-20.56,18.62,-0.81,-0.69,1.69,0.17,1.64
9.00,0.00,275.19,0.12,-95.06,3.44,3.75,0.81,0.26,1.66
9.00,1.00,270.94,-5.81,-53.56,0.19,0.94,0.38,0.26,1.66
9.00,2.00,290.94,-20.56,18.62,-0.62,0.06,2.06,0.26,1.66
9.00,0.00,275.12,0.12,-95.19,4.12,3.88,0.75,0.39,1.68
9.00,1.00,270.94,-5.81,-53.56,-0.19,1.38,0.50,0.39,1.68
9.00,2.00,290.88,-20.56,18.62,-1.06,0.25,1.75,0.39,1.68
9.00,0.00,275.00,0.19,-95.31,4.88,4.50,0.94,0.53,1.70
9.00,1.00,270.94,-5.81,-53.56,-0.25,1.19,0.56,0.53,1.70
9.00,2.00,290.81,-20.56,18.62,-1.50,0.06,2.44,0.53,1.70
9.00,0.00,274.88,0.19,-95.44,6.06,4.94,1.06,0.72,1.72
9.00,1.00,270.94,-5.81,-53.56,-0.19,1.31,0.50,0.72,1.72
9.00,2.00,290.75,-20.62,18.62,-1.81,-0.25,3.25,0.72,1.72
9.00,0.00,274.69,0.25,-95.56,6.81,5.56,1.50,0.91,1.74
9.00,1.00,270.88,-5.81,-53.56,0.38,1.94,0.62,0.91,1.74
9.00,2.00,290.69,-20.62,18.62,-1.38,-0.50,3.94,0.91,1.74
9.00,0.00,274.56,0.31,-95.75,7.50,5.62,1.69,1.11,1.76
9.00,1.00,270.88,-5.88,-53.62,0.56,2.25,0.44,1.11,1.76
9.00,2.00,290.62,-20.62,18.62,-1.19,-0.19,3.69,1.11,1.76
9.00,0.00,274.38,0.31,-95.94,8.88,4.75,2.31,1.37,1.78
9.00,1.00,270.81,-5.88,-53.62,0.19,2.19,1.06,1.37,1.78
9.00,2.00,290.50,-20.69,18.69,-2.44,-0.31,4.19,1.37,1.78
9.00,0.00,274.25,0.44,-96.19,10.31,4.75,3.00,1.68,1.80
9.00,1.00,270.81,-5.88,-53.62,-0.19,2.44,1.00,1.68,1.80
9.00,2.00,290.44,-20.69,18.69,-2.69,0.25,4.50,1.68,1.80
9.00,0.00,274.00,0.50,-96.50,11.94,5.31,3.44,2.01,1.82
9.00,1.00,270.75,-5.88,-53.62,0.25,2.62,0.50,2.01,1.82
9.00,2.00,290.31,-20.75,18.69,-2.38,-0.25,5.06,2.01,1.82
9.00,0.00,273.81,0.62,-96.75,13.81,6.75,3.94,2.37,1.84
9.00,1.00,270.75,-5.94,-53.62,0.62,2.50,0.44,2.37,1.84
9.00,2.00,290.19,-20.81,18.69,-1.56,-0.44,6.25,2.37,1.84
9.00,0.00,273.56,0.69,-97.12,15.12,6.69,5.06,2.74,1.86
9.00,1.00,270.69,-5.94,-53.62,1.25,2.50,0.31,2.74,1.86
9.00,2.00,290.06,-20.81,18.69,-0.69,0.12,6.50,2.74,1.86
9.00,0.00,273.31,0.81,-97.44,17.12,5.56,6.75,3.17,1.88
9.00,1.00,270.69,-6.00,-53.69,0.81,2.81,0.75,3.17,1.88
9.00,2.00,289.94,-20.88,18.69,-1.31,0.00,7.25,3.17,1.88
9.00,0.00,273.06,1.00,-97.88,18.88,3.00,7.69,3.64,1.90
9.00,1.00,270.62,-6.00,-53.69,1.06,3.38,1.44,3.64,1.90
9.00,2.00,289.81,-20.94,18.62,-1.62,-0.44,7.25,3.64,1.90
9.00,0.00,272.88,1.12,-98.25,18.94,1.81,6.44,4.09,1.92
9.00,1.00,270.56,-6.00,-53.69,1.44,3.38,1.44,4.09,1.92
9.00,2.00,289.62,-20.94,18.62,-0.25,-0.75,7.69,4.09,1.92
9.00,0.00,272.69,1.25,-98.62,19.00,3.56,6.56,4.52,1.94
9.00,1.00,270.50,-6.06,-53.75,1.19,3.25,1.25,4.52,1.94
9.00,2.00,289.50,-21.00,18.56,0.38,0.38,8.44,4.52,1.94
9.00,0.00,272.44,1.38,-99.00,19.31,5.44,7.06,5.00,1.96
9.00,1.00,270.44,-6.06,-53.75,1.38,3.69,1.31,5.00,1.96
9.00,2.00,289.31,-21.06,18.50,-1.19,-0.56,9.44,5.00,1.96
9.00,0.00,272.12,1.56,-99.38,21.50,5.81,8.50,5.56,1.98
9.00,1.00,270.38,-6.06,-53.81,1.56,4.44,1.31,5.56,1.98
9.00,2.00,289.06,-21.12,18.44,-2.50,-1.50,11.12,5.56,1.98
9.00,0.00,271.81,1.81,-99.88,24.88,4.88,11.25,6.18,2.00
9.00,1.00,270.31,-6.12,-53.88,1.62,4.62,1.38,6.18,2.00
9.00,2.00,288.81,-21.19,18.44,-1.81,-1.44,12.25,6.18,2.00
9.00,0.00,271.44,2.00,-100.38,26.00,4.19,10.75,6.81,2.02
9.00,1.00,270.19,-6.12,-53.88,1.56,5.38,1.62,6.81,2.02
9.00,2.00,288.56,-21.25,18.38,-1.12,-0.69,12.12,6.81,2.02
9.00,0.00,271.19,2.25,-100.88,25.81,3.44,9.31,7.46,2.04
9.00,1.00,270.12,-6.19,-53.94,1.25,5.31,1.75,7.46,2.04
9.00,2.00,288.31,-21.31,18.31,-2.00,-1.12,12.50,7.46,2.04
9.00,0.00,270.88,2.38,-101.38,25.75,3.19,8.44,8.09,2.06
9.00,1.00,270.06,-6.25,-53.94,1.06,5.56,1.75,8.09,2.06
9.00,2.00,288.06,-21.31,18.25,-1.44,-1.69,12.38,8.09,2.06
9.00,0.00,270.62,2.56,-101.88,24.75,4.00,7.50,8.66,2.08
9.00,1.00,269.94,-6.25,-54.00,0.81,4.88,1.81,8.66,2.08
9.00,2.00,287.81,-21.38,18.12,0.44,-1.81,12.44,8.66,2.08
9.00,0.00,270.31,2.75,-102.38,26.88,4.50,8.12,9.27,2.10
9.00,1.00,269.88,-6.25,-54.06,1.50,5.44,2.00,9.27,2.10
9.00,2.00,287.56,-21.38,18.06,0.44,-2.50,13.00,9.27,2.10
9.00,0.00,270.00,2.94,-102.94,29.44,5.31,10.31,9.95,2.12
9.00,1.00,269.81,-6.31,-54.06,1.06,5.50,1.50,9.95,2.12
9.00,2.00,287.31,-21.44,17.94,0.31,-2.12,13.38,9.95,2.12
9.00,0.00,269.62,3.12,-103.50,28.81,5.00,9.69,10.62,2.14
9.00,1.00,269.69,-6.38,-54.12,0.88,5.62,1.75,10.62,2.14
9.00,2.00,287.06,-21.50,17.81,0.31,-2.75,13.56,10.62,2.14
9.00,0.00,269.31,3.31,-104.06,27.50,5.44,8.19,11.28,2.16
9.00,1.00,269.62,-6.38,-54.12,0.88,6.50,2.19,11.28,2.16
9.00,2.00,286.75,-21.50,17.75,-0.88,-3.00,13.00,11.28,2.16
9.00,0.00,268.94,3.50,-104.62,29.00,3.69,9.75,11.98,2.18
9.00,1.00,269.50,-6.44,-54.12,0.75,6.69,2.12,11.98,2.18
9.00,2.00,286.50,-21.50,17.69,-1.31,-2.75,12.88,11.98,2.18
9.00,0.00,268.62,3.75,-105.19,31.50,1.44,11.44,12.74,2.20
9.00,1.00,269.38,-6.50,-54.19,-0.19,6.31,1.62,12.74,2.20
9.00,2.00,286.25,-21.56,17.56,-1.19,-2.00,12.81,12.74,2.20
9.00,0.00,268.38,3.94,-105.81,31.38,0.75,10.06,13.50,2.22
9.00,1.00,269.31,-6.50,-54.19,-0.50,6.38,1.44,13.50,2.22
9.00,2.00,286.00,-21.56,17.50,-1.12,-2.25,12.56,13.50,2.22
9.00,0.00,268.25,4.00,-106.12,30.19,1.88,8.38,14.22,2.24
9.00,1.00,269.19,-6.56,-54.19,0.50,7.31,1.44,14.22,2.24
9.00,2.00,285.75,-21.62,17.44,-0.81,-2.56,13.00,14.22,2.24
9.00,0.00,268.00,4.19,-106.69,27.75,1.44,7.38,14.87,2.26
9.00,1.00,269.12,-6.62,-54.19,-0.06,6.88,1.69,14.87,2.26
9.00,2.00,285.44,-21.69,17.31,-0.06,-2.38,13.44,14.87,2.26
9.00,0.00,267.81,4.31,-107.25,27.62,-0.06,8.31,15.50,2.28
9.00,1.00,269.00,-6.69,-54.25,-0.12,7.31,1.31,15.50,2.28
9.00,2.00,285.19,-21.69,17.25,0.44,-1.69,13.62,15.50,2.28
9.00,0.00,267.56,4.44,-107.75,29.00,-1.38,9.69,16.19,2.30
9.00,1.00,268.94,-6.75,-54.25,-0.12,6.44,1.06,16.19,2.30
9.00,2.00,284.94,-21.75,17.12,-0.56,-1.50,14.44,16.19,2.30
9.00,0.00,267.38,4.62,-108.31,28.88,-2.38,9.00,16.90,2.32
9.00,1.00,268.81,-6.81,-54.25,-0.81,6.62,1.31,16.90,2.32
9.00,2.00,284.62,-21.81,17.00,-1.50,-2.50,14.62,16.90,2.32
9.00,0.00,267.25,4.75,-108.88,26.12,-3.00,6.81,17.54,2.34
9.00,1.00,268.75,-6.88,-54.25,-0.50,6.62,1.69,17.54,2.34
9.00,2.00,284.31,-21.81,16.94,-1.62,-2.38,14.62,17.54,2.34
9.00,0.00,267.19,4.81,-109.38,22.25,-2.12,4.62,18.09,2.36
9.00,1.00,268.62,-6.88,-54.25,-0.19,6.50,2.06,18.09,2.36
9.00,2.00,284.06,-21.88,16.88,-1.19,-2.44,14.06,18.09,2.36
9.00,0.00,267.06,4.88,-109.81,22.69,-2.75,4.94,18.64,2.38
9.00,1.00,268.50,-6.94,-54.31,-0.31,7.00,2.12,18.64,2.38
9.00,2.00,283.75,-21.94,16.75,-1.12,-1.81,14.94,18.64,2.38
9.00,0.00,267.00,5.00,-110.31,25.56,-5.00,9.06,19.28,2.40
9.00,1.00,268.38,-7.00,-54.31,-0.94,6.88,2.19,19.28,2.40
9.00,2.00,283.44,-21.94,16.69,-1.62,-1.94,16.06,19.28,2.40
9.00,0.00,266.94,5.12,-110.81,22.75,-5.69,7.25,19.86,2.42
9.00,1.00,268.25,-7.06,-54.31,-1.44,8.44,2.62,19.86,2.42
9.00,2.00,283.12,-22.00,16.56,-2.31,-1.62,16.44,19.86,2.42
9.00,0.00,266.88,5.19,-111.25,20.62,-4.56,6.00,20.42,2.44
9.00,1.00,268.12,-7.06,-54.31,-1.56,8.19,2.38,20.42,2.44
9.00,2.00,282.75,-22.06,16.50,-3.38,-2.38,17.75,20.42,2.44
9.00,0.00,266.81,5.25,-111.62,19.75,-2.88,6.25,20.98,2.46
9.00,1.00,268.00,-7.12,-54.25,-2.50,8.69,2.75,20.98,2.46
9.00,2.00,282.38,-22.12,16.44,-4.12,-2.25,18.81,20.98,2.46
9.00,0.00,266.69,5.38,-112.00,21.62,-3.81,8.44,21.57,2.48
9.00,1.00,267.81,-7.25,-54.25,-0.44,11.06,2.69,21.57,2.48
9.00,2.00,282.00,-22.19,16.38,-4.12,-1.88,18.69,21.57,2.48
9.00,0.00,266.56,5.50,-112.44,20.75,-4.81,9.81,22.15,2.50
9.00,1.00,267.69,-7.31,-54.25,-2.06,9.88,2.69,22.15,2.50
9.00,2.00,281.56,-22.31,16.31,-4.00,-0.81,19.25,22.15,2.50
9.00,0.00,266.44,5.69,-112.88,17.38,-3.62,8.31,22.63,2.52
9.00,1.00,267.50,-7.38,-54.25,-0.88,10.88,2.38,22.63,2.52
9.00,2.00,281.19,-22.38,16.19,-3.12,0.00,19.69,22.63,2.52
9.00,0.00,266.31,5.75,-113.19,16.38,-2.50,7.88,23.07,2.54
9.00,1.00,267.38,-7.44,-54.25,-1.00,10.75,1.38,23.07,2.54
9.00,2.00,280.81,-22.50,16.12,-2.75,0.75,20.50,23.07,2.54
9.00,0.00,266.12,5.94,-113.56,17.50,-0.06,8.12,23.60,2.56
9.00,1.00,267.25,-7.56,-54.31,-0.12,12.69,2.00,23.60,2.56
9.00,2.00,280.31,-22.69,16.00,-5.19,1.25,22.81,23.60,2.56
9.00,0.00,265.94,6.06,-113.88,17.62,-0.31,8.38,24.23,2.58
9.00,1.00,267.06,-7.69,-54.31,0.19,14.56,2.31,24.23,2.58
9.00,2.00,279.81,-22.81,16.00,-9.31,-0.50,26.00,24.23,2.58
9.00,0.00,265.75,6.19,-114.25,17.06,-1.19,9.75,24.86,2.60
9.00,1.00,266.88,-7.81,-54.38,1.25,14.31,2.44,24.86,2.60
9.00,2.00,279.25,-22.88,16.00,-10.12,-3.94,27.75,24.86,2.60
9.00,0.00,265.44,6.38,-114.56,17.06,1.38,9.25,25.41,2.62
9.00,1.00,266.62,-7.94,-54.44,1.12,14.62,2.81,25.41,2.62
9.00,2.00,278.69,-22.94,15.88,-6.44,-2.94,26.06,25.41,2.62
9.00,0.00,265.12,6.56,-114.88,16.44,4.75,6.19,25.88,2.64
9.00,1.00,266.44,-8.00,-54.50,1.31,14.44,3.38,25.88,2.64
9.00,2.00,278.19,-23.06,15.81,-3.75,-1.00,23.50,25.88,2.64
9.00,0.00,264.88,6.69,-115.19,17.94,3.94,6.12,26.39,2.66
9.00,1.00,266.25,-8.12,-54.56,0.62,15.38,3.75,26.39,2.66
9.00,2.00,277.75,-23.19,15.69,-3.81,-0.19,22.00,26.39,2.66
9.00,0.00,264.50,6.81,-115.56,19.25,2.88,8.62,26.94,2.68
9.00,1.00,266.00,-8.25,-54.62,-0.75,14.62,2.88,26.94,2.68
9.00,2.00,277.31,-23.31,15.56,-4.44,-0.88,22.31,26.94,2.68
9.00,0.00,264.25,7.00,-115.94,19.12,2.75,8.25,27.49,2.70
9.00,1.00,265.81,-8.38,-54.62,-1.88,13.69,2.69,27.49,2.70
9.00,2.00,276.88,-23.38,15.50,-4.75,-1.31,22.00,27.49,2.70
9.00,0.00,264.00,7.06,-116.19,18.25,2.81,4.50,28.01,2.72
9.00,1.00,265.62,-8.50,-54.62,-1.12,13.56,3.06,28.01,2.72
9.00,2.00,276.44,-23.50,15.44,-3.94,-0.69,21.44,28.01,2.72
9.00,0.00,263.88,7.12,-116.56,19.81,0.88,5.44,28.59,2.74
9.00,1.00,265.44,-8.56,-54.69,-0.12,14.25,2.88,28.59,2.74
9.00,2.00,276.00,-23.56,15.38,-4.94,-1.12,21.50,28.59,2.74
9.00,0.00,263.75,7.19,-116.88,18.94,-1.00,5.94,29.17,2.76
9.00,1.00,265.25,-8.69,-54.69,0.00,14.19,2.69,29.17,2.76
9.00,2.00,275.56,-23.62,15.31,-5.94,-3.00,21.56,29.17,2.76
9.00,0.00,263.62,7.25,-117.19,16.81,-1.00,3.25,29.67,2.78
9.00,1.00,265.00,-8.81,-54.69,-1.50,13.88,3.00,29.67,2.78
9.00,2.00,275.06,-23.69,15.25,-4.88,-2.81,21.81,29.67,2.78
9.00,0.00,263.56,7.25,-117.50,16.31,-0.25,2.12,30.15,2.80
9.00,1.00,264.81,-8.94,-54.69,-2.31,13.38,2.81,30.15,2.80
9.00,2.00,274.62,-23.69,15.12,-4.38,-2.75,21.44,30.15,2.80
9.00,0.00,263.44,7.31,-117.81,16.12,0.56,1.50,30.64,2.82
9.00,1.00,264.62,-9.00,-54.69,-3.12,12.25,2.69,30.64,2.82
9.00,2.00,274.19,-23.75,15.06,-4.69,-3.38,21.62,30.64,2.82
9.00,0.00,263.38,7.31,-118.06,15.25,0.00,1.38,31.08,2.84
9.00,1.00,264.44,-9.12,-54.69,-2.94,13.00,3.00,31.08,2.84
9.00,2.00,273.75,-23.75,15.00,-3.69,-4.31,21.50,31.08,2.84
9.00,0.00,263.38,7.31,-118.31,14.06,-1.12,0.81,31.48,2.86
9.00,1.00,264.25,-9.25,-54.62,-2.81,13.44,3.06,31.48,2.86
9.00,2.00,273.31,-23.81,14.88,-3.12,-4.56,21.12,31.48,2.86
9.00,0.00,263.31,7.31,-118.62,16.06,-1.62,3.00,31.90,2.88
9.00,1.00,264.06,-9.31,-54.62,-3.50,13.19,3.12,31.90,2.88
9.00,2.00,272.94,-23.81,14.75,-2.06,-4.62,20.69,31.90,2.88
9.00,0.00,263.19,7.38,-118.94,16.88,-0.62,3.81,32.35,2.90
9.00,1.00,263.88,-9.44,-54.56,-3.88,12.75,3.19,32.35,2.90
9.00,2.00,272.50,-23.81,14.62,-2.38,-4.62,20.31,32.35,2.90
9.00,0.00,263.06,7.38,-119.25,14.75,1.62,0.88,32.76,2.92
9.00,1.00,263.69,-9.56,-54.56,-3.38,14.19,2.94,32.76,2.92
9.00,2.00,272.12,-23.81,14.50,-2.81,-5.12,19.69,32.76,2.92
9.00,0.00,262.88,7.44,-119.50,14.50,2.88,-0.12,33.14,2.94
9.00,1.00,263.50,-9.62,-54.50,-4.50,12.19,3.38,33.14,2.94
9.00,2.00,271.69,-23.81,14.38,-1.88,-4.56,18.88,33.14,2.94
9.00,0.00,262.69,7.50,-119.75,15.44,4.56,1.25,33.56,2.96
9.00,1.00,263.25,-9.69,-54.50,-4.31,12.06,3.44,33.56,2.96
9.00,2.00,271.31,-23.81,14.31,-2.50,-4.81,18.94,33.56,2.96
9.00,0.00,262.38,7.56,-120.06,16.81,4.31,3.06,34.00,2.98
9.00,1.00,263.06,-9.75,-54.44,-4.31,11.38,3.62,34.00,2.98
9.00,2.00,270.94,-23.81,14.19,-2.38,-4.75,19.00,34.00,2.98
9.00,0.00,262.12,7.69,-120.38,19.19,3.56,4.88,34.52,3.00
9.00,1.00,262.88,-9.88,-54.38,-3.62,12.44,3.44,34.52,3.00
9.00,2.00,270.56,-23.75,14.06,-3.19,-6.31,19.00,34.52,3.00
9.00,0.00,261.81,7.75,-120.69,18.31,4.56,3.50,34.99,3.02
9.00,1.00,262.69,-9.94,-54.38,-3.75,10.69,3.31,34.99,3.02
9.00,2.00,270.19,-23.69,14.06,-1.69,-5.94,17.81,34.99,3.02
9.00,0.00,261.56,7.81,-121.00,16.19,5.06,1.06,35.36,3.04
9.00,1.00,262.56,-10.00,-54.38,-3.12,10.25,2.81,35.36,3.04
9.00,2.00,269.88,-23.69,13.94,0.31,-4.25,16.06,35.36,3.04
9.00,0.00,261.38,7.81,-121.25,15.44,3.81,0.50,35.71,3.06
9.00,1.00,262.38,-10.06,-54.31,-3.00,9.25,2.81,35.71,3.06
9.00,2.00,269.56,-23.69,13.88,0.19,-4.12,15.25,35.71,3.06
9.00,0.00,261.19,7.88,-121.44,14.50,4.25,-0.19,36.04,3.08
9.00,1.00,262.25,-10.12,-54.31,-2.38,9.56,2.19,36.04,3.08
9.00,2.00,269.25,-23.62,13.75,0.38,-4.56,14.62,36.04,3.08
9.00,0.00,261.06,7.88,-121.62,11.62,5.06,-2.69,36.30,3.10
9.00,1.00,262.12,-10.19,-54.25,-3.12,8.06,2.25,36.30,3.10
9.00,2.00,269.00,-23.62,13.62,0.62,-3.69,14.25,36.30,3.10
9.00,0.00,260.94,7.81,-121.81,11.94,3.06,-2.38,36.59,3.12
9.00,1.00,262.00,-10.25,-54.25,-3.56,8.81,2.06,36.59,3.12
9.00,2.00,268.69,-23.62,13.50,-0.69,-4.19,14.44,36.59,3.12
9.00,0.00,260.81,7.88,-122.06,15.25,-0.38,1.50,36.97,3.14
9.00,1.00,261.88,-10.38,-54.19,-3.25,9.12,1.25,36.97,3.14
9.00,2.00,268.44,-23.56,13.44,-0.88,-4.06,14.94,36.97,3.14
9.00,0.00,260.69,7.88,-122.38,14.69,-0.19,2.12,37.34,3.16
9.00,1.00,261.75,-10.44,-54.19,-3.06,9.38,1.19,37.34,3.16
9.00,2.00,268.12,-23.56,13.31,-1.12,-3.75,14.50,37.34,3.16
9.00,0.00,260.62,7.88,-122.62,13.00,0.25,0.88,37.67,3.18
9.00,1.00,261.62,-10.50,-54.12,-3.62,9.44,1.25,37.67,3.18
9.00,2.00,267.81,-23.56,13.25,-1.44,-3.00,14.25,37.67,3.18
9.00,0.00,260.50,7.94,-122.81,10.25,2.06,-0.56,37.95,3.20
9.00,1.00,261.44,-10.62,-54.12,-3.19,10.88,1.06,37.95,3.20
9.00,2.00,267.56,-23.56,13.19,-1.75,-2.38,13.50,37.95,3.20
9.00,0.00,260.44,7.94,-122.94,7.81,2.62,-2.50,38.16,3.22
9.00,1.00,261.31,-10.75,-54.06,-3.94,10.12,0.94,38.16,3.22
9.00,2.00,267.31,-23.56,13.12,-0.94,-2.38,12.75,38.16,3.22
9.00,0.00,260.31,7.88,-123.12,9.88,1.69,-1.00,38.40,3.24
9.00,1.00,261.19,-10.81,-54.00,-3.44,9.81,1.00,38.40,3.24
9.00,2.00,267.06,-23.56,13.06,-0.50,-2.19,12.62,38.40,3.24
9.00,0.00,260.25,7.94,-123.25,10.62,2.19,0.69,38.66,3.26
9.00,1.00,261.06,-10.94,-54.00,-3.12,9.56,1.25,38.66,3.26
9.00,2.00,266.81,-23.56,12.94,-0.81,-2.56,13.00,38.66,3.26
9.00,0.00,260.06,7.94,-123.38,8.50,3.25,-0.75,38.90,3.28
9.00,1.00,260.94,-11.00,-53.94,-2.19,10.44,1.69,38.90,3.28
9.00,2.00,266.56,-23.56,12.88,-1.62,-2.56,12.50,38.90,3.28
9.00,0.00,259.94,7.94,-123.50,6.19,3.94,-2.19,39.07,3.30
9.00,1.00,260.81,-11.12,-53.94,-2.50,9.12,2.25,39.07,3.30
9.00,2.00,266.31,-23.56,12.81,-1.00,-3.12,12.25,39.07,3.30
9.00,0.00,259.81,7.94,-123.56,7.75,3.38,-1.44,39.24,3.32
9.00,1.00,260.69,-11.19,-53.94,-1.94,8.56,2.69,39.24,3.32
9.00,2.00,266.06,-23.56,12.75,0.19,-2.56,12.00,39.24,3.32
9.00,0.00,259.69,7.94,-123.75,9.94,2.06,0.94,39.48,3.34
9.00,1.00,260.56,-11.25,-53.94,-1.69,8.50,3.00,39.48,3.34
9.00,2.00,265.81,-23.56,12.62,-0.38,-3.00,11.94,39.48,3.34
9.00,0.00,259.56,8.00,-123.88,8.81,3.00,-0.12,39.69,3.36
9.00,1.00,260.38,-11.25,-53.94,-1.56,7.75,3.00,39.69,3.36
9.00,2.00,265.62,-23.50,12.56,-0.06,-3.81,12.31,39.69,3.36
9.00,0.00,259.50,8.00,-123.94,5.19,3.62,-2.62,39.81,3.38
9.00,1.00,260.25,-11.31,-53.94,-1.81,7.44,2.94,39.81,3.38
9.00,2.00,265.38,-23.50,12.44,0.12,-3.00,12.38,39.81,3.38
9.00,0.00,259.38,8.00,-124.00,5.38,3.62,-2.56,39.95,3.40
9.00,1.00,260.12,-11.38,-53.94,-2.31,8.38,2.88,39.95,3.40
9.00,2.00,265.12,-23.50,12.38,-0.62,-2.50,11.88,39.95,3.40
9.00,0.00,259.19,8.00,-124.12,7.00,3.62,0.88,40.15,3.42
9.00,1.00,260.06,-11.38,-53.94,-2.62,8.50,2.94,40.15,3.42
9.00,2.00,264.88,-23.50,12.31,-1.62,-3.31,12.19,40.15,3.42
9.00,0.00,259.00,8.06,-124.25,7.19,4.31,1.12,40.35,3.44
9.00,1.00,259.81,-11.44,-53.88,-2.69,8.81,3.06,40.35,3.44
9.00,2.00,264.62,-23.50,12.25,-1.69,-2.38,11.62,40.35,3.44
9.00,0.00,258.75,8.12,-124.31,5.19,5.56,-0.31,40.55,3.46
9.00,1.00,259.75,-11.50,-53.88,-4.00,8.69,2.38,40.55,3.46
9.00,2.00,264.38,-23.44,12.19,-3.12,-2.44,11.38,40.55,3.46
9.00,0.00,258.62,8.19,-124.38,4.12,5.50,-1.44,40.74,3.48
9.00,1.00,259.62,-11.56,-53.81,-4.31,8.31,2.38,40.74,3.48
9.00,2.00,264.19,-23.44,12.19,-4.31,-1.94,11.12,40.74,3.48
9.00,0.00,258.50,8.19,-124.38,4.25,3.69,0.00,40.95,3.50
9.00,1.00,259.50,-11.62,-53.75,-4.81,8.25,1.50,40.95,3.50
9.00,2.00,263.94,-23.50,12.19,-4.38,-0.56,10.38,40.95,3.50
9.00,0.00,258.38,8.19,-124.44,4.62,1.50,1.44,41.17,3.52
9.00,1.00,259.38,-11.69,-53.69,-5.50,9.19,0.31,41.17,3.52
9.00,2.00,263.75,-23.50,12.19,-4.94,1.00,9.81,41.17,3.52
9.00,0.00,258.31,8.25,-124.56,4.38,0.75,0.69,41.39,3.54
9.00,1.00,259.25,-11.81,-53.62,-6.62,8.19,-0.19,41.39,3.54
9.00,2.00,263.50,-23.56,12.25,-5.06,1.25,9.88,41.39,3.54
9.00,0.00,258.31,8.25,-124.62,5.62,-0.75,0.00,41.62,3.56
9.00,1.00,259.19,-11.88,-53.50,-6.50,8.69,-0.56,41.62,3.56
9.00,2.00,263.31,-23.62,12.31,-4.44,2.06,9.44,41.62,3.56
9.00,0.00,258.31,8.19,-124.75,4.31,-0.69,-0.06,41.84,3.58
9.00,1.00,259.06,-12.00,-53.44,-5.31,10.00,-0.19,41.84,3.58
9.00,2.00,263.12,-23.69,12.31,-4.88,2.19,8.75,41.84,3.58
9.00,0.00,258.38,8.19,-124.75,0.56,-0.19,-3.06,41.98,3.60
9.00,1.00,258.94,-12.12,-53.31,-7.12,8.56,-0.38,41.98,3.60
9.00,2.00,263.00,-23.75,12.38,-5.44,2.25,7.44,41.98,3.60
9.00,0.00,258.50,8.12,-124.75,0.38,-2.81,-2.69,42.10,3.62
9.00,1.00,258.88,-12.19,-53.25,-6.75,7.75,-1.25,42.10,3.62
9.00,2.00,262.81,-23.81,12.50,-4.81,2.62,6.56,42.10,3.62
9.00,0.00,258.62,8.06,-124.81,3.44,-4.50,-0.38,42.28,3.64
9.00,1.00,258.81,-12.31,-53.12,-7.75,6.31,-1.38,42.28,3.64
9.00,2.00,262.69,-23.81,12.56,-4.62,3.38,6.12,42.28,3.64
9.00,0.00,258.81,8.00,-124.94,6.38,-6.25,1.62,42.53,3.66
9.00,1.00,258.75,-12.44,-53.00,-7.38,6.31,-1.62,42.53,3.66
9.00,2.00,262.62,-23.94,12.62,-4.25,3.25,5.31,42.53,3.66
9.00,0.00,258.94,7.94,-125.06,4.50,-4.38,0.06,42.72,3.68
9.00,1.00,258.69,-12.50,-52.88,-7.00,5.25,-1.94,42.72,3.68
9.00,2.00,262.50,-23.94,12.69,-3.75,2.62,4.62,42.72,3.68
9.00,0.00,259.06,7.88,-125.06,0.69,-2.75,-2.50,42.81,3.70
9.00,1.00,258.69,-12.62,-52.75,-5.75,6.75,-2.75,42.81,3.70
9.00,2.00,262.44,-24.00,12.75,-3.19,3.00,3.62,42.81,3.70
9.00,0.00,259.19,7.81,-125.12,1.38,-2.62,-1.50,42.93,3.72
9.00,1.00,258.69,-12.75,-52.62,-6.44,5.88,-2.44,42.93,3.72
9.00,2.00,262.31,-24.06,12.75,-3.50,2.62,3.69,42.93,3.72
9.00,0.00,259.25,7.81,-125.12,2.94,-2.12,0.38,43.09,3.74
9.00,1.00,258.62,-12.81,-52.50,-6.62,5.38,-2.69,43.09,3.74
9.00,2.00,262.25,-24.12,12.81,-3.88,2.31,3.50,43.09,3.74
9.00,0.00,259.31,7.81,-125.25,5.12,-2.62,1.81,43.29,3.76
9.00,1.00,258.62,-12.94,-52.44,-6.00,6.00,-3.19,43.29,3.76
9.00,2.00,262.19,-24.19,12.88,-3.56,2.44,2.88,43.29,3.76
9.00,0.00,259.25,7.81,-125.31,2.69,0.56,-0.06,43.43,3.78
9.00,1.00,258.62,-13.06,-52.31,-7.69,3.56,-3.19,43.43,3.78
9.00,2.00,262.12,-24.25,12.94,-3.50,2.75,2.31,43.43,3.78
9.00,0.00,259.25,7.81,-125.31,0.44,0.88,-1.88,43.53,3.80
9.00,1.00,258.62,-13.12,-52.12,-6.62,4.00,-3.44,43.53,3.80
9.00,2.00,262.12,-24.25,13.06,-3.56,2.75,2.00,43.53,3.80
9.00,0.00,259.25,7.81,-125.31,1.06,0.38,-0.50,43.64,3.82
9.00,1.00,258.62,-13.25,-52.00,-6.31,3.88,-3.50,43.64,3.82
9.00,2.00,262.06,-24.31,13.12,-4.06,2.81,1.81,43.64,3.82
9.00,0.00,259.25,7.81,-125.38,1.88,0.38,-0.12,43.79,3.84
9.00,1.00,258.62,-13.38,-51.94,-5.81,3.50,-3.19,43.79,3.84
9.00,2.00,262.00,-24.38,13.25,-4.25,2.06,1.56,43.79,3.84
9.00,0.00,259.25,7.75,-125.38,2.12,0.69,-0.25,43.92,3.86
9.00,1.00,258.69,-13.44,-51.81,-6.19,2.69,-3.31,43.92,3.86
9.00,2.00,262.00,-24.38,13.31,-3.62,2.19,1.06,43.92,3.86
9.00,0.00,259.19,7.81,-125.38,1.69,2.12,-0.94,44.03,3.88
9.00,1.00,258.69,-13.50,-51.69,-5.88,2.62,-3.75,44.03,3.88
9.00,2.00,262.00,-24.44,13.44,-3.06,2.06,0.88,44.03,3.88
9.00,0.00,259.12,7.81,-125.38,1.12,2.62,-0.56,44.11,3.90
9.00,1.00,258.75,-13.62,-51.56,-6.19,2.31,-3.75,44.11,3.90
9.00,2.00,262.00,-24.50,13.50,-2.06,3.31,0.19,44.11,3.90
9.00,0.00,259.06,7.81,-125.38,1.25,2.44,-0.94,44.19,3.92
9.00,1.00,258.75,-13.69,-51.50,-5.31,2.94,-4.12,44.19,3.92
9.00,2.00,262.00,-24.50,13.56,-2.50,2.75,0.06,44.19,3.92
9.00,0.00,259.00,7.81,-125.38,1.50,2.62,-1.12,44.31,3.94
9.00,1.00,258.81,-13.81,-51.38,-5.31,3.00,-3.81,44.31,3.94
9.00,2.00,261.94,-24.56,13.62,-3.31,2.56,0.06,44.31,3.94
9.00,0.00,258.88,7.81,-125.44,1.12,3.12,-1.25,44.43,3.96
9.00,1.00,258.81,-13.88,-51.25,-5.94,2.31,-3.81,44.43,3.96
9.00,2.00,261.94,-24.62,13.69,-4.06,1.88,0.31,44.43,3.96
9.00,0.00,258.81,7.88,-125.44,1.06,2.81,-1.31,44.53,3.98
9.00,1.00,258.88,-14.00,-51.12,-5.56,1.94,-4.00,44.53,3.98
9.00,2.00,261.94,-24.62,13.81,-3.38,2.31,-0.31,44.53,3.98
9.00,0.00,258.75,7.88,-125.44,1.06,2.56,-1.38,44.63,4.00
9.00,1.00,258.94,-14.06,-51.00,-5.69,2.00,-4.00,44.63,4.00
9.00,2.00,261.94,-24.69,13.88,-3.12,3.12,-0.75,44.63,4.00
9.00,0.00,258.75,7.81,-125.44,0.81,2.25,-1.94,44.73,4.02
9.00,1.00,258.94,-14.12,-50.94,-5.38,2.12,-3.81,44.73,4.02
9.00,2.00,261.94,-24.75,13.94,-3.50,3.06,-0.50,44.73,4.02
9.00,0.00,258.69,7.81,-125.44,0.62,1.44,-1.94,44.83,4.04
9.00,1.00,259.00,-14.25,-50.81,-6.06,1.62,-3.50,44.83,4.04
9.00,2.00,261.94,-24.75,14.00,-3.62,2.62,-0.12,44.83,4.04
9.00,0.00,258.75,7.81,-125.44,0.88,-0.25,-2.25,44.92,4.06
9.00,1.00,259.00,-14.31,-50.69,-4.94,3.12,-3.62,44.92,4.06
9.00,2.00,261.94,-24.81,14.12,-3.19,2.50,0.44,44.92,4.06
9.00,0.00,258.75,7.75,-125.44,1.06,-0.25,-2.31,45.02,4.08
9.00,1.00,259.06,-14.38,-50.56,-5.56,3.06,-3.31,45.02,4.08
9.00,2.00,261.94,-24.88,14.19,-3.19,2.06,0.56,45.02,4.08
9.00,0.00,258.81,7.69,-125.44,1.06,-0.25,-2.44,45.10,4.10
9.00,1.00,259.06,-14.50,-50.50,-5.12,3.56,-3.44,45.10,4.10
9.00,2.00,261.88,-24.88,14.25,-2.19,2.00,1.00,45.10,4.10
9.00,0.00,258.88,7.69,-125.44,0.56,0.69,-2.44,45.16,4.12
9.00,1.00,259.06,-14.56,-50.38,-5.12,3.62,-3.12,45.16,4.12
9.00,2.00,261.88,-24.94,14.25,-2.12,2.38,1.06,45.16,4.12
9.00,0.00,258.88,7.62,-125.44,0.31,1.06,-2.50,45.22,4.14
9.00,1.00,259.12,-14.69,-50.31,-5.50,3.50,-3.00,45.22,4.14
9.00,2.00,261.81,-25.00,14.31,-2.25,1.50,1.50,45.22,4.14
9.00,0.00,258.88,7.62,-125.44,0.12,1.31,-2.31,45.25,4.16
9.00,1.00,259.12,-14.75,-50.19,-5.50,3.31,-3.00,45.25,4.16
9.00,2.00,261.81,-25.00,14.31,-1.06,1.44,2.25,45.25,4.16
9.00,0.00,258.88,7.62,-125.44,0.44,1.44,-1.94,45.27,4.18
9.00,1.00,259.12,-14.81,-50.06,-5.12,3.56,-2.56,45.27,4.18
9.00,2.00,261.75,-25.06,14.31,-0.62,1.88,2.00,45.27,4.18
9.00,0.00,258.88,7.56,-125.38,-0.38,1.31,-2.69,45.31,4.20
9.00,1.00,259.12,-14.94,-50.00,-5.50,3.06,-2.19,45.31,4.20
9.00,2.00,261.69,-25.12,14.31,-2.25,1.12,2.88,45.31,4.20
9.00,0.00,258.94,7.50,-125.38,-0.88,0.75,-3.12,45.35,4.22
9.00,1.00,259.12,-15.00,-49.88,-4.81,4.06,-2.31,45.35,4.22
9.00,2.00,261.62,-25.12,14.38,-2.62,1.56,2.50,45.35,4.22
9.00,0.00,259.06,7.44,-125.31,-0.88,0.19,-3.56,45.40,4.24
9.00,1.00,259.12,-15.12,-49.81,-4.69,4.62,-2.38,45.40,4.24
9.00,2.00,261.62,-25.19,14.38,-3.00,2.38,1.94,45.40,4.24
9.00,0.00,259.12,7.38,-125.31,0.00,-1.19,-3.62,45.49,4.26
9.00,1.00,259.12,-15.19,-49.69,-5.62,3.50,-2.12,45.49,4.26
9.00,2.00,261.56,-25.25,14.44,-3.75,2.50,2.12,45.49,4.26
9.00,0.00,259.31,7.31,-125.31,0.06,-1.75,-3.94,45.58,4.28
9.00,1.00,259.06,-15.25,-49.62,-5.00,3.62,-1.69,45.58,4.28
9.00,2.00,261.50,-25.31,14.50,-3.81,2.38,2.44,45.58,4.28
9.00,0.00,259.44,7.19,-125.31,-0.62,-0.94,-3.75,45.66,4.30
9.00,1.00,259.06,-15.31,-49.50,-4.94,3.44,-1.75,45.66,4.30
9.00,2.00,261.44,-25.38,14.62,-4.19,3.25,2.38,45.66,4.30
9.00,0.00,259.50,7.19,-125.25,-1.56,0.00,-3.44,45.75,4.32
9.00,1.00,259.06,-15.38,-49.44,-4.94,4.25,-1.81,45.75,4.32
9.00,2.00,261.38,-25.44,14.69,-5.31,2.62,2.31,45.75,4.32
9.00,0.00,259.56,7.12,-125.19,-1.75,1.44,-3.44,45.83,4.34
9.00,1.00,259.06,-15.50,-49.38,-5.12,3.75,-1.94,45.83,4.34
9.00,2.00,261.31,-25.50,14.75,-5.00,3.44,2.44,45.83,4.34
9.00,0.00,259.56,7.06,-125.12,-2.12,1.75,-3.50,45.89,4.36
9.00,1.00,259.00,-15.56,-49.25,-5.44,4.38,-2.06,45.89,4.36
9.00,2.00,261.25,-25.56,14.88,-4.94,3.31,2.25,45.89,4.36
9.00,0.00,259.56,7.06,-125.12,-2.06,1.12,-3.06,45.95,4.38
9.00,1.00,259.00,-15.62,-49.19,-4.75,4.50,-1.94,45.95,4.38
9.00,2.00,261.19,-25.62,14.94,-4.62,3.38,2.00,45.95,4.38
9.00,0.00,259.62,7.00,-125.06,-1.94,-0.56,-2.62,46.00,4.40
9.00,1.00,259.00,-15.69,-49.06,-4.94,3.56,-1.94,46.00,4.40
9.00,2.00,261.19,-25.69,15.00,-3.94,3.62,2.19,46.00,4.40
9.00,0.00,259.75,6.94,-125.00,-2.44,-1.69,-2.88,46.06,4.42
9.00,1.00,259.00,-15.81,-49.00,-4.94,3.44,-1.88,46.06,4.42
9.00,2.00,261.12,-25.75,15.12,-4.88,3.19,2.19,46.06,4.42
9.00,0.00,259.88,6.88,-124.94,-2.38,-1.94,-2.50,46.11,4.44
9.00,1.00,259.00,-15.88,-48.94,-4.50,3.69,-2.06,46.11,4.44
9.00,2.00,261.06,-25.81,15.25,-4.69,3.25,1.38,46.11,4.44
9.00,0.00,260.06,6.81,-124.88,-1.94,-2.31,-2.75,46.16,4.46
9.00,1.00,259.00,-15.94,-48.81,-4.94,2.69,-2.31,46.16,4.46
9.00,2.00,261.06,-25.94,15.31,-3.94,3.38,0.81,46.16,4.46
9.00,0.00,260.19,6.75,-124.88,-1.44,-2.56,-2.69,46.21,4.48
9.00,1.00,259.00,-16.00,-48.75,-4.69,3.56,-2.19,46.21,4.48
9.00,2.00,261.00,-26.00,15.38,-3.62,3.38,0.69,46.21,4.48
9.00,0.00,260.31,6.69,-124.81,-0.94,-2.69,-1.75,46.26,4.50
9.00,1.00,259.00,-16.06,-48.62,-4.81,2.88,-2.44,46.26,4.50
9.00,2.00,261.00,-26.06,15.44,-3.00,3.12,0.75,46.26,4.50
9.00,0.00,260.44,6.62,-124.81,-0.31,-1.75,-1.44,46.31,4.52
9.00,1.00,259.00,-16.19,-48.56,-3.94,3.12,-2.25,46.31,4.52
9.00,2.00,261.00,-26.06,15.50,-2.81,1.94,0.44,46.31,4.52
9.00,0.00,260.44,6.62,-124.81,-0.44,-0.25,-1.88,46.33,4.54
9.00,1.00,259.00,-16.25,-48.50,-3.69,2.50,-2.19,46.33,4.54
9.00,2.00,261.00,-26.06,15.56,-1.00,0.94,-0.12,46.33,4.54
9.00,0.00,260.44,6.62,-124.75,-1.75,2.62,-2.50,46.31,4.56
9.00,1.00,259.00,-16.25,-48.44,-4.38,1.50,-2.12,46.31,4.56
9.00,2.00,261.00,-26.12,15.56,-0.88,2.31,-0.25,46.31,4.56
9.00,0.00,260.31,6.62,-124.62,-2.62,5.44,-2.56,46.31,4.58
9.00,1.00,259.00,-16.38,-48.31,-4.12,2.31,-2.81,46.31,4.58
9.00,2.00,261.00,-26.19,15.62,-2.94,2.31,0.19,46.31,4.58
9.00,0.00,260.19,6.69,-124.56,-2.56,6.00,-2.25,46.32,4.60
9.00,1.00,259.06,-16.44,-48.25,-3.94,1.44,-3.12,46.32,4.60
9.00,2.00,261.00,-26.19,15.75,-2.88,2.06,0.12,46.32,4.60
9.00,0.00,260.06,6.69,-124.50,-1.88,4.56,-2.44,46.33,4.62
9.00,1.00,259.06,-16.50,-48.19,-3.69,1.56,-3.00,46.33,4.62
9.00,2.00,261.00,-26.25,15.81,-2.38,2.81,-0.44,46.33,4.62
9.00,0.00,260.00,6.62,-124.44,-2.12,3.19,-2.88,46.36,4.64
9.00,1.00,259.12,-16.50,-48.06,-4.06,1.44,-2.50,46.36,4.64
9.00,2.00,261.00,-26.31,15.88,-3.19,3.38,-0.56,46.36,4.64
9.00,0.00,260.00,6.62,-124.44,-2.25,1.75,-2.88,46.40,4.66
9.00,1.00,259.12,-16.56,-48.00,-4.12,1.75,-2.56,46.40,4.66
9.00,2.00,261.00,-26.38,15.94,-4.12,3.56,-0.62,46.40,4.66
9.00,0.00,260.06,6.56,-124.38,-1.31,-0.31,-3.19,46.47,4.68
9.00,1.00,259.19,-16.69,-47.94,-3.06,2.94,-2.94,46.47,4.68
9.00,2.00,261.00,-26.44,16.06,-4.19,3.88,-1.00,46.47,4.68
9.00,0.00,260.19,6.50,-124.38,-0.69,-1.56,-3.69,46.55,4.70
9.00,1.00,259.19,-16.75,-47.88,-4.19,1.62,-2.50,46.55,4.70
9.00,2.00,261.00,-26.50,16.19,-4.06,3.81,-0.94,46.55,4.70
9.00,0.00,260.31,6.44,-124.38,0.19,-0.88,-3.12,46.65,4.72
9.00,1.00,259.19,-16.81,-47.81,-3.56,2.56,-2.00,46.65,4.72
9.00,2.00,261.00,-26.56,16.25,-4.31,3.38,-0.56,46.65,4.72
9.00,0.00,260.31,6.38,-124.38,0.88,-0.38,-2.38,46.76,4.74
9.00,1.00,259.19,-16.88,-47.75,-3.75,1.81,-2.38,46.76,4.74
9.00,2.00,261.00,-26.62,16.38,-3.94,2.94,-0.25,46.76,4.74
9.00,0.00,260.38,6.38,-124.38,1.56,-0.31,-1.69,46.87,4.76
9.00,1.00,259.25,-16.94,-47.62,-2.94,2.00,-2.50,46.87,4.76
9.00,2.00,261.00,-26.62,16.44,-2.94,2.75,-0.81,46.87,4.76
9.00,0.00,260.38,6.38,-124.44,2.06,-0.69,-1.19,46.97,4.78
9.00,1.00,259.25,-17.00,-47.56,-2.75,1.38,-2.44,46.97,4.78
9.00,2.00,261.00,-26.69,16.56,-2.12,2.88,-1.19,46.97,4.78
9.00,0.00,260.44,6.31,-124.50,3.50,-2.81,-1.06,47.10,4.80
9.00,1.00,259.31,-17.06,-47.50,-2.69,0.94,-2.38,47.10,4.80
9.00,2.00,261.06,-26.75,16.62,-2.38,1.94,-0.88,47.10,4.80
9.00,0.00,260.56,6.25,-124.56,4.69,-3.75,0.31,47.25,4.82
9.00,1.00,259.31,-17.12,-47.44,-1.50,1.94,-1.75,47.25,4.82
9.00,2.00,261.06,-26.75,16.69,-1.81,1.62,-1.44,47.25,4.82
9.00,0.00,260.69,6.25,-124.69,4.62,-3.94,0.19,47.39,4.84
9.00,1.00,259.38,-17.12,-47.38,-2.12,0.50,-1.69,47.39,4.84
9.00,2.00,261.12,-26.75,16.69,-1.12,1.31,-1.50,47.39,4.84
9.00,0.00,260.81,6.19,-124.75,4.62,-3.56,0.50,47.52,4.86
9.00,1.00,259.38,-17.19,-47.31,-1.56,1.50,-1.94,47.52,4.86
9.00,2.00,261.12,-26.75,16.75,-1.19,0.38,-1.38,47.52,4.86
9.00,0.00,260.81,6.19,-124.88,4.69,-1.25,0.62,47.64,4.88
9.00,1.00,259.44,-17.25,-47.25,-2.12,0.00,-1.62,47.64,4.88
9.00,2.00,261.12,-26.75,16.81,-0.25,0.56,-1.31,47.64,4.88
9.00,0.00,260.75,6.19,-124.94,4.19,1.31,0.25,47.76,4.90
9.00,1.00,259.44,-17.25,-47.25,-1.12,1.12,-1.50,47.76,4.90
9.00,2.00,261.19,-26.75,16.81,-0.88,-0.25,-1.62,47.76,4.90
9.00,0.00,260.62,6.25,-125.00,3.25,2.75,-0.44,47.86,4.92
9.00,1.00,259.44,-17.31,-47.19,-1.25,0.12,-1.44,47.86,4.92
9.00,2.00,261.19,-26.75,16.88,-1.19,0.94,-1.75,47.86,4.92
