Iteration,IMUNo,OrientationX (deg),OrientationY,OrientationZ,GyroX (20rad/sec),GyroY,GyroZ,Elbow_Pos (rad),Time (sec)
99.00,0.00,265.69,8.19,-90.38,-0.12,-0.50,-0.12,-0.02,1.02
99.00,1.00,323.75,-3.56,-56.44,-0.06,-0.25,0.00,-0.02,1.02
99.00,2.00,25.12,-18.25,14.88,0.25,0.44,0.19,-0.02,1.02
99.00,0.00,265.69,8.19,-90.38,-0.12,-0.50,-0.12,-0.02,1.02
99.00,1.00,323.75,-3.56,-56.44,-0.06,-0.25,0.00,-0.02,1.02
99.00,2.00,25.12,-18.25,14.88,0.25,0.44,0.19,-0.02,1.02
99.00,0.00,265.69,8.19,-90.38,-0.06,-0.19,0.00,-0.03,1.04
99.00,1.00,323.75,-3.56,-56.44,0.19,-0.19,0.00,-0.03,1.04
99.00,2.00,25.12,-18.25,14.81,0.19,0.50,-0.69,-0.03,1.04
99.00,0.00,265.69,8.19,-90.38,0.00,-0.19,0.06,-0.03,1.06
99.00,1.00,323.75,-3.56,-56.44,0.19,0.06,-0.06,-0.03,1.06
99.00,2.00,25.12,-18.25,14.81,0.06,0.19,-0.44,-0.03,1.06
99.00,0.00,265.69,8.19,-90.38,0.50,-0.56,-0.12,-0.01,1.08
99.00,1.00,323.75,-3.56,-56.44,-0.56,-0.12,-0.06,-0.01,1.08
99.00,2.00,25.12,-18.25,14.81,0.00,0.12,-0.06,-0.01,1.08
99.00,0.00,265.69,8.19,-90.38,-0.12,-0.69,-0.31,-0.02,1.10
99.00,1.00,323.75,-3.56,-56.44,0.00,0.06,0.25,-0.02,1.10
99.00,2.00,25.12,-18.25,14.81,0.19,0.31,-0.19,-0.02,1.10
99.00,0.00,265.69,8.19,-90.38,-0.31,-0.56,-0.38,-0.05,1.12
99.00,1.00,323.75,-3.56,-56.44,0.50,0.12,-0.12,-0.05,1.12
99.00,2.00,25.12,-18.25,14.81,0.38,0.69,-0.12,-0.05,1.12
99.00,0.00,265.69,8.19,-90.38,-0.12,-0.31,-0.25,-0.06,1.14
99.00,1.00,323.75,-3.56,-56.44,0.12,-0.12,-0.06,-0.06,1.14
99.00,2.00,25.12,-18.25,14.81,0.12,0.38,-0.12,-0.06,1.14
99.00,0.00,265.69,8.19,-90.38,0.19,0.06,0.00,-0.07,1.16
99.00,1.00,323.75,-3.56,-56.44,0.19,0.06,-0.31,-0.07,1.16
99.00,2.00,25.12,-18.25,14.81,0.50,0.19,-0.19,-0.07,1.16
99.00,0.00,265.69,8.19,-90.38,0.19,0.50,0.12,-0.09,1.18
99.00,1.00,323.75,-3.56,-56.44,0.62,0.12,-0.19,-0.09,1.18
99.00,2.00,25.12,-18.25,14.81,0.75,0.19,-0.25,-0.09,1.18
99.00,0.00,265.69,8.19,-90.38,0.00,0.00,-0.06,-0.11,1.20
99.00,1.00,323.75,-3.56,-56.44,0.56,0.25,-0.25,-0.11,1.20
99.00,2.00,25.12,-18.25,14.81,0.44,0.19,-0.31,-0.11,1.20
99.00,0.00,265.69,8.19,-90.38,0.31,-0.19,0.00,-0.10,1.22
99.00,1.00,323.75,-3.56,-56.44,0.12,-0.06,-0.12,-0.10,1.22
99.00,2.00,25.12,-18.25,14.81,0.00,0.12,0.06,-0.10,1.22
99.00,0.00,265.69,8.19,-90.38,0.06,0.19,0.00,-0.11,1.24
99.00,1.00,323.75,-3.56,-56.44,0.12,0.25,-0.06,-0.11,1.24
99.00,2.00,25.12,-18.25,14.81,0.44,0.31,0.25,-0.11,1.24
99.00,0.00,265.69,8.19,-90.38,0.06,0.50,0.19,-0.14,1.26
99.00,1.00,323.75,-3.56,-56.44,0.25,0.19,-0.25,-0.14,1.26
99.00,2.00,25.12,-18.25,14.81,0.69,0.44,0.25,-0.14,1.26
99.00,0.00,265.69,8.19,-90.38,0.19,0.81,0.38,-0.14,1.28
99.00,1.00,323.75,-3.56,-56.44,0.62,0.38,0.19,-0.14,1.28
99.00,2.00,25.12,-18.25,14.81,0.31,-0.19,0.06,-0.14,1.28
99.00,0.00,265.69,8.19,-90.38,0.12,0.75,0.31,-0.15,1.30
99.00,1.00,323.75,-3.56,-56.44,0.25,0.12,0.25,-0.15,1.30
99.00,2.00,25.12,-18.25,14.81,0.38,-0.31,0.06,-0.15,1.30
99.00,0.00,265.69,8.19,-90.31,0.19,0.75,0.19,-0.15,1.32
99.00,1.00,323.75,-3.56,-56.44,-0.25,-0.12,0.62,-0.15,1.32
99.00,2.00,25.12,-18.25,14.81,0.12,-0.25,0.12,-0.15,1.32
99.00,0.00,265.62,8.19,-90.31,-0.31,1.31,-0.06,-0.16,1.34
99.00,1.00,323.75,-3.56,-56.44,-0.19,0.19,0.56,-0.16,1.34
99.00,2.00,25.12,-18.25,14.81,-0.19,-0.25,0.44,-0.16,1.34
99.00,0.00,265.62,8.19,-90.31,0.00,1.38,0.06,-0.15,1.36
99.00,1.00,323.75,-3.56,-56.44,0.00,0.19,0.50,-0.15,1.36
99.00,2.00,25.12,-18.25,14.81,-0.19,-0.19,0.38,-0.15,1.36
99.00,0.00,265.56,8.19,-90.31,0.00,1.56,0.44,-0.14,1.38
99.00,1.00,323.75,-3.56,-56.44,-0.19,0.50,0.62,-0.14,1.38
99.00,2.00,25.12,-18.25,14.81,-0.19,0.25,0.94,-0.14,1.38
99.00,0.00,265.56,8.19,-90.31,0.31,1.69,0.81,-0.13,1.40
99.00,1.00,323.75,-3.56,-56.44,0.06,0.62,0.44,-0.13,1.40
99.00,2.00,25.12,-18.25,14.81,0.06,-0.06,0.69,-0.13,1.40
99.00,0.00,265.50,8.19,-90.31,0.56,2.44,0.94,-0.14,1.42
99.00,1.00,323.75,-3.56,-56.44,0.06,0.56,0.38,-0.14,1.42
99.00,2.00,25.12,-18.25,14.81,0.75,-0.50,0.75,-0.14,1.42
99.00,0.00,265.38,8.19,-90.31,1.25,3.25,1.19,-0.14,1.44
99.00,1.00,323.75,-3.56,-56.44,0.06,0.19,0.06,-0.14,1.44
99.00,2.00,25.06,-18.25,14.81,1.19,-0.62,0.81,-0.14,1.44
99.00,0.00,265.31,8.25,-90.38,1.81,3.44,1.56,-0.13,1.46
99.00,1.00,323.75,-3.56,-56.44,0.06,0.06,-0.25,-0.13,1.46
99.00,2.00,25.06,-18.25,14.75,1.56,-0.81,1.00,-0.13,1.46
99.00,0.00,265.12,8.31,-90.38,2.50,4.06,2.38,-0.11,1.48
99.00,1.00,323.75,-3.56,-56.44,0.00,-0.31,-0.38,-0.11,1.48
99.00,2.00,25.06,-18.25,14.69,2.12,-1.19,1.12,-0.11,1.48
99.00,0.00,265.00,8.38,-90.44,2.94,4.88,3.19,-0.10,1.50
99.00,1.00,323.75,-3.56,-56.44,0.25,0.00,-0.69,-0.10,1.50
99.00,2.00,25.06,-18.25,14.62,2.56,-0.88,1.00,-0.10,1.50
99.00,0.00,264.75,8.50,-90.50,3.88,6.12,3.81,-0.02,1.52
99.00,1.00,323.75,-3.56,-56.44,0.12,0.06,-0.62,-0.02,1.52
99.00,2.00,25.00,-18.25,14.62,2.06,-0.25,0.88,-0.02,1.52
99.00,0.00,264.50,8.56,-90.56,4.19,7.25,3.94,0.09,1.54
99.00,1.00,323.75,-3.56,-56.44,0.44,0.50,-0.50,0.09,1.54
99.00,2.00,25.00,-18.25,14.56,1.38,0.44,0.88,0.09,1.54
99.00,0.00,264.31,8.62,-90.62,4.00,7.12,4.25,0.24,1.56
99.00,1.00,323.75,-3.62,-56.50,1.38,1.12,-0.94,0.24,1.56
99.00,2.00,25.00,-18.25,14.56,0.31,-0.06,1.88,0.24,1.56
99.00,0.00,264.06,8.75,-90.69,3.56,7.25,3.75,0.37,1.58
99.00,1.00,323.75,-3.62,-56.50,0.12,0.44,-0.44,0.37,1.58
99.00,2.00,24.94,-18.25,14.56,0.44,-0.44,2.25,0.37,1.58
99.00,0.00,263.88,8.81,-90.75,3.56,6.75,3.50,0.47,1.60
99.00,1.00,323.75,-3.62,-56.50,1.00,1.62,-0.69,0.47,1.60
99.00,2.00,24.88,-18.25,14.50,0.88,-0.31,1.50,0.47,1.60
99.00,0.00,263.75,8.81,-90.75,3.81,6.12,2.88,0.60,1.62
99.00,1.00,323.75,-3.62,-56.50,-1.00,1.00,-0.12,0.60,1.62
99.00,2.00,24.88,-18.25,14.50,0.62,-0.19,1.69,0.60,1.62
99.00,0.00,263.50,8.88,-90.81,3.00,5.44,1.75,0.71,1.64
99.00,1.00,323.75,-3.69,-56.50,-0.25,1.25,0.56,0.71,1.64
99.00,2.00,24.81,-18.25,14.50,0.31,0.12,2.00,0.71,1.64
99.00,0.00,263.44,8.94,-90.88,2.62,5.06,0.75,0.83,1.66
99.00,1.00,323.69,-3.69,-56.50,0.62,2.19,0.69,0.83,1.66
99.00,2.00,24.81,-18.31,14.44,-0.38,-0.44,2.12,0.83,1.66
99.00,0.00,263.25,8.94,-90.88,2.56,4.38,0.06,0.95,1.68
99.00,1.00,323.69,-3.69,-56.50,-0.25,1.75,0.88,0.95,1.68
99.00,2.00,24.75,-18.25,14.44,-0.50,-0.94,2.50,0.95,1.68
99.00,0.00,263.19,8.94,-90.94,2.69,3.88,-0.62,1.02,1.70
99.00,1.00,323.62,-3.69,-56.50,-0.19,1.88,0.62,1.02,1.70
99.00,2.00,24.69,-18.25,14.44,0.94,-1.50,3.06,1.02,1.70
99.00,0.00,263.19,8.88,-90.94,2.56,4.00,-1.00,1.08,1.72
99.00,1.00,323.62,-3.69,-56.50,-0.06,2.12,0.31,1.08,1.72
99.00,2.00,24.62,-18.25,14.38,1.12,-1.31,3.25,1.08,1.72
99.00,0.00,263.12,8.88,-91.00,2.75,4.12,-0.81,1.14,1.74
99.00,1.00,323.62,-3.75,-56.50,0.19,1.56,0.19,1.14,1.74
99.00,2.00,24.56,-18.25,14.31,1.44,-2.12,3.38,1.14,1.74
99.00,0.00,263.00,8.88,-91.06,3.50,5.31,0.12,1.20,1.76
99.00,1.00,323.56,-3.75,-56.50,-0.31,1.50,0.00,1.20,1.76
99.00,2.00,24.50,-18.19,14.25,1.88,-2.56,3.31,1.20,1.76
99.00,0.00,262.81,8.94,-91.12,4.75,6.25,1.19,1.21,1.78
99.00,1.00,323.56,-3.75,-56.50,0.00,1.31,-1.00,1.21,1.78
99.00,2.00,24.44,-18.19,14.19,4.56,-4.44,3.12,1.21,1.78
99.00,0.00,262.62,9.00,-91.19,5.94,7.94,2.19,1.25,1.80
99.00,1.00,323.56,-3.81,-56.50,0.25,1.62,-1.94,1.25,1.80
99.00,2.00,24.38,-18.12,14.06,4.81,-4.19,3.81,1.25,1.80
99.00,0.00,262.31,9.12,-91.31,7.25,10.00,3.00,1.36,1.82
99.00,1.00,323.62,-3.88,-56.50,0.69,1.81,-2.12,1.36,1.82
99.00,2.00,24.31,-18.06,13.94,4.69,-3.81,3.94,1.36,1.82
99.00,0.00,262.00,9.25,-91.44,8.50,11.00,3.88,1.57,1.84
99.00,1.00,323.62,-3.94,-56.50,0.88,1.75,-2.06,1.57,1.84
99.00,2.00,24.25,-18.00,13.88,3.19,-2.38,4.00,1.57,1.84
99.00,0.00,261.62,9.31,-91.62,10.19,10.94,5.00,1.88,1.86
99.00,1.00,323.62,-4.00,-56.56,0.75,2.31,-1.94,1.88,1.86
99.00,2.00,24.19,-18.00,13.75,2.56,-2.00,4.00,1.88,1.86
99.00,0.00,261.31,9.44,-91.81,11.81,10.25,5.69,2.28,1.88
99.00,1.00,323.69,-4.06,-56.56,0.06,2.06,-1.50,2.28,1.88
99.00,2.00,24.06,-17.94,13.69,1.94,-2.56,4.31,2.28,1.88
99.00,0.00,260.94,9.56,-92.06,13.38,9.81,5.69,2.72,1.90
99.00,1.00,323.69,-4.06,-56.56,0.81,2.38,-1.62,2.72,1.90
99.00,2.00,24.00,-17.94,13.62,2.44,-2.44,4.44,2.72,1.90
99.00,0.00,260.56,9.69,-92.31,14.38,9.75,5.38,3.18,1.92
99.00,1.00,323.69,-4.12,-56.56,1.25,2.69,-1.88,3.18,1.92
99.00,2.00,23.94,-17.94,13.56,2.94,-2.06,4.62,3.18,1.92
99.00,0.00,260.25,9.81,-92.62,16.31,8.44,4.69,3.67,1.94
99.00,1.00,323.69,-4.19,-56.62,1.25,3.00,-1.62,3.67,1.94
99.00,2.00,23.81,-17.88,13.44,4.19,-1.94,6.12,3.67,1.94
99.00,0.00,259.94,9.88,-92.94,17.06,7.56,4.69,4.18,1.96
99.00,1.00,323.69,-4.25,-56.62,1.62,3.19,-1.31,4.18,1.96
99.00,2.00,23.69,-17.88,13.31,4.38,-2.31,6.31,4.18,1.96
99.00,0.00,259.69,9.94,-93.31,18.81,2.94,3.81,4.79,1.98
99.00,1.00,323.69,-4.31,-56.69,2.06,4.25,-0.94,4.79,1.98
99.00,2.00,23.56,-17.88,13.19,3.69,-3.94,6.25,4.79,1.98
99.00,0.00,259.56,10.00,-93.69,19.25,1.31,1.75,5.44,2.00
99.00,1.00,323.62,-4.38,-56.75,0.94,4.44,-0.44,5.44,2.00
99.00,2.00,23.50,-17.81,13.06,3.06,-4.12,6.50,5.44,2.00
99.00,0.00,259.44,10.06,-94.06,19.62,2.75,1.38,6.12,2.02
99.00,1.00,323.56,-4.44,-56.75,0.88,4.31,0.00,6.12,2.02
99.00,2.00,23.31,-17.75,12.94,2.75,-3.62,6.88,6.12,2.02
99.00,0.00,259.25,10.06,-94.44,19.75,5.19,0.19,6.81,2.04
99.00,1.00,323.56,-4.44,-56.75,1.31,4.50,-0.19,6.81,2.04
99.00,2.00,23.19,-17.75,12.88,2.56,-2.56,7.25,6.81,2.04
99.00,0.00,259.00,10.06,-94.81,20.06,7.25,0.81,7.54,2.06
99.00,1.00,323.50,-4.50,-56.81,1.12,4.44,0.25,7.54,2.06
99.00,2.00,23.06,-17.69,12.75,2.06,-2.94,7.56,7.54,2.06
99.00,0.00,258.69,10.12,-95.25,24.75,7.81,4.12,8.48,2.08
99.00,1.00,323.44,-4.56,-56.81,-0.12,3.88,0.62,8.48,2.08
99.00,2.00,22.88,-17.69,12.69,1.44,-3.25,7.56,8.48,2.08
99.00,0.00,258.38,10.25,-95.81,29.62,2.88,6.44,9.65,2.10
99.00,1.00,323.38,-4.56,-56.81,-0.12,5.00,0.62,9.65,2.10
99.00,2.00,22.75,-17.69,12.62,0.44,-2.62,7.81,9.65,2.10
99.00,0.00,258.12,10.38,-96.38,29.31,2.25,3.56,10.82,2.12
99.00,1.00,323.31,-4.62,-56.81,-0.44,5.88,0.62,10.82,2.12
99.00,2.00,22.62,-17.62,12.56,0.44,-1.62,7.88,10.82,2.12
99.00,0.00,257.94,10.38,-96.88,26.94,2.12,0.56,11.92,2.14
99.00,1.00,323.25,-4.69,-56.81,0.19,4.94,0.50,11.92,2.14
99.00,2.00,22.44,-17.69,12.50,-0.44,-0.94,9.56,11.92,2.14
99.00,0.00,257.75,10.38,-97.38,25.31,4.25,0.62,12.96,2.16
99.00,1.00,323.19,-4.75,-56.81,0.19,4.88,0.81,12.96,2.16
99.00,2.00,22.25,-17.69,12.44,-0.56,-0.75,9.44,12.96,2.16
99.00,0.00,257.56,10.44,-97.81,25.44,6.12,1.12,14.04,2.18
99.00,1.00,323.12,-4.75,-56.88,-0.56,4.38,0.62,14.04,2.18
99.00,2.00,22.06,-17.69,12.44,-1.44,-2.56,9.50,14.04,2.18
99.00,0.00,257.19,10.50,-98.38,30.25,6.19,4.88,15.30,2.20
99.00,1.00,323.06,-4.81,-56.88,-0.25,4.50,0.56,15.30,2.20
99.00,2.00,21.88,-17.69,12.38,-0.81,-2.62,8.88,15.30,2.20
99.00,0.00,256.81,10.62,-99.00,31.69,5.75,5.62,16.61,2.22
99.00,1.00,323.06,-4.81,-56.88,0.00,5.31,0.25,16.61,2.22
99.00,2.00,21.69,-17.69,12.31,-1.00,-1.88,8.44,16.61,2.22
99.00,0.00,256.50,10.75,-99.50,29.06,5.94,2.12,17.86,2.24
99.00,1.00,322.94,-4.94,-56.88,0.12,5.44,0.19,17.86,2.24
99.00,2.00,21.50,-17.69,12.31,-1.88,-0.62,7.12,17.86,2.24
99.00,0.00,256.19,10.81,-100.06,28.56,8.00,1.94,19.10,2.26
99.00,1.00,322.94,-4.94,-56.88,-0.44,4.50,0.00,19.10,2.26
99.00,2.00,21.38,-17.69,12.31,-2.25,-0.62,7.19,19.10,2.26
99.00,0.00,255.81,10.88,-100.62,31.12,7.88,3.75,20.44,2.28
99.00,1.00,322.88,-5.00,-56.88,-0.38,4.06,-0.12,20.44,2.28
99.00,2.00,21.25,-17.75,12.31,-2.00,-1.06,8.81,20.44,2.28
99.00,0.00,255.38,11.00,-101.25,34.31,6.06,5.88,21.89,2.30
99.00,1.00,322.81,-5.06,-56.88,-0.56,4.12,-0.25,21.89,2.30
99.00,2.00,21.06,-17.75,12.31,-1.69,-0.62,10.31,21.89,2.30
99.00,0.00,255.00,11.12,-101.88,33.38,6.00,4.69,23.31,2.32
99.00,1.00,322.81,-5.06,-56.88,-0.25,4.06,0.19,23.31,2.32
99.00,2.00,20.81,-17.81,12.25,-1.81,0.06,10.50,23.31,2.32
99.00,0.00,254.62,11.25,-102.50,32.69,6.94,4.06,24.72,2.34
99.00,1.00,322.75,-5.19,-56.88,0.44,5.06,0.50,24.72,2.34
99.00,2.00,20.62,-17.81,12.25,-2.31,-1.69,10.38,24.72,2.34
99.00,0.00,254.19,11.38,-103.12,32.69,6.88,4.69,26.09,2.36
99.00,1.00,322.69,-5.19,-56.88,-0.31,3.81,0.31,26.09,2.36
99.00,2.00,20.38,-17.81,12.25,-1.44,-2.06,10.00,26.09,2.36
99.00,0.00,253.75,11.50,-103.75,33.25,6.56,4.94,27.35,2.38
99.00,1.00,322.62,-5.25,-56.94,-0.19,4.00,0.69,27.35,2.38
99.00,2.00,20.25,-17.81,12.19,2.06,-1.25,8.88,27.35,2.38
99.00,0.00,253.31,11.62,-104.38,33.50,6.56,5.75,28.60,2.40
99.00,1.00,322.56,-5.31,-56.94,0.69,5.00,1.06,28.60,2.40
99.00,2.00,20.06,-17.88,12.06,2.44,-0.75,8.62,28.60,2.40
99.00,0.00,252.81,11.81,-105.00,33.44,6.12,6.75,29.93,2.42
99.00,1.00,322.50,-5.31,-56.94,0.75,5.50,1.44,29.93,2.42
99.00,2.00,19.88,-17.88,12.00,0.31,-2.06,10.00,29.93,2.42
99.00,0.00,252.38,11.94,-105.56,31.50,7.50,6.25,31.19,2.44
99.00,1.00,322.38,-5.38,-57.00,0.94,4.56,1.38,31.19,2.44
99.00,2.00,19.69,-17.88,11.94,0.44,-3.25,10.56,31.19,2.44
99.00,0.00,251.81,12.12,-106.12,32.25,9.19,7.06,32.46,2.46
99.00,1.00,322.38,-5.38,-57.00,-0.12,4.31,1.19,32.46,2.46
99.00,2.00,19.50,-17.81,11.88,0.56,-3.31,10.12,32.46,2.46
99.00,0.00,251.12,12.38,-106.75,32.94,12.12,9.25,33.73,2.48
99.00,1.00,322.31,-5.38,-57.00,-0.06,3.81,1.50,33.73,2.48
99.00,2.00,19.31,-17.81,11.81,1.56,-4.06,9.12,33.73,2.48
99.00,0.00,250.38,12.69,-107.31,32.31,13.31,10.06,34.91,2.50
99.00,1.00,322.19,-5.44,-57.00,1.12,5.25,1.44,34.91,2.50
99.00,2.00,19.12,-17.75,11.69,2.81,-5.06,8.12,34.91,2.50
99.00,0.00,249.62,12.94,-107.88,31.56,14.94,10.44,36.03,2.52
99.00,1.00,322.12,-5.44,-57.06,1.69,5.62,1.50,36.03,2.52
99.00,2.00,18.94,-17.69,11.56,4.00,-4.62,8.12,36.03,2.52
99.00,0.00,248.88,13.25,-108.38,30.31,14.25,10.00,37.12,2.54
99.00,1.00,322.00,-5.50,-57.06,0.75,5.12,2.12,37.12,2.54
99.00,2.00,18.81,-17.62,11.44,3.12,-5.56,9.38,37.12,2.54
99.00,0.00,248.12,13.50,-108.94,31.25,12.38,10.56,38.26,2.56
99.00,1.00,321.94,-5.50,-57.12,0.88,4.50,2.19,38.26,2.56
99.00,2.00,18.62,-17.56,11.38,2.88,-6.00,9.44,38.26,2.56
99.00,0.00,247.38,13.75,-109.50,31.50,11.81,11.62,39.33,2.58
99.00,1.00,321.81,-5.50,-57.12,1.25,5.62,1.75,39.33,2.58
99.00,2.00,18.44,-17.50,11.25,5.06,-6.19,9.25,39.33,2.58
99.00,0.00,246.62,14.06,-110.06,30.88,10.81,11.44,40.36,2.60
99.00,1.00,321.75,-5.56,-57.19,1.31,5.38,1.50,40.36,2.60
99.00,2.00,18.25,-17.44,11.06,5.38,-5.75,9.56,40.36,2.60
99.00,0.00,245.88,14.38,-110.69,31.31,10.38,12.62,41.42,2.62
99.00,1.00,321.69,-5.56,-57.19,1.69,5.88,1.69,41.42,2.62
99.00,2.00,18.06,-17.31,10.94,4.81,-5.94,9.69,41.42,2.62
99.00,0.00,245.12,14.69,-111.25,31.19,10.81,14.25,42.50,2.64
99.00,1.00,321.56,-5.62,-57.25,1.56,5.25,1.62,42.50,2.64
99.00,2.00,17.88,-17.25,10.75,4.44,-6.62,9.44,42.50,2.64
99.00,0.00,244.31,15.00,-111.81,30.81,9.50,14.38,43.55,2.66
99.00,1.00,321.50,-5.62,-57.25,0.88,4.56,1.94,43.55,2.66
99.00,2.00,17.69,-17.19,10.62,4.75,-6.38,9.94,43.55,2.66
99.00,0.00,243.56,15.31,-112.44,31.44,8.50,14.94,44.64,2.68
99.00,1.00,321.44,-5.62,-57.31,1.19,4.81,1.62,44.64,2.68
99.00,2.00,17.50,-17.06,10.50,4.56,-5.88,10.06,44.64,2.68
99.00,0.00,242.81,15.69,-113.06,32.38,6.56,15.81,45.76,2.70
99.00,1.00,321.31,-5.69,-57.31,0.62,4.19,1.56,45.76,2.70
99.00,2.00,17.31,-17.00,10.31,4.38,-4.81,10.38,45.76,2.70
99.00,0.00,242.00,16.00,-113.69,33.75,5.62,16.88,46.94,2.72
99.00,1.00,321.25,-5.69,-57.38,2.31,5.88,1.31,46.94,2.72
99.00,2.00,17.12,-16.94,10.19,4.62,-4.94,10.81,46.94,2.72
99.00,0.00,241.19,16.38,-114.38,35.31,5.94,18.06,48.15,2.74
99.00,1.00,321.19,-5.75,-57.44,1.62,5.00,1.75,48.15,2.74
99.00,2.00,16.94,-16.88,10.00,5.19,-5.38,10.50,48.15,2.74
99.00,0.00,240.38,16.75,-115.06,34.31,6.12,17.25,49.33,2.76
99.00,1.00,321.06,-5.75,-57.50,2.38,6.75,2.06,49.33,2.76
99.00,2.00,16.69,-16.81,9.88,5.00,-5.56,10.56,49.33,2.76
99.00,0.00,239.56,17.06,-115.75,33.69,4.50,16.81,50.51,2.78
99.00,1.00,320.94,-5.81,-57.50,1.56,5.88,2.00,50.51,2.78
99.00,2.00,16.50,-16.75,9.69,4.50,-5.38,11.06,50.51,2.78
99.00,0.00,238.75,17.44,-116.44,34.56,3.94,17.75,51.73,2.80
99.00,1.00,320.88,-5.81,-57.56,1.31,4.94,1.69,51.73,2.80
99.00,2.00,16.31,-16.69,9.56,4.31,-5.38,11.38,51.73,2.80
99.00,0.00,237.94,17.75,-117.12,35.06,3.06,18.12,52.95,2.82
99.00,1.00,320.81,-5.81,-57.56,1.19,3.94,1.62,52.95,2.82
99.00,2.00,16.06,-16.62,9.38,4.75,-5.44,11.50,52.95,2.82
99.00,0.00,237.19,18.06,-117.81,33.81,2.44,16.06,54.14,2.84
99.00,1.00,320.69,-5.88,-57.62,1.81,5.56,1.81,54.14,2.84
99.00,2.00,15.88,-16.56,9.25,4.31,-5.62,11.00,54.14,2.84
99.00,0.00,236.50,18.31,-118.50,33.06,1.88,15.62,55.29,2.86
99.00,1.00,320.62,-5.88,-57.69,1.31,4.94,1.81,55.29,2.86
99.00,2.00,15.69,-16.50,9.06,4.44,-5.19,11.31,55.29,2.86
99.00,0.00,235.75,18.62,-119.19,33.19,2.06,16.62,56.44,2.88
99.00,1.00,320.50,-5.88,-57.69,1.00,5.25,2.12,56.44,2.88
99.00,2.00,15.44,-16.44,8.94,4.69,-4.31,12.00,56.44,2.88
99.00,0.00,235.06,18.88,-119.75,30.81,2.12,14.94,57.54,2.90
99.00,1.00,320.44,-5.94,-57.75,1.81,5.44,1.75,57.54,2.90
99.00,2.00,15.25,-16.38,8.81,3.50,-3.75,11.44,57.54,2.90
99.00,0.00,234.38,19.12,-120.38,31.06,2.56,14.69,58.68,2.92
99.00,1.00,320.31,-5.94,-57.75,0.56,5.69,2.12,58.68,2.92
99.00,2.00,15.00,-16.31,8.62,2.69,-3.75,12.06,58.68,2.92
99.00,0.00,233.62,19.44,-121.00,30.31,2.88,15.38,59.89,2.94
99.00,1.00,320.25,-6.00,-57.81,0.75,6.38,2.12,59.89,2.94
99.00,2.00,14.75,-16.31,8.56,0.38,-2.62,12.50,59.89,2.94
99.00,0.00,232.88,19.69,-121.56,28.56,3.44,14.00,61.07,2.96
99.00,1.00,320.12,-6.00,-57.81,-0.44,6.06,2.62,61.07,2.96
99.00,2.00,14.50,-16.25,8.50,-0.69,-2.62,12.81,61.07,2.96
99.00,0.00,232.12,19.94,-122.12,28.56,3.56,13.38,62.28,2.98
99.00,1.00,320.00,-6.06,-57.88,1.31,8.00,2.19,62.28,2.98
99.00,2.00,14.25,-16.25,8.44,-1.56,-3.06,12.69,62.28,2.98
99.00,0.00,231.44,20.19,-122.69,26.50,3.56,12.56,63.41,3.00
99.00,1.00,319.88,-6.06,-57.88,-0.12,6.88,2.50,63.41,3.00
99.00,2.00,14.00,-16.25,8.38,-1.56,-2.75,12.19,63.41,3.00
99.00,0.00,230.88,20.38,-123.12,25.19,1.94,11.50,64.51,3.02
99.00,1.00,319.75,-6.12,-57.88,-0.38,7.19,2.75,64.51,3.02
99.00,2.00,13.75,-16.25,8.38,-2.12,-2.81,11.75,64.51,3.02
99.00,0.00,230.31,20.56,-123.62,24.25,1.75,11.31,65.55,3.04
99.00,1.00,319.62,-6.12,-57.88,0.31,6.94,2.75,65.55,3.04
99.00,2.00,13.50,-16.19,8.38,-1.56,-3.56,11.31,65.55,3.04
99.00,0.00,229.81,20.69,-124.06,23.44,1.50,10.56,66.50,3.06
99.00,1.00,319.50,-6.12,-57.88,-0.06,5.44,2.62,66.50,3.06
99.00,2.00,13.31,-16.19,8.38,0.06,-2.50,10.81,66.50,3.06
99.00,0.00,229.19,20.88,-124.50,24.56,1.88,11.12,67.49,3.08
99.00,1.00,319.38,-6.12,-57.94,-0.56,5.75,3.06,67.49,3.08
99.00,2.00,13.12,-16.12,8.31,-0.06,-2.00,9.62,67.49,3.08
99.00,0.00,228.56,21.06,-125.00,23.31,3.06,10.88,68.49,3.10
99.00,1.00,319.25,-6.19,-57.94,0.12,6.06,3.00,68.49,3.10
99.00,2.00,12.94,-16.12,8.25,-1.56,-3.25,9.31,68.49,3.10
99.00,0.00,228.00,21.25,-125.38,21.19,3.00,8.50,69.39,3.12
99.00,1.00,319.12,-6.19,-57.94,-0.31,4.56,2.81,69.39,3.12
99.00,2.00,12.75,-16.06,8.25,-1.25,-3.31,9.25,69.39,3.12
99.00,0.00,227.56,21.38,-125.81,20.19,0.81,6.62,70.15,3.14
99.00,1.00,319.06,-6.19,-57.94,0.06,4.50,2.44,70.15,3.14
99.00,2.00,12.56,-16.06,8.25,1.50,-1.62,7.56,70.15,3.14
99.00,0.00,227.06,21.50,-126.25,23.06,0.19,8.69,71.02,3.16
99.00,1.00,318.94,-6.19,-58.00,0.94,5.38,2.56,71.02,3.16
99.00,2.00,12.44,-16.06,8.19,1.31,-1.44,7.81,71.02,3.16
99.00,0.00,226.44,21.62,-126.75,24.81,0.94,11.00,72.01,3.18
99.00,1.00,318.81,-6.19,-58.00,0.00,4.88,3.44,72.01,3.18
99.00,2.00,12.25,-16.00,8.12,0.25,-2.56,7.94,72.01,3.18
99.00,0.00,225.75,21.88,-127.31,24.56,3.44,11.69,72.99,3.20
99.00,1.00,318.69,-6.19,-58.00,0.06,4.38,3.62,72.99,3.20
99.00,2.00,12.12,-15.94,8.06,0.38,-4.56,7.88,72.99,3.20
99.00,0.00,225.00,22.06,-127.75,22.25,4.88,9.50,73.84,3.22
99.00,1.00,318.62,-6.19,-58.00,0.88,3.12,3.00,73.84,3.22
99.00,2.00,11.94,-15.88,8.06,1.06,-4.56,7.25,73.84,3.22
99.00,0.00,224.31,22.25,-128.12,20.62,5.00,7.50,74.54,3.24
99.00,1.00,318.50,-6.12,-58.00,-0.12,1.25,2.88,74.54,3.24
99.00,2.00,11.81,-15.81,8.00,3.25,-4.00,7.19,74.54,3.24
99.00,0.00,223.69,22.38,-128.56,20.88,3.38,7.31,75.25,3.26
99.00,1.00,318.44,-6.12,-58.06,1.00,1.94,2.50,75.25,3.26
99.00,2.00,11.69,-15.75,7.88,3.19,-4.06,7.31,75.25,3.26
99.00,0.00,223.06,22.56,-129.00,21.69,2.62,8.38,76.03,3.28
99.00,1.00,318.38,-6.06,-58.06,1.44,2.81,2.81,76.03,3.28
99.00,2.00,11.56,-15.69,7.81,2.31,-4.69,7.94,76.03,3.28
99.00,0.00,222.44,22.75,-129.44,21.38,2.94,9.19,76.77,3.30
99.00,1.00,318.31,-6.06,-58.12,1.88,3.19,2.81,76.77,3.30
99.00,2.00,11.38,-15.62,7.69,3.12,-3.62,8.06,76.77,3.30
99.00,0.00,222.12,22.81,-129.69,19.75,2.62,8.06,77.46,3.32
99.00,1.00,318.19,-6.06,-58.19,1.00,3.00,2.94,77.46,3.32
99.00,2.00,11.25,-15.56,7.56,2.56,-3.00,8.19,77.46,3.32
99.00,0.00,221.50,23.00,-130.06,22.50,2.69,10.44,78.33,3.34
99.00,1.00,318.12,-6.00,-58.19,0.44,2.81,3.69,78.33,3.34
99.00,2.00,11.06,-15.56,7.50,0.88,-4.31,9.44,78.33,3.34
99.00,0.00,220.69,23.19,-130.56,21.56,6.19,12.25,79.15,3.36
99.00,1.00,318.00,-6.00,-58.19,1.00,4.12,3.56,79.15,3.36
99.00,2.00,10.88,-15.50,7.44,1.31,-4.44,9.38,79.15,3.36
99.00,0.00,219.88,23.44,-131.00,20.12,6.25,10.38,79.88,3.38
99.00,1.00,317.88,-6.00,-58.25,1.06,4.12,3.62,79.88,3.38
99.00,2.00,10.69,-15.44,7.38,1.94,-3.56,8.69,79.88,3.38
99.00,0.00,219.06,23.69,-131.38,18.06,6.88,8.50,80.52,3.40
99.00,1.00,317.75,-6.00,-58.25,1.88,4.62,3.25,80.52,3.40
99.00,2.00,10.56,-15.38,7.25,2.38,-4.31,9.00,80.52,3.40
99.00,0.00,218.31,23.88,-131.69,17.81,6.25,7.75,81.12,3.42
99.00,1.00,317.69,-6.00,-58.31,1.81,4.19,3.12,81.12,3.42
99.00,2.00,10.38,-15.31,7.19,2.81,-3.94,9.44,81.12,3.42
99.00,0.00,217.62,24.06,-132.06,19.81,5.00,9.94,81.76,3.44
99.00,1.00,317.56,-6.00,-58.38,2.50,5.56,3.25,81.76,3.44
99.00,2.00,10.19,-15.25,7.06,3.81,-3.88,8.81,81.76,3.44
99.00,0.00,216.81,24.31,-132.50,18.38,5.00,10.31,82.37,3.46
99.00,1.00,317.44,-5.94,-58.44,1.50,4.81,3.69,82.37,3.46
99.00,2.00,10.06,-15.19,6.94,3.25,-4.31,8.75,82.37,3.46
99.00,0.00,216.12,24.50,-132.88,17.25,4.38,9.25,82.99,3.48
99.00,1.00,317.31,-5.94,-58.44,1.75,5.12,3.69,82.99,3.48
99.00,2.00,9.88,-15.12,6.88,1.88,-4.44,9.56,82.99,3.48
99.00,0.00,215.50,24.62,-133.19,15.56,2.06,7.31,83.51,3.50
99.00,1.00,317.19,-5.94,-58.50,1.69,4.75,3.25,83.51,3.50
99.00,2.00,9.62,-15.06,6.75,2.62,-3.12,10.12,83.51,3.50
99.00,0.00,215.00,24.75,-133.50,16.38,1.81,8.38,84.05,3.52
99.00,1.00,317.06,-5.94,-58.56,0.62,4.12,3.12,84.05,3.52
99.00,2.00,9.44,-15.00,6.69,3.06,-2.94,10.31,84.05,3.52
99.00,0.00,214.31,24.94,-133.94,19.62,3.81,13.06,84.74,3.54
99.00,1.00,317.00,-5.94,-58.56,1.56,5.50,2.81,84.74,3.54
99.00,2.00,9.25,-15.00,6.56,2.56,-2.38,10.00,84.74,3.54
99.00,0.00,213.44,25.19,-134.38,20.00,6.19,13.88,85.45,3.56
99.00,1.00,316.88,-5.94,-58.62,1.50,6.19,2.81,85.45,3.56
99.00,2.00,9.06,-14.94,6.44,2.25,-2.38,10.44,85.45,3.56
99.00,0.00,212.50,25.50,-134.81,19.12,6.56,12.94,86.16,3.58
99.00,1.00,316.75,-6.00,-58.69,1.94,7.12,3.00,86.16,3.58
99.00,2.00,8.88,-14.94,6.38,1.62,-2.56,11.12,86.16,3.58
99.00,0.00,211.75,25.69,-135.12,16.00,3.62,8.81,86.78,3.60
99.00,1.00,316.56,-6.00,-58.75,1.88,7.06,3.38,86.78,3.60
99.00,2.00,8.62,-14.88,6.25,0.69,-2.25,11.94,86.78,3.60
99.00,0.00,211.12,25.81,-135.50,15.75,1.62,8.44,87.38,3.62
99.00,1.00,316.44,-6.00,-58.81,2.12,5.94,3.19,87.38,3.62
99.00,2.00,8.44,-14.88,6.19,0.81,-2.06,12.00,87.38,3.62
99.00,0.00,210.56,25.94,-135.88,15.75,0.12,9.94,88.01,3.64
99.00,1.00,316.31,-6.00,-58.81,1.88,6.19,4.12,88.01,3.64
99.00,2.00,8.19,-14.81,6.12,0.06,-2.19,11.06,88.01,3.64
99.00,0.00,210.00,26.06,-136.19,14.88,-0.56,9.69,88.63,3.66
99.00,1.00,316.12,-6.00,-58.88,1.56,6.75,4.88,88.63,3.66
99.00,2.00,8.00,-14.81,6.06,-0.44,-2.38,11.25,88.63,3.66
99.00,0.00,209.62,26.12,-136.50,12.75,-1.88,7.69,89.22,3.68
99.00,1.00,316.00,-5.94,-58.94,0.75,6.69,5.62,89.22,3.68
99.00,2.00,7.75,-14.75,6.00,-2.00,-2.62,12.50,89.22,3.68
99.00,0.00,209.25,26.25,-136.81,13.38,-2.31,7.81,89.89,3.70
99.00,1.00,315.81,-5.94,-58.94,0.50,7.75,5.31,89.89,3.70
99.00,2.00,7.50,-14.75,6.00,-3.25,-3.06,13.44,89.89,3.70
99.00,0.00,208.75,26.31,-137.19,13.88,-0.44,9.50,90.59,3.72
99.00,1.00,315.62,-5.94,-59.00,0.94,8.19,4.44,90.59,3.72
99.00,2.00,7.19,-14.69,6.00,-3.44,-3.44,13.81,90.59,3.72
99.00,0.00,208.31,26.44,-137.44,12.00,-0.62,8.25,91.12,3.74
99.00,1.00,315.44,-6.00,-59.00,2.19,8.94,3.69,91.12,3.74
99.00,2.00,6.94,-14.62,6.00,-1.12,-3.75,11.94,91.12,3.74
99.00,0.00,207.94,26.50,-137.75,11.88,-2.75,7.19,91.56,3.76
99.00,1.00,315.31,-6.00,-59.06,1.19,7.06,1.94,91.56,3.76
99.00,2.00,6.69,-14.62,5.94,1.00,-2.94,9.88,91.56,3.76
99.00,0.00,207.56,26.56,-138.06,13.62,-1.81,8.12,91.95,3.78
99.00,1.00,315.19,-6.06,-59.12,1.56,7.62,1.50,91.95,3.78
99.00,2.00,6.56,-14.62,5.81,3.75,-0.38,7.62,91.95,3.78
99.00,0.00,207.06,26.69,-138.38,14.12,-0.81,8.88,92.48,3.80
99.00,1.00,315.06,-6.12,-59.19,1.31,8.00,1.62,92.48,3.80
99.00,2.00,6.44,-14.62,5.69,1.12,-1.00,8.00,92.48,3.80
99.00,0.00,206.62,26.75,-138.69,13.25,-1.25,7.00,92.98,3.82
99.00,1.00,315.00,-6.12,-59.19,-0.50,6.06,1.88,92.98,3.82
99.00,2.00,6.25,-14.62,5.69,0.81,-1.81,8.06,92.98,3.82
99.00,0.00,206.44,26.75,-138.88,11.38,-2.94,4.38,93.36,3.84
99.00,1.00,314.88,-6.19,-59.19,0.12,5.69,1.44,93.36,3.84
99.00,2.00,6.12,-14.56,5.62,1.94,-1.19,7.75,93.36,3.84
99.00,0.00,206.25,26.69,-139.19,12.00,-5.69,4.06,93.77,3.86
99.00,1.00,314.81,-6.19,-59.19,0.94,6.81,1.38,93.77,3.86
99.00,2.00,5.94,-14.56,5.56,1.88,-1.38,7.56,93.77,3.86
99.00,0.00,206.00,26.69,-139.50,14.25,-5.56,6.50,94.27,3.88
99.00,1.00,314.69,-6.25,-59.25,1.19,6.19,0.88,94.27,3.88
99.00,2.00,5.81,-14.56,5.50,1.81,-1.94,7.00,94.27,3.88
99.00,0.00,205.56,26.75,-139.88,15.00,-3.75,7.81,94.72,3.90
99.00,1.00,314.62,-6.31,-59.25,1.25,5.38,0.31,94.72,3.90
99.00,2.00,5.75,-14.50,5.44,3.69,-0.88,5.31,94.72,3.90
99.00,0.00,205.06,26.81,-140.25,15.38,-1.62,7.50,95.20,3.92
99.00,1.00,314.56,-6.38,-59.31,0.94,5.12,-0.06,95.20,3.92
99.00,2.00,5.62,-14.50,5.38,3.62,-0.75,4.88,95.20,3.92
99.00,0.00,204.56,26.88,-140.56,13.81,0.50,6.00,95.62,3.94
99.00,1.00,314.56,-6.44,-59.31,-0.19,3.56,-0.19,95.62,3.94
99.00,2.00,5.56,-14.44,5.25,3.25,-1.81,4.69,95.62,3.94
99.00,0.00,204.12,26.94,-140.75,11.88,0.94,4.31,95.97,3.96
99.00,1.00,314.50,-6.44,-59.31,0.69,4.06,-0.62,95.97,3.96
99.00,2.00,5.50,-14.44,5.25,3.38,-2.00,4.44,95.97,3.96
99.00,0.00,203.81,27.00,-141.00,10.75,-1.00,3.38,96.20,3.98
99.00,1.00,314.50,-6.50,-59.31,-0.81,2.31,-0.56,96.20,3.98
99.00,2.00,5.44,-14.38,5.12,4.88,-1.75,3.56,96.20,3.98
99.00,0.00,203.75,26.94,-141.19,9.00,-3.38,1.56,96.36,4.00
99.00,1.00,314.44,-6.50,-59.31,0.38,2.75,-0.56,96.36,4.00
99.00,2.00,5.38,-14.38,5.00,5.12,-2.50,3.81,96.36,4.00
99.00,0.00,203.69,26.81,-141.38,8.94,-6.31,0.62,96.54,4.02
99.00,1.00,314.44,-6.56,-59.31,-0.50,2.00,0.25,96.54,4.02
99.00,2.00,5.31,-14.31,4.88,4.44,-2.75,3.94,96.54,4.02
99.00,0.00,203.50,26.75,-141.62,12.00,-4.62,3.56,96.90,4.04
99.00,1.00,314.38,-6.56,-59.38,1.19,4.06,-0.25,96.90,4.04
99.00,2.00,5.19,-14.25,4.81,3.12,-2.88,4.25,96.90,4.04
99.00,0.00,203.00,26.88,-141.94,13.44,1.88,7.12,97.28,4.06
99.00,1.00,314.31,-6.62,-59.38,1.06,3.50,-0.44,97.28,4.06
99.00,2.00,5.12,-14.19,4.75,3.88,-2.56,3.88,97.28,4.06
99.00,0.00,202.38,27.00,-142.19,9.88,5.00,5.56,97.47,4.08
99.00,1.00,314.31,-6.62,-59.38,-0.06,1.88,-0.25,97.47,4.08
99.00,2.00,5.06,-14.12,4.69,5.31,-2.19,3.25,97.47,4.08
99.00,0.00,202.00,27.06,-142.31,8.19,1.81,1.50,97.56,4.10
99.00,1.00,314.31,-6.62,-59.38,-0.44,1.25,-0.38,97.56,4.10
99.00,2.00,5.06,-14.12,4.50,5.75,-1.75,3.00,97.56,4.10
99.00,0.00,201.69,27.12,-142.50,10.31,0.31,1.62,97.80,4.12
99.00,1.00,314.25,-6.69,-59.44,0.69,3.44,-0.56,97.80,4.12
99.00,2.00,5.00,-14.06,4.44,4.38,-2.75,3.94,97.80,4.12
99.00,0.00,101.94,27.12,-142.81,13.25,1.31,4.62,98.17,4.14
99.00,1.00,314.25,-6.69,-59.44,0.88,3.56,0.06,98.17,4.14
99.00,2.00,4.88,-14.00,4.31,4.25,-4.12,5.00,98.17,4.14
99.00,0.00,101.94,27.25,-143.06,12.75,4.62,6.19,98.45,4.16
99.00,1.00,314.19,-6.75,-59.50,2.06,4.19,-0.06,98.45,4.16
99.00,2.00,4.81,-13.94,4.19,5.62,-4.06,4.75,98.45,4.16
99.00,0.00,101.94,27.44,-143.25,8.50,5.00,2.50,98.51,4.18
99.00,1.00,314.19,-6.75,-59.50,0.69,2.56,0.31,98.51,4.18
99.00,2.00,4.75,-13.88,4.06,7.19,-2.81,4.31,98.51,4.18
99.00,0.00,101.88,27.44,-143.44,8.12,1.94,0.06,98.60,4.20
99.00,1.00,314.12,-6.81,-59.50,0.94,3.25,0.56,98.60,4.20
99.00,2.00,4.69,-13.81,3.94,5.75,-3.25,5.25,98.60,4.20
99.00,0.00,101.81,27.50,-143.56,10.62,2.12,0.50,98.84,4.22
99.00,1.00,314.06,-6.81,-59.56,1.38,3.88,1.12,98.84,4.22
99.00,2.00,4.56,-13.75,3.81,4.75,-3.12,6.38,98.84,4.22
99.00,0.00,101.81,27.56,-143.88,13.19,2.75,3.44,99.15,4.24
99.00,1.00,314.00,-6.81,-59.62,2.19,5.06,1.62,99.15,4.24
99.00,2.00,4.44,-13.69,3.62,5.38,-2.44,6.06,99.15,4.24
99.00,0.00,101.75,27.62,-144.12,12.50,3.25,3.50,99.49,4.26
99.00,1.00,313.88,-6.88,-59.62,1.56,4.75,1.25,99.49,4.26
99.00,2.00,4.31,-13.62,3.56,4.19,-3.12,6.25,99.49,4.26
99.00,0.00,101.75,27.69,-144.38,12.94,2.81,2.19,99.87,4.28
99.00,1.00,313.88,-6.88,-59.69,1.12,4.12,1.06,99.87,4.28
99.00,2.00,4.19,-13.56,3.44,3.56,-3.12,7.25,99.87,4.28
99.00,0.00,101.69,27.81,-144.62,13.56,4.00,1.94,100.25,4.30
99.00,1.00,313.75,-6.94,-59.75,2.00,5.69,1.56,100.25,4.30
99.00,2.00,4.06,-13.56,3.31,4.12,-2.31,7.19,100.25,4.30
99.00,0.00,101.62,27.88,-144.88,15.19,3.94,3.00,100.71,4.32
99.00,1.00,313.69,-6.94,-59.75,1.38,5.62,1.75,100.71,4.32
99.00,2.00,3.94,-13.50,3.25,3.56,-2.69,6.56,100.71,4.32
99.00,0.00,101.62,28.00,-145.19,15.06,5.81,3.94,101.20,4.34
99.00,1.00,313.62,-6.94,-59.75,0.88,4.38,1.69,101.20,4.34
99.00,2.00,3.81,-13.44,3.12,2.94,-2.44,7.38,101.20,4.34
99.00,0.00,101.56,28.12,-145.44,12.81,5.25,2.06,101.59,4.36
99.00,1.00,313.50,-7.00,-59.88,2.00,4.75,1.31,101.59,4.36
99.00,2.00,3.69,-13.44,3.06,3.19,-2.38,6.25,101.59,4.36
99.00,0.00,101.50,28.19,-145.62,10.44,2.50,0.00,101.88,4.38
99.00,1.00,313.50,-7.00,-59.88,0.50,3.56,2.06,101.88,4.38
99.00,2.00,3.56,-13.38,3.00,3.19,-2.19,5.69,101.88,4.38
99.00,0.00,101.38,28.12,-145.81,9.62,-1.12,-1.44,102.15,4.40
99.00,1.00,313.38,-7.00,-59.88,0.62,3.38,1.69,102.15,4.40
99.00,2.00,3.50,-13.31,2.88,3.00,-1.44,5.38,102.15,4.40
99.00,0.00,101.31,28.12,-146.00,10.69,-2.56,-0.12,102.45,4.42
99.00,1.00,313.31,-7.00,-59.88,-0.06,3.06,1.75,102.45,4.42
99.00,2.00,3.38,-13.31,2.81,3.38,-0.94,4.88,102.45,4.42
99.00,0.00,101.31,28.12,-146.25,12.88,-0.94,2.81,102.83,4.44
99.00,1.00,313.25,-7.00,-59.88,1.31,4.31,1.00,102.83,4.44
99.00,2.00,3.31,-13.31,2.75,3.31,-0.88,5.56,102.83,4.44
99.00,0.00,101.31,28.19,-146.56,13.38,3.69,4.50,103.23,4.46
99.00,1.00,313.19,-7.00,-59.94,0.38,2.88,1.19,103.23,4.46
99.00,2.00,3.19,-13.25,2.62,3.38,-1.62,5.38,103.23,4.46
99.00,0.00,101.31,28.31,-146.81,12.62,5.56,3.94,103.59,4.48
99.00,1.00,313.12,-7.00,-59.94,0.00,2.56,1.56,103.59,4.48
99.00,2.00,3.12,-13.25,2.56,3.81,-1.94,4.88,103.59,4.48
99.00,0.00,101.25,28.44,-147.00,11.56,6.44,3.00,103.89,4.50
99.00,1.00,313.06,-7.06,-60.00,1.00,3.06,1.12,103.89,4.50
99.00,2.00,3.06,-13.19,2.50,4.00,-1.56,3.44,103.89,4.50
99.00,0.00,101.19,28.56,-147.19,10.69,5.69,2.19,104.18,4.52
99.00,1.00,313.00,-7.06,-60.00,0.88,2.50,1.19,104.18,4.52
99.00,2.00,3.00,-13.12,2.38,3.50,-2.19,3.38,104.18,4.52
99.00,0.00,101.19,28.62,-147.31,9.75,2.81,1.31,104.43,4.54
99.00,1.00,313.00,-7.06,-60.00,1.12,2.56,1.00,104.43,4.54
99.00,2.00,2.94,-13.12,2.31,3.56,-2.12,2.81,104.43,4.54
99.00,0.00,101.12,28.69,-147.50,8.12,0.81,0.69,104.64,4.56
99.00,1.00,312.94,-7.06,-60.06,-0.69,-0.69,1.62,104.64,4.56
99.00,2.00,2.88,-13.06,2.25,3.00,-2.19,2.44,104.64,4.56
99.00,0.00,101.12,28.69,-147.62,9.06,-1.06,1.94,104.91,4.58
99.00,1.00,312.94,-7.00,-60.00,-0.69,-0.62,1.44,104.91,4.58
99.00,2.00,2.88,-13.00,2.19,2.38,-2.31,2.00,104.91,4.58
99.00,0.00,101.12,28.69,-147.88,10.88,1.62,4.50,105.25,4.60
99.00,1.00,312.88,-7.00,-60.06,1.06,0.50,1.38,105.25,4.60
99.00,2.00,2.81,-12.94,2.12,2.44,-2.44,1.94,105.25,4.60
99.00,0.00,101.12,28.88,-148.12,12.00,6.25,6.50,105.61,4.62
99.00,1.00,312.88,-7.00,-60.06,1.19,1.19,1.12,105.61,4.62
99.00,2.00,2.81,-12.88,2.12,2.94,-2.50,2.56,105.61,4.62
99.00,0.00,101.19,29.06,-148.31,9.12,7.88,5.56,105.82,4.64
99.00,1.00,312.81,-7.00,-60.06,1.44,0.75,1.19,105.82,4.64
99.00,2.00,2.75,-12.88,2.06,3.88,-2.00,1.25,105.82,4.64
99.00,0.00,101.12,29.19,-148.44,7.12,5.44,2.81,105.97,4.66
99.00,1.00,312.81,-7.00,-60.12,1.19,0.81,0.31,105.97,4.66
99.00,2.00,2.75,-12.81,2.00,3.56,-2.56,0.75,105.97,4.66
99.00,0.00,101.12,29.25,-148.56,6.75,1.94,1.62,106.03,4.68
99.00,1.00,312.81,-7.00,-60.12,0.19,-0.50,0.00,106.03,4.68
99.00,2.00,2.75,-12.69,1.94,5.25,-2.50,0.62,106.03,4.68
99.00,0.00,101.12,29.25,-148.75,7.06,1.56,2.44,106.04,4.70
99.00,1.00,312.81,-7.00,-60.12,0.56,-0.38,0.00,106.04,4.70
99.00,2.00,2.75,-12.69,1.81,6.75,-1.56,0.00,106.04,4.70
99.00,0.00,101.12,29.38,-148.88,7.44,2.44,3.94,106.14,4.72
99.00,1.00,312.81,-7.00,-60.12,0.94,0.94,0.44,106.14,4.72
99.00,2.00,2.81,-12.62,1.69,5.00,-1.56,0.12,106.14,4.72
99.00,0.00,101.19,29.50,-149.06,7.75,5.38,5.12,106.35,4.74
99.00,1.00,312.81,-7.00,-60.19,0.81,0.38,0.88,106.35,4.74
99.00,2.00,2.75,-12.62,1.62,2.62,-2.31,0.81,106.35,4.74
99.00,0.00,101.19,29.69,-149.19,7.25,7.50,5.31,106.59,4.76
99.00,1.00,312.75,-6.94,-60.19,0.75,0.12,1.00,106.59,4.76
99.00,2.00,2.75,-12.56,1.56,1.12,-2.31,1.38,106.59,4.76
99.00,0.00,101.25,29.88,-149.31,6.25,6.25,4.44,106.76,4.78
99.00,1.00,312.75,-6.94,-60.19,1.19,0.88,0.50,106.76,4.78
99.00,2.00,2.75,-12.50,1.56,2.00,-2.44,0.62,106.76,4.78
99.00,0.00,101.25,29.94,-149.44,5.62,3.69,2.94,106.85,4.80
99.00,1.00,312.75,-6.94,-60.19,0.50,-0.50,0.19,106.85,4.80
99.00,2.00,2.75,-12.44,1.50,3.56,-1.75,0.06,106.85,4.80
99.00,0.00,101.25,30.00,-149.56,5.50,2.56,2.56,106.91,4.82
99.00,1.00,312.75,-6.94,-60.19,0.38,0.00,0.00,106.91,4.82
99.00,2.00,2.75,-12.44,1.44,3.88,-1.25,0.06,106.91,4.82
99.00,0.00,101.25,30.12,-149.69,6.19,2.56,3.31,107.06,4.84
99.00,1.00,312.75,-6.94,-60.25,1.19,0.44,-0.44,107.06,4.84
99.00,2.00,2.75,-12.38,1.38,2.62,-2.00,0.94,107.06,4.84
99.00,0.00,101.31,30.19,-149.81,6.19,3.69,3.94,107.19,4.86
99.00,1.00,312.75,-7.00,-60.25,1.44,2.19,0.12,107.19,4.86
99.00,2.00,2.75,-12.31,1.31,2.81,-1.50,0.06,107.19,4.86
99.00,0.00,101.31,30.25,-149.88,6.31,4.06,4.06,107.32,4.88
99.00,1.00,312.75,-7.00,-60.31,1.31,0.06,-0.69,107.32,4.88
99.00,2.00,2.75,-12.31,1.31,3.19,-1.00,-0.62,107.32,4.88
99.00,0.00,101.31,30.38,-150.06,5.50,2.81,3.56,107.42,4.90
99.00,1.00,312.75,-7.00,-60.31,1.00,0.31,-0.06,107.42,4.90
99.00,2.00,2.81,-12.25,1.25,2.94,-1.69,-0.69,107.42,4.90
99.00,0.00,101.31,30.44,-150.19,4.50,2.19,2.50,107.48,4.92
99.00,1.00,312.75,-7.00,-60.31,0.06,-1.88,0.00,107.48,4.92
99.00,2.00,2.81,-12.25,1.19,3.00,-1.69,-0.31,107.48,4.92
99.00,0.00,101.31,30.50,-150.19,4.31,1.19,2.19,107.52,4.94
99.00,1.00,312.81,-6.94,-60.31,1.12,-1.62,-0.19,107.52,4.94
99.00,2.00,2.81,-12.19,1.12,3.38,-1.62,0.50,107.52,4.94
99.00,0.00,101.38,30.50,-150.31,4.69,0.81,2.38,107.60,4.96
99.00,1.00,312.81,-6.94,-60.31,1.06,-1.06,0.25,107.60,4.96
99.00,2.00,2.81,-12.12,1.06,2.69,-1.62,-0.31,107.60,4.96
99.00,0.00,101.38,30.56,-150.44,4.56,1.19,2.75,107.67,4.98
99.00,1.00,312.81,-6.94,-60.38,1.38,0.12,0.25,107.67,4.98
99.00,2.00,2.81,-12.12,1.00,2.88,-1.44,0.44,107.67,4.98
99.00,0.00,101.38,30.62,-150.50,4.69,2.50,3.12,107.72,5.00
99.00,1.00,312.81,-6.94,-60.38,0.81,-1.06,0.50,107.72,5.00
99.00,2.00,2.81,-12.06,0.94,3.38,-0.31,-0.06,107.72,5.00
99.00,0.00,101.44,30.69,-150.62,4.69,2.31,2.81,107.81,5.02
99.00,1.00,312.81,-6.94,-60.44,1.50,0.12,0.31,107.81,5.02
99.00,2.00,2.81,-12.06,0.88,2.44,-1.25,0.25,107.81,5.02
99.00,0.00,101.44,30.75,-150.75,4.81,2.06,2.75,107.88,5.04
99.00,1.00,312.81,-6.94,-60.44,1.38,0.38,0.25,107.88,5.04
99.00,2.00,2.81,-12.00,0.81,3.19,-0.88,0.94,107.88,5.04
99.00,0.00,101.44,30.81,-150.88,4.69,1.31,2.50,107.95,5.06
99.00,1.00,312.81,-6.94,-60.44,1.25,-0.19,0.44,107.95,5.06
99.00,2.00,2.81,-12.00,0.75,2.88,-0.12,1.06,107.95,5.06
99.00,0.00,101.50,30.88,-151.00,4.81,1.00,2.50,108.08,5.08
99.00,1.00,312.81,-6.94,-60.50,1.56,0.44,0.75,108.08,5.08
99.00,2.00,2.75,-12.00,0.69,1.56,-1.19,1.81,108.08,5.08
99.00,0.00,101.50,30.88,-151.12,4.62,1.69,2.06,108.22,5.10
99.00,1.00,312.81,-6.94,-60.50,1.62,1.25,0.31,108.22,5.10
99.00,2.00,2.75,-11.94,0.69,1.19,-1.06,1.94,108.22,5.10
99.00,0.00,101.50,30.94,-151.19,4.75,1.56,2.06,108.33,5.12
99.00,1.00,312.81,-6.94,-60.56,0.81,0.00,0.19,108.33,5.12
99.00,2.00,2.69,-11.94,0.62,2.00,-0.62,1.31,108.33,5.12
99.00,0.00,101.50,31.00,-151.31,4.75,1.31,2.19,108.42,5.14
99.00,1.00,312.81,-6.94,-60.56,0.81,0.44,-0.12,108.42,5.14
99.00,2.00,2.69,-11.88,0.62,2.44,-0.06,1.19,108.42,5.14
99.00,0.00,101.50,31.00,-151.44,4.62,0.81,2.00,108.52,5.16
99.00,1.00,312.81,-6.94,-60.62,1.69,1.12,-0.31,108.52,5.16
99.00,2.00,2.69,-11.88,0.56,2.19,-0.19,1.00,108.52,5.16
99.00,0.00,101.50,31.06,-151.50,4.50,0.56,1.81,108.64,5.18
99.00,1.00,312.81,-7.00,-60.62,0.88,0.69,0.50,108.64,5.18
99.00,2.00,2.62,-11.88,0.50,1.69,0.06,1.75,108.64,5.18
99.00,0.00,101.50,31.06,-151.62,4.50,-0.06,1.69,108.74,5.20
99.00,1.00,312.75,-7.00,-60.62,1.56,1.12,0.44,108.74,5.20
99.00,2.00,2.62,-11.88,0.44,1.81,-0.19,1.44,108.74,5.20
99.00,0.00,101.56,31.06,-151.75,4.62,0.00,1.81,108.85,5.22
99.00,1.00,312.75,-7.00,-60.69,1.00,0.75,0.44,108.85,5.22
99.00,2.00,2.62,-11.88,0.44,2.06,0.19,1.25,108.85,5.22
99.00,0.00,101.56,31.12,-151.88,4.69,0.06,1.88,108.98,5.24
99.00,1.00,312.75,-7.00,-60.69,1.00,1.56,0.12,108.98,5.24
99.00,2.00,2.56,-11.88,0.38,1.50,0.06,1.50,108.98,5.24
99.00,0.00,101.56,31.12,-151.94,4.31,0.69,1.69,109.08,5.26
99.00,1.00,312.75,-7.00,-60.69,1.00,1.12,-0.06,109.08,5.26
99.00,2.00,2.56,-11.88,0.31,1.69,-0.12,1.56,109.08,5.26
99.00,0.00,101.56,31.19,-152.06,4.19,1.44,1.81,109.18,5.28
99.00,1.00,312.75,-7.00,-60.69,0.50,1.19,-0.06,109.18,5.28
99.00,2.00,2.50,-11.88,0.31,1.75,-0.06,1.69,109.18,5.28
99.00,0.00,101.56,31.25,-152.12,4.06,1.56,2.00,109.29,5.30
99.00,1.00,312.69,-7.06,-60.75,0.62,1.50,-0.19,109.29,5.30
99.00,2.00,2.50,-11.88,0.25,1.25,-0.25,1.94,109.29,5.30
99.00,0.00,101.56,31.31,-152.25,4.44,2.06,2.25,109.42,5.32
99.00,1.00,312.69,-7.06,-60.75,0.62,2.19,-0.25,109.42,5.32
99.00,2.00,2.44,-11.88,0.25,1.25,-0.06,2.00,109.42,5.32
99.00,0.00,101.62,31.31,-152.38,4.62,2.25,2.38,109.57,5.34
99.00,1.00,312.69,-7.06,-60.75,0.50,2.38,0.19,109.57,5.34
99.00,2.00,2.44,-11.88,0.19,0.81,0.25,1.94,109.57,5.34
99.00,0.00,101.62,31.38,-152.44,4.69,1.94,1.88,109.78,5.36
99.00,1.00,312.62,-7.12,-60.75,0.50,2.19,-0.06,109.78,5.36
99.00,2.00,2.38,-11.81,0.19,-0.38,-0.56,1.75,109.78,5.36
99.00,0.00,101.62,31.44,-152.56,4.12,1.00,1.19,109.95,5.38
99.00,1.00,312.62,-7.12,-60.75,0.38,1.69,0.12,109.95,5.38
99.00,2.00,2.38,-11.81,0.19,-0.19,-0.25,1.44,109.95,5.38
99.00,0.00,101.56,31.44,-152.62,3.69,0.44,0.88,110.12,5.40
99.00,1.00,312.62,-7.12,-60.75,0.00,2.12,0.12,110.12,5.40
99.00,2.00,2.31,-11.81,0.19,-0.50,-0.88,1.62,110.12,5.40
99.00,0.00,101.56,31.44,-152.69,3.75,0.25,0.94,110.27,5.42
99.00,1.00,312.56,-7.12,-60.75,-0.94,1.00,-0.06,110.27,5.42
99.00,2.00,2.31,-11.81,0.19,0.06,-0.62,1.81,110.27,5.42
99.00,0.00,101.56,31.50,-152.81,3.31,1.19,1.12,110.37,5.44
99.00,1.00,312.56,-7.19,-60.75,0.06,2.38,-0.12,110.37,5.44
99.00,2.00,2.25,-11.81,0.19,0.94,0.06,1.50,110.37,5.44
99.00,0.00,101.62,31.56,-152.88,3.88,1.94,1.81,110.52,5.46
99.00,1.00,312.56,-7.19,-60.75,-0.75,2.06,0.12,110.52,5.46
99.00,2.00,2.25,-11.81,0.19,0.12,0.19,2.06,110.52,5.46
99.00,0.00,101.62,31.62,-153.00,4.75,3.75,3.19,110.73,5.48
99.00,1.00,312.50,-7.25,-60.75,0.50,3.75,-0.50,110.73,5.48
99.00,2.00,2.19,-11.81,0.19,-0.50,-0.12,2.69,110.73,5.48
99.00,0.00,101.62,31.75,-153.06,1.81,5.00,1.88,110.75,5.50
99.00,1.00,312.44,-7.25,-60.75,-1.06,2.75,-0.50,110.75,5.50
99.00,2.00,2.12,-11.81,0.12,1.19,1.06,2.50,110.75,5.50
99.00,0.00,101.62,31.81,-153.06,1.56,1.31,0.88,110.80,5.52
99.00,1.00,312.44,-7.31,-60.75,-1.81,3.31,-1.12,110.80,5.52
99.00,2.00,2.06,-11.81,0.12,0.31,0.56,3.38,110.80,5.52
99.00,0.00,101.62,31.81,-153.12,4.75,1.62,2.31,111.00,5.54
99.00,1.00,312.44,-7.38,-60.75,-0.81,4.50,-1.56,111.00,5.54
99.00,2.00,2.00,-11.81,0.12,-0.19,0.31,3.38,111.00,5.54
99.00,0.00,101.69,31.94,-153.31,6.25,4.44,5.12,111.25,5.56
99.00,1.00,312.38,-7.44,-60.75,-0.31,4.94,-1.25,111.25,5.56
99.00,2.00,1.94,-11.81,0.06,0.19,0.88,2.88,111.25,5.56
99.00,0.00,101.75,32.06,-153.44,5.38,4.50,5.94,111.43,5.58
99.00,1.00,312.38,-7.50,-60.75,-0.81,4.25,-0.56,111.43,5.58
99.00,2.00,1.94,-11.81,0.06,0.75,0.19,2.44,111.43,5.58
99.00,0.00,101.81,32.19,-153.56,4.00,3.81,4.50,111.55,5.60
99.00,1.00,312.31,-7.50,-60.69,-0.88,3.31,-0.81,111.55,5.60
99.00,2.00,1.88,-11.81,0.06,1.19,0.50,2.44,111.55,5.60
99.00,0.00,101.81,32.25,-153.62,3.69,2.44,2.88,111.64,5.62
99.00,1.00,312.31,-7.56,-60.69,-0.88,2.69,-0.56,111.64,5.62
99.00,2.00,1.81,-11.81,0.00,1.31,0.38,1.88,111.64,5.62
99.00,0.00,101.81,32.25,-153.75,5.12,0.12,2.94,111.78,5.64
99.00,1.00,312.25,-7.56,-60.69,-1.06,2.81,-0.56,111.78,5.64
99.00,2.00,1.81,-11.81,0.00,1.69,0.88,1.50,111.78,5.64
99.00,0.00,101.88,32.31,-153.94,7.25,0.69,4.12,112.00,5.66
99.00,1.00,312.25,-7.62,-60.69,-0.38,3.25,-0.75,112.00,5.66
99.00,2.00,1.81,-11.81,0.00,1.75,0.94,0.81,112.00,5.66
99.00,0.00,101.88,32.38,-154.06,5.31,2.19,3.38,112.18,5.68
99.00,1.00,312.19,-7.62,-60.69,-0.75,1.81,-0.38,112.18,5.68
99.00,2.00,1.75,-11.81,0.00,1.00,-0.25,1.25,112.18,5.68
99.00,0.00,101.88,32.38,-154.12,1.19,-0.06,0.00,112.17,5.70
99.00,1.00,312.19,-7.62,-60.69,-1.56,-0.38,0.00,112.17,5.70
99.00,2.00,1.75,-11.81,0.00,1.31,0.75,0.50,112.17,5.70
99.00,0.00,101.88,32.31,-154.12,1.81,-3.62,-2.12,112.24,5.72
99.00,1.00,312.19,-7.62,-60.62,-1.69,0.44,-0.25,112.24,5.72
99.00,2.00,1.75,-11.81,0.00,0.06,0.38,0.69,112.24,5.72
99.00,0.00,101.81,32.31,-154.25,4.88,-1.12,0.38,112.46,5.74
99.00,1.00,312.19,-7.69,-60.62,-0.50,1.25,-0.38,112.46,5.74
99.00,2.00,1.75,-11.81,0.00,-0.50,0.25,0.81,112.46,5.74
99.00,0.00,101.88,32.31,-154.38,5.94,1.81,3.31,112.67,5.76
99.00,1.00,312.19,-7.69,-60.62,0.00,2.06,-1.00,112.67,5.76
99.00,2.00,1.75,-11.81,0.00,0.75,1.19,0.50,112.67,5.76
99.00,0.00,101.88,32.44,-154.50,4.38,3.94,3.50,112.81,5.78
99.00,1.00,312.19,-7.75,-60.62,-0.62,1.31,-0.75,112.81,5.78
99.00,2.00,1.75,-11.88,-0.06,0.75,1.62,0.56,112.81,5.78
99.00,0.00,101.88,32.50,-154.50,1.94,3.00,1.06,112.85,5.80
99.00,1.00,312.19,-7.75,-60.62,-1.00,1.31,-1.06,112.85,5.80
99.00,2.00,1.69,-11.88,-0.06,0.94,0.69,1.19,112.85,5.80
99.00,0.00,101.88,32.50,-154.56,1.62,0.94,0.00,112.87,5.82
99.00,1.00,312.19,-7.75,-60.56,-0.69,0.94,-0.81,112.87,5.82
99.00,2.00,1.69,-11.88,-0.06,1.12,0.12,0.56,112.87,5.82
99.00,0.00,101.88,32.50,-154.56,1.00,-1.19,0.31,112.90,5.84
99.00,1.00,312.19,-7.81,-60.56,-1.00,0.50,-0.44,112.90,5.84
99.00,2.00,1.69,-11.88,-0.06,0.25,-0.75,-0.12,112.90,5.84
99.00,0.00,101.81,32.50,-154.50,1.00,0.06,0.44,112.91,5.86
99.00,1.00,312.19,-7.81,-60.56,-1.25,0.25,0.31,112.91,5.86
99.00,2.00,1.69,-11.88,-0.06,0.94,-0.44,-0.56,112.91,5.86
99.00,0.00,101.81,32.50,-154.50,1.06,1.44,0.50,112.89,5.88
99.00,1.00,312.19,-7.75,-60.50,-1.50,-1.19,0.19,112.89,5.88
99.00,2.00,1.75,-11.88,-0.06,1.56,0.19,-1.88,112.89,5.88
99.00,0.00,101.81,32.56,-154.50,2.19,1.06,0.62,112.88,5.90
99.00,1.00,312.19,-7.75,-60.50,-0.19,-0.12,-0.38,112.88,5.90
99.00,2.00,1.81,-11.88,-0.06,2.38,1.25,-2.44,112.88,5.90
99.00,0.00,101.81,32.50,-154.56,2.56,-0.69,0.38,112.92,5.92
99.00,1.00,312.19,-7.75,-60.50,-0.88,-0.94,-0.81,112.92,5.92
99.00,2.00,1.81,-11.88,-0.12,1.44,1.00,-1.69,112.92,5.92
99.00,0.00,101.75,32.50,-154.62,1.94,-0.88,-0.25,112.99,5.94
99.00,1.00,312.19,-7.81,-60.50,0.12,-0.38,-0.50,112.99,5.94
99.00,2.00,1.88,-11.88,-0.12,0.19,0.00,-1.19,112.99,5.94
99.00,0.00,101.75,32.50,-154.62,1.19,-0.25,-0.38,113.04,5.96
99.00,1.00,312.25,-7.75,-60.50,-0.38,-1.06,-0.25,113.04,5.96
99.00,2.00,1.88,-11.88,-0.12,0.00,-0.69,-1.44,113.04,5.96
99.00,0.00,101.75,32.50,-154.62,0.19,0.06,0.31,113.03,5.98
99.00,1.00,312.25,-7.75,-60.50,-0.44,-1.31,0.00,113.03,5.98
99.00,2.00,1.94,-11.88,-0.12,0.50,0.06,-1.94,113.03,5.98
