Iteration,IMUNo,OrientationX (deg),OrientationY,OrientationZ,GyroX (20rad/sec),GyroY,GyroZ,Elbow_Pos (rad),Time (sec)
44.00,0.00,247.50,15.25,-100.25,-0.31,-0.06,-0.12,0.00,1.02
44.00,1.00,278.62,-4.44,-53.62,-0.06,0.25,-0.19,0.00,1.02
44.00,2.00,349.88,-23.25,11.50,-0.19,0.19,-0.38,0.00,1.02
44.00,0.00,247.56,15.25,-100.25,-0.75,-0.81,-0.06,-0.02,1.04
44.00,1.00,278.62,-4.44,-53.69,-0.12,0.38,-0.25,-0.02,1.04
44.00,2.00,349.88,-23.25,11.50,0.00,0.25,-0.44,-0.02,1.04
44.00,0.00,247.56,15.25,-100.25,-0.25,-0.56,-0.12,-0.04,1.06
44.00,1.00,278.62,-4.44,-53.69,-0.06,-0.06,-0.38,-0.04,1.06
44.00,2.00,349.88,-23.25,11.50,0.38,0.62,-0.50,-0.04,1.06
44.00,0.00,247.56,15.25,-100.25,-0.44,-0.56,0.06,-0.06,1.08
44.00,1.00,278.62,-4.44,-53.69,0.12,-0.25,-0.31,-0.06,1.08
44.00,2.00,349.88,-23.25,11.50,0.38,0.44,-0.50,-0.06,1.08
44.00,0.00,247.56,15.25,-100.25,0.00,-0.69,0.12,-0.08,1.10
44.00,1.00,278.62,-4.44,-53.69,0.38,-0.25,-0.12,-0.08,1.10
44.00,2.00,349.88,-23.25,11.50,0.62,0.12,-0.50,-0.08,1.10
44.00,0.00,247.56,15.25,-100.25,0.19,-0.81,0.19,-0.09,1.12
44.00,1.00,278.62,-4.44,-53.69,0.06,-0.06,-0.06,-0.09,1.12
44.00,2.00,349.88,-23.25,11.50,0.56,0.31,-0.62,-0.09,1.12
44.00,0.00,247.56,15.25,-100.25,0.38,-0.44,0.06,-0.09,1.14
44.00,1.00,278.69,-4.44,-53.69,-0.12,0.00,-0.12,-0.09,1.14
44.00,2.00,349.88,-23.25,11.50,0.38,-0.19,-0.56,-0.09,1.14
44.00,0.00,247.56,15.25,-100.25,0.50,-0.19,-0.06,-0.09,1.16
44.00,1.00,278.69,-4.44,-53.69,-0.38,-0.06,-0.12,-0.09,1.16
44.00,2.00,349.88,-23.25,11.50,0.31,-0.38,-0.44,-0.09,1.16
44.00,0.00,247.56,15.25,-100.25,0.44,0.06,0.00,-0.08,1.18
44.00,1.00,278.69,-4.44,-53.69,0.25,0.06,0.06,-0.08,1.18
44.00,2.00,349.88,-23.25,11.50,0.31,0.12,-0.44,-0.08,1.18
44.00,0.00,247.56,15.25,-100.25,0.94,0.25,0.31,-0.07,1.20
44.00,1.00,278.69,-4.44,-53.69,0.12,0.19,-0.19,-0.07,1.20
44.00,2.00,349.88,-23.25,11.50,0.50,-0.12,-0.25,-0.07,1.20
44.00,0.00,247.56,15.25,-100.25,1.44,0.50,0.81,-0.05,1.22
44.00,1.00,278.69,-4.44,-53.69,0.06,0.31,-0.06,-0.05,1.22
44.00,2.00,349.88,-23.25,11.44,0.81,0.62,-0.25,-0.05,1.22
44.00,0.00,247.56,15.25,-100.31,1.69,0.50,1.00,-0.04,1.24
44.00,1.00,278.69,-4.44,-53.69,-0.44,0.56,0.12,-0.04,1.24
44.00,2.00,349.88,-23.25,11.44,1.12,0.94,-0.62,-0.04,1.24
44.00,0.00,247.44,15.31,-100.38,4.25,1.44,2.62,0.09,1.26
44.00,1.00,278.69,-4.44,-53.69,-0.44,0.38,-0.06,0.09,1.26
44.00,2.00,349.94,-23.31,11.44,-0.19,0.81,-1.12,0.09,1.26
44.00,0.00,247.31,15.44,-100.50,5.94,2.31,3.62,0.29,1.28
44.00,1.00,278.69,-4.44,-53.69,-0.12,-0.19,-0.06,0.29,1.28
44.00,2.00,349.94,-23.31,11.50,-1.38,0.88,-2.19,0.29,1.28
44.00,0.00,247.06,15.50,-100.62,13.81,2.75,7.62,0.72,1.30
44.00,1.00,278.69,-4.44,-53.69,-0.38,-1.19,-1.00,0.72,1.30
44.00,2.00,350.00,-23.31,11.56,-1.56,0.81,-2.38,0.72,1.30
44.00,0.00,246.75,15.69,-100.94,21.31,3.00,10.75,1.31,1.32
44.00,1.00,278.75,-4.50,-53.69,0.50,-3.19,-2.31,1.31,1.32
44.00,2.00,350.06,-23.31,11.62,0.31,0.94,-4.00,1.31,1.32
44.00,0.00,246.31,15.94,-101.38,25.31,2.25,12.06,1.97,1.34
44.00,1.00,278.88,-4.50,-53.69,1.19,-5.44,-3.31,1.97,1.34
44.00,2.00,350.12,-23.31,11.62,1.50,0.44,-5.06,1.97,1.34
44.00,0.00,245.81,16.19,-102.00,33.62,-0.69,13.56,2.75,1.36
44.00,1.00,279.06,-4.50,-53.69,2.75,-7.62,-4.25,2.75,1.36
44.00,2.00,350.38,-23.25,11.62,5.88,-0.69,-6.75,2.75,1.36
44.00,0.00,245.38,16.44,-102.81,41.00,-3.94,13.31,3.65,1.38
44.00,1.00,279.25,-4.50,-53.75,4.25,-9.31,-4.75,3.65,1.38
44.00,2.00,350.44,-23.25,11.62,8.44,-2.50,-6.25,3.65,1.38
44.00,0.00,245.00,16.62,-103.81,49.19,-8.00,12.69,4.67,1.40
44.00,1.00,279.44,-4.44,-53.81,6.50,-11.94,-5.88,4.67,1.40
44.00,2.00,350.62,-23.12,11.62,12.81,-1.75,-6.44,4.67,1.40
44.00,0.00,244.62,16.81,-105.00,59.94,-13.50,12.06,5.87,1.42
44.00,1.00,279.75,-4.38,-53.94,9.50,-14.31,-7.00,5.87,1.42
44.00,2.00,350.94,-23.00,11.44,17.00,-1.00,-7.75,5.87,1.42
44.00,0.00,244.31,16.94,-106.38,68.38,-16.94,9.62,7.29,1.44
44.00,1.00,280.06,-4.31,-54.12,10.56,-18.06,-8.50,7.29,1.44
44.00,2.00,351.06,-23.00,11.38,17.56,-2.31,-8.44,7.29,1.44
44.00,0.00,244.00,16.94,-107.94,77.19,-20.25,7.94,8.94,1.46
44.00,1.00,280.44,-4.25,-54.31,10.56,-21.00,-10.31,8.94,1.46
44.00,2.00,351.44,-22.75,11.00,18.06,-7.19,-9.19,8.94,1.46
44.00,0.00,243.81,16.94,-109.75,87.19,-25.38,7.62,10.73,1.48
44.00,1.00,280.94,-4.19,-54.44,11.38,-21.31,-11.25,10.73,1.48
44.00,2.00,351.56,-22.69,10.81,22.94,-4.19,-10.44,10.73,1.48
44.00,0.00,243.88,16.88,-111.69,94.19,-28.88,6.81,12.77,1.50
44.00,1.00,281.31,-4.12,-54.62,11.06,-19.06,-11.56,12.77,1.50
44.00,2.00,351.81,-22.56,10.44,21.31,-3.62,-7.81,12.77,1.50
44.00,0.00,243.69,16.75,-113.81,99.75,-30.50,7.19,15.07,1.52
44.00,1.00,281.75,-4.12,-54.81,10.62,-15.62,-10.44,15.07,1.52
44.00,2.00,352.12,-22.44,9.94,17.19,-4.06,-3.50,15.07,1.52
44.00,0.00,243.81,16.62,-116.00,104.00,-31.94,7.25,17.56,1.54
44.00,1.00,282.06,-4.12,-55.00,11.06,-13.19,-9.00,17.56,1.54
44.00,2.00,352.12,-22.38,9.81,15.00,-3.50,-1.12,17.56,1.54
44.00,0.00,243.62,16.50,-118.25,108.56,-33.94,7.56,20.46,1.56
44.00,1.00,282.31,-4.12,-55.19,8.38,-11.00,-7.94,20.46,1.56
44.00,2.00,352.12,-22.31,9.56,4.75,-4.00,2.75,20.46,1.56
44.00,0.00,243.38,16.31,-120.56,109.12,-31.50,7.19,23.41,1.58
44.00,1.00,282.56,-4.12,-55.38,6.19,-8.75,-7.44,23.41,1.58
44.00,2.00,352.12,-22.25,9.50,3.19,-4.81,3.38,23.41,1.58
44.00,0.00,243.19,16.12,-122.81,109.19,-28.38,6.12,26.40,1.60
44.00,1.00,282.75,-4.12,-55.50,4.31,-6.06,-6.44,26.40,1.60
44.00,2.00,352.00,-22.25,9.31,2.31,-2.56,4.94,26.40,1.60
44.00,0.00,242.62,15.94,-125.06,109.12,-24.06,6.44,29.51,1.62
44.00,1.00,282.94,-4.19,-55.56,2.88,-4.31,-5.75,29.51,1.62
44.00,2.00,351.75,-22.25,9.06,-2.31,-2.88,8.00,29.51,1.62
44.00,0.00,242.25,15.81,-127.31,109.19,-21.06,8.69,32.66,1.64
44.00,1.00,283.06,-4.19,-55.62,1.25,-1.94,-4.88,32.66,1.64
44.00,2.00,351.62,-22.25,9.00,-3.44,-2.25,9.31,32.66,1.64
44.00,0.00,241.31,15.75,-129.50,108.94,-17.12,9.81,35.75,1.66
44.00,1.00,283.12,-4.25,-55.69,0.62,-0.38,-3.81,35.75,1.66
44.00,2.00,351.25,-22.38,8.81,-1.75,-0.06,13.69,35.75,1.66
44.00,0.00,240.12,15.69,-131.69,107.56,-13.12,9.50,38.80,1.68
44.00,1.00,283.19,-4.31,-55.69,0.25,1.44,-2.44,38.80,1.68
44.00,2.00,351.12,-22.38,8.69,-1.75,-0.06,13.69,38.80,1.68
44.00,0.00,238.81,15.69,-133.81,104.62,-10.12,9.06,41.90,1.70
44.00,1.00,283.19,-4.38,-55.75,0.19,3.06,-1.06,41.90,1.70
44.00,2.00,350.75,-22.50,8.56,-6.50,1.88,18.62,41.90,1.70
44.00,0.00,237.25,15.69,-135.88,100.56,-5.56,8.69,44.98,1.72
44.00,1.00,283.12,-4.44,-55.75,-1.12,4.81,0.75,44.98,1.72
44.00,2.00,350.06,-22.75,8.38,-9.75,0.38,20.19,44.98,1.72
44.00,0.00,101.19,15.81,-137.81,98.06,-1.50,8.81,47.97,1.74
44.00,1.00,283.06,-4.44,-55.75,-2.44,5.12,1.75,47.97,1.74
44.00,2.00,349.88,-22.81,8.31,-8.81,-0.06,20.62,47.97,1.74
44.00,0.00,101.06,15.94,-139.62,91.19,3.38,8.00,50.78,1.76
44.00,1.00,282.94,-4.50,-55.81,-0.62,6.38,2.56,50.78,1.76
44.00,2.00,349.38,-22.88,8.25,-9.44,0.69,22.62,50.78,1.76
44.00,0.00,100.88,16.12,-141.19,84.31,8.19,8.06,53.45,1.78
44.00,1.00,282.81,-4.56,-55.81,-2.44,7.56,4.31,53.45,1.78
44.00,2.00,348.94,-23.00,8.25,-11.62,0.62,22.75,53.45,1.78
44.00,0.00,100.88,16.44,-142.88,87.00,10.06,14.62,56.25,1.80
44.00,1.00,282.62,-4.56,-55.81,-5.81,9.00,4.69,56.25,1.80
44.00,2.00,348.44,-23.06,8.31,-13.12,-0.31,23.25,56.25,1.80
44.00,0.00,100.88,16.81,-144.69,90.69,9.81,20.12,59.02,1.82
44.00,1.00,282.44,-4.62,-55.75,-1.25,6.81,4.00,59.02,1.82
44.00,2.00,347.69,-23.19,8.38,-8.38,-0.50,22.19,59.02,1.82
44.00,0.00,100.94,17.25,-146.50,88.69,12.44,18.12,61.71,1.84
44.00,1.00,282.31,-4.62,-55.75,-0.81,8.25,3.38,61.71,1.84
44.00,2.00,347.50,-23.19,8.38,-7.62,0.06,20.56,61.71,1.84
44.00,0.00,100.88,17.62,-148.12,82.00,15.75,15.00,64.26,1.86
44.00,1.00,282.19,-4.69,-55.81,-0.12,7.75,3.31,64.26,1.86
44.00,2.00,347.06,-23.25,8.38,-9.38,0.69,18.50,64.26,1.86
44.00,0.00,100.81,18.06,-149.69,75.56,19.12,14.81,66.69,1.88
44.00,1.00,282.00,-4.69,-55.81,-1.94,7.06,3.25,66.69,1.88
44.00,2.00,346.69,-23.31,8.44,-11.50,-0.56,17.81,66.69,1.88
44.00,0.00,100.81,18.62,-151.06,71.00,22.69,17.38,68.99,1.90
44.00,1.00,281.88,-4.75,-55.81,-2.06,6.50,3.56,68.99,1.90
44.00,2.00,346.31,-23.31,8.50,-11.44,-4.56,15.25,68.99,1.90
44.00,0.00,100.81,19.12,-152.44,67.50,21.56,17.44,71.22,1.92
44.00,1.00,281.75,-4.75,-55.75,-2.38,5.38,3.81,71.22,1.92
44.00,2.00,345.94,-23.31,8.62,-12.38,-6.44,14.69,71.22,1.92
44.00,0.00,100.88,19.69,-153.69,61.94,21.81,14.94,73.22,1.94
44.00,1.00,281.69,-4.75,-55.75,-1.62,3.88,3.19,73.22,1.94
44.00,2.00,345.62,-23.19,8.69,-9.75,-6.69,12.69,73.22,1.94
44.00,0.00,100.75,20.06,-154.50,57.19,21.94,12.88,75.05,1.96
44.00,1.00,281.56,-4.75,-55.75,-2.12,3.06,3.00,75.05,1.96
44.00,2.00,345.44,-23.12,8.81,-8.19,-6.62,8.00,75.05,1.96
44.00,0.00,100.62,20.50,-155.19,51.25,22.00,10.31,76.72,1.98
44.00,1.00,281.50,-4.69,-55.69,-1.69,1.38,3.00,76.72,1.98
44.00,2.00,345.25,-23.00,8.94,-8.50,-6.31,6.75,76.72,1.98
44.00,0.00,100.50,20.88,-156.12,46.75,18.88,7.88,78.22,2.00
44.00,1.00,281.44,-4.69,-55.69,-1.12,0.19,2.62,78.22,2.00
44.00,2.00,345.12,-22.88,9.12,-7.06,-7.50,6.12,78.22,2.00
44.00,0.00,100.44,21.31,-156.94,43.31,18.06,7.25,79.55,2.02
44.00,1.00,281.38,-4.62,-55.69,-0.75,-0.44,1.56,79.55,2.02
44.00,2.00,345.00,-22.75,9.19,-4.50,-6.00,3.62,79.55,2.02
44.00,0.00,100.38,21.62,-157.75,39.69,17.44,4.81,80.68,2.04
44.00,1.00,281.38,-4.62,-55.62,-0.81,-1.25,1.00,80.68,2.04
44.00,2.00,344.94,-22.69,9.19,-0.50,-4.56,0.75,80.68,2.04
44.00,0.00,100.19,21.94,-158.38,35.38,16.94,1.88,81.62,2.06
44.00,1.00,281.44,-4.62,-55.62,0.50,-3.06,-0.12,81.62,2.06
44.00,2.00,345.00,-22.56,9.25,1.56,-4.19,-0.19,81.62,2.06
44.00,0.00,100.06,22.25,-159.00,30.94,15.50,-0.44,82.40,2.08
44.00,1.00,281.44,-4.56,-55.62,1.06,-3.88,-0.62,82.40,2.08
44.00,2.00,345.00,-22.50,9.31,2.94,-2.19,-0.38,82.40,2.08
44.00,0.00,100.00,22.50,-159.50,28.81,14.44,-0.06,83.10,2.10
44.00,1.00,281.50,-4.56,-55.69,0.62,-3.31,-0.56,83.10,2.10
44.00,2.00,345.00,-22.50,9.25,3.81,-1.25,-0.31,83.10,2.10
44.00,0.00,99.81,22.81,-160.00,25.56,15.12,-0.25,83.77,2.12
44.00,1.00,281.56,-4.50,-55.69,0.62,-3.12,-0.62,83.77,2.12
44.00,2.00,345.00,-22.44,9.19,1.69,-1.06,0.12,83.77,2.12
44.00,0.00,99.69,23.06,-160.38,23.19,15.50,0.00,84.40,2.14
44.00,1.00,281.62,-4.50,-55.69,-0.62,-2.94,-0.94,84.40,2.14
44.00,2.00,345.00,-22.44,9.19,0.50,-1.56,0.50,84.40,2.14
44.00,0.00,99.56,23.38,-160.75,21.62,15.94,0.06,84.99,2.16
44.00,1.00,281.62,-4.50,-55.62,-1.31,-2.25,-1.06,84.99,2.16
44.00,2.00,345.00,-22.38,9.19,0.62,-0.94,0.50,84.99,2.16
44.00,0.00,99.44,23.69,-161.12,19.50,16.44,-0.31,85.50,2.18
44.00,1.00,281.69,-4.50,-55.62,-1.12,-1.94,-1.12,85.50,2.18
44.00,2.00,345.00,-22.38,9.12,1.06,-1.00,1.06,85.50,2.18
44.00,0.00,99.31,23.94,-161.38,18.62,16.00,-0.56,86.02,2.20
44.00,1.00,281.69,-4.50,-55.56,-1.88,-0.81,-1.19,86.02,2.20
44.00,2.00,345.00,-22.38,9.12,0.19,-0.69,0.25,86.02,2.20
44.00,0.00,99.12,24.25,-161.56,18.12,16.25,-0.44,86.55,2.22
44.00,1.00,281.75,-4.50,-55.56,-0.62,-1.50,-1.06,86.55,2.22
44.00,2.00,345.00,-22.38,9.19,-1.06,-1.75,0.75,86.55,2.22
44.00,0.00,99.00,24.56,-161.75,17.69,16.75,1.00,87.01,2.24
44.00,1.00,281.75,-4.50,-55.56,0.12,-1.50,-0.56,87.01,2.24
44.00,2.00,345.00,-22.31,9.12,1.12,-0.69,0.56,87.01,2.24
44.00,0.00,98.88,24.81,-161.94,16.12,16.00,0.75,87.45,2.26
44.00,1.00,281.81,-4.50,-55.56,-0.56,-1.06,-0.44,87.45,2.26
44.00,2.00,345.00,-22.31,9.12,0.50,0.19,-1.94,87.45,2.26
44.00,0.00,98.75,25.12,-162.19,14.88,15.56,-2.56,87.88,2.28
44.00,1.00,281.81,-4.44,-55.56,-0.56,-3.25,-1.25,87.88,2.28
44.00,2.00,345.06,-22.31,9.19,-0.69,0.25,-3.06,87.88,2.28
44.00,0.00,98.50,25.38,-162.38,13.81,15.25,-4.81,88.16,2.30
44.00,1.00,281.94,-4.44,-55.56,1.44,-4.81,-2.38,88.16,2.30
44.00,2.00,345.12,-22.38,9.19,4.06,2.69,-1.50,88.16,2.30
44.00,0.00,98.31,25.62,-162.56,14.25,13.12,-4.25,88.40,2.32
44.00,1.00,282.00,-4.44,-55.56,0.75,-3.88,-1.94,88.40,2.32
44.00,2.00,345.12,-22.44,9.06,5.62,4.94,0.38,88.40,2.32
44.00,0.00,98.19,25.81,-162.81,16.44,9.81,-1.44,88.77,2.34
44.00,1.00,282.06,-4.44,-55.56,-0.25,-0.88,-1.19,88.77,2.34
44.00,2.00,345.12,-22.56,9.00,3.00,5.19,1.69,88.77,2.34
44.00,0.00,98.06,25.94,-163.12,17.88,6.62,0.19,89.21,2.36
44.00,1.00,282.06,-4.44,-55.56,-0.38,0.88,-0.19,89.21,2.36
44.00,2.00,345.12,-22.62,8.94,2.25,3.50,2.88,89.21,2.36
44.00,0.00,98.00,26.00,-163.44,17.44,1.31,0.56,89.68,2.38
44.00,1.00,282.06,-4.44,-55.56,-1.00,1.62,0.69,89.68,2.38
44.00,2.00,345.06,-22.69,8.94,0.56,2.31,3.25,89.68,2.38
44.00,0.00,98.12,26.00,-163.75,14.44,-1.31,1.44,90.09,2.40
44.00,1.00,282.00,-4.44,-55.56,-1.06,2.31,1.25,90.09,2.40
44.00,2.00,345.00,-22.69,8.88,-0.38,0.56,3.88,90.09,2.40
44.00,0.00,98.06,25.94,-164.00,10.12,-2.50,1.56,90.41,2.42
44.00,1.00,281.94,-4.50,-55.56,-0.19,2.50,1.81,90.41,2.42
44.00,2.00,344.94,-22.69,8.88,-1.06,-1.25,2.94,90.41,2.42
44.00,0.00,98.06,25.88,-164.12,5.25,-2.75,0.31,90.63,2.44
44.00,1.00,281.88,-4.44,-55.56,-0.81,2.44,2.19,90.63,2.44
44.00,2.00,344.88,-22.69,8.94,-2.88,-2.00,0.31,90.63,2.44
44.00,0.00,98.00,25.88,-164.06,-0.62,-1.50,-2.19,90.68,2.46
44.00,1.00,281.81,-4.44,-55.56,-1.12,1.88,1.88,90.68,2.46
44.00,2.00,344.88,-22.62,9.00,-2.25,-2.19,1.00,90.68,2.46
44.00,0.00,98.00,25.81,-163.94,-5.25,-0.12,-3.56,90.59,2.48
44.00,1.00,281.81,-4.44,-55.56,0.19,0.06,1.88,90.59,2.48
44.00,2.00,344.81,-22.62,9.00,-2.06,-1.62,2.19,90.59,2.48
44.00,0.00,97.88,25.88,-163.62,-12.38,2.69,-4.81,90.31,2.50
44.00,1.00,281.75,-4.44,-55.56,-0.12,1.06,2.06,90.31,2.50
44.00,2.00,344.75,-22.62,9.00,-2.44,-1.00,1.75,90.31,2.50
44.00,0.00,97.81,25.88,-163.19,-16.88,2.38,-6.44,89.97,2.52
44.00,1.00,281.69,-4.44,-55.56,-1.19,2.12,2.88,89.97,2.52
44.00,2.00,344.75,-22.56,9.12,-4.69,-1.69,1.00,89.97,2.52
44.00,0.00,97.75,25.88,-162.75,-17.88,2.00,-6.25,89.58,2.54
44.00,1.00,281.62,-4.38,-55.56,-1.00,1.56,2.88,89.58,2.54
44.00,2.00,344.69,-22.56,9.19,-3.88,-1.44,2.38,89.58,2.54
44.00,0.00,97.69,25.88,-162.38,-17.44,0.75,-5.19,89.24,2.56
44.00,1.00,281.56,-4.38,-55.56,-1.75,2.00,2.94,89.24,2.56
44.00,2.00,344.56,-22.56,9.19,-5.25,-0.75,3.19,89.24,2.56
44.00,0.00,97.69,25.81,-161.94,-18.31,0.38,-4.94,88.94,2.58
44.00,1.00,281.44,-4.31,-55.56,-4.00,4.25,3.56,88.94,2.58
44.00,2.00,344.50,-22.56,9.31,-7.44,0.06,1.94,88.94,2.58
44.00,0.00,97.69,25.81,-161.75,-20.38,-0.38,-7.19,88.63,2.60
44.00,1.00,281.31,-4.31,-55.50,-4.06,3.88,3.38,88.63,2.60
44.00,2.00,344.44,-22.50,9.50,-9.31,-1.25,3.31,88.63,2.60
44.00,0.00,97.56,25.75,-161.00,-22.12,0.00,-9.81,88.20,2.62
44.00,1.00,281.25,-4.31,-55.44,-3.06,3.94,3.19,88.20,2.62
44.00,2.00,344.31,-22.56,9.56,-6.69,0.56,4.25,88.20,2.62
44.00,0.00,97.50,25.69,-160.75,-19.19,0.25,-10.44,87.85,2.64
44.00,1.00,281.12,-4.31,-55.44,-4.19,3.94,2.75,87.85,2.64
44.00,2.00,344.19,-22.56,9.69,-6.88,0.69,3.62,87.85,2.64
44.00,0.00,97.31,25.56,-160.06,-16.81,1.25,-12.00,87.59,2.66
44.00,1.00,281.00,-4.31,-55.38,-3.88,3.50,2.50,87.59,2.66
44.00,2.00,344.12,-22.56,9.81,-7.44,1.00,3.06,87.59,2.66
44.00,0.00,97.12,25.50,-159.69,-16.12,0.06,-13.81,87.26,2.68
44.00,1.00,280.94,-4.31,-55.31,-2.88,2.62,2.00,87.26,2.68
44.00,2.00,344.06,-22.62,9.88,-4.25,2.00,3.75,87.26,2.68
44.00,0.00,97.06,25.44,-159.44,-15.19,0.44,-14.75,86.96,2.70
44.00,1.00,280.88,-4.31,-55.25,-3.12,2.31,1.81,86.96,2.70
44.00,2.00,343.94,-22.69,9.94,-4.56,1.75,4.06,86.96,2.70
44.00,0.00,96.81,25.38,-159.00,-14.44,1.75,-15.31,86.71,2.72
44.00,1.00,280.81,-4.31,-55.19,-2.81,2.81,1.94,86.71,2.72
44.00,2.00,343.88,-22.69,10.00,-5.25,0.12,4.62,86.71,2.72
44.00,0.00,96.56,25.25,-158.62,-12.94,2.12,-16.06,86.47,2.74
44.00,1.00,280.75,-4.31,-55.19,-2.81,3.06,2.31,86.47,2.74
44.00,2.00,343.75,-22.69,10.06,-4.31,0.50,4.69,86.47,2.74
44.00,0.00,96.31,25.19,-158.25,-10.81,1.94,-15.88,86.33,2.76
44.00,1.00,280.69,-4.31,-55.12,-2.94,3.25,2.50,86.33,2.76
44.00,2.00,343.62,-22.75,10.12,-5.94,0.38,4.88,86.33,2.76
44.00,0.00,96.06,25.12,-157.88,-9.75,3.00,-14.56,86.20,2.78
44.00,1.00,280.56,-4.31,-55.06,-3.44,3.75,3.06,86.20,2.78
44.00,2.00,343.50,-22.75,10.19,-5.06,1.12,5.44,86.20,2.78
44.00,0.00,95.81,25.12,-157.62,-8.38,4.44,-12.94,86.13,2.80
44.00,1.00,280.44,-4.31,-55.00,-3.69,4.19,3.12,86.13,2.80
44.00,2.00,343.38,-22.81,10.25,-6.06,0.88,6.12,86.13,2.80
44.00,0.00,95.56,25.12,-157.31,-9.69,4.50,-13.19,86.02,2.82
44.00,1.00,280.38,-4.31,-54.94,-4.38,5.19,3.62,86.02,2.82
44.00,2.00,343.25,-22.88,10.31,-5.56,1.50,5.56,86.02,2.82
44.00,0.00,95.38,25.06,-157.00,-10.62,4.38,-13.56,85.93,2.84
44.00,1.00,280.25,-4.31,-54.88,-4.69,5.25,3.44,85.93,2.84
44.00,2.00,343.12,-22.88,10.44,-7.56,0.38,5.00,85.93,2.84
44.00,0.00,95.00,25.06,-156.62,-9.75,4.94,-12.94,85.85,2.86
44.00,1.00,280.12,-4.31,-54.81,-4.06,4.75,3.12,85.85,2.86
44.00,2.00,343.00,-22.88,10.50,-6.88,0.12,4.81,85.85,2.86
44.00,0.00,94.75,25.06,-156.38,-6.88,5.44,-11.31,85.85,2.88
44.00,1.00,280.00,-4.31,-54.75,-4.31,4.38,2.75,85.85,2.88
44.00,2.00,342.88,-22.94,10.62,-6.75,0.44,4.00,85.85,2.88
44.00,0.00,94.56,25.06,-156.12,-6.12,5.38,-10.56,85.83,2.90
44.00,1.00,279.94,-4.31,-54.69,-3.94,3.44,2.69,85.83,2.90
44.00,2.00,342.81,-22.94,10.75,-5.31,0.94,3.38,85.83,2.90
44.00,0.00,94.38,25.06,-155.94,-4.81,4.00,-8.19,85.78,2.92
44.00,1.00,279.88,-4.31,-54.62,-3.31,2.25,1.50,85.78,2.92
44.00,2.00,342.75,-22.94,10.81,-3.00,1.25,2.50,85.78,2.92
44.00,0.00,94.25,25.06,-155.75,-4.75,4.00,-8.06,85.76,2.94
44.00,1.00,279.81,-4.31,-54.56,-3.31,2.19,1.44,85.76,2.94
44.00,2.00,342.69,-23.00,10.94,-4.31,0.50,1.69,85.76,2.94
44.00,0.00,94.12,25.06,-155.56,-3.69,3.56,-6.56,85.79,2.96
44.00,1.00,279.75,-4.31,-54.50,-3.00,1.38,1.44,85.79,2.96
44.00,2.00,342.62,-23.00,11.00,-4.50,0.12,2.06,85.79,2.96
44.00,0.00,94.00,25.12,-155.44,-1.31,3.62,-4.75,85.85,2.98
44.00,1.00,279.69,-4.31,-54.44,-2.94,2.00,1.44,85.85,2.98
44.00,2.00,342.56,-23.00,11.06,-3.69,-0.25,1.62,85.85,2.98
44.00,0.00,93.88,25.12,-155.38,0.12,3.38,-3.75,85.95,3.00
44.00,1.00,279.69,-4.31,-54.38,-2.88,1.62,1.56,85.95,3.00
44.00,2.00,342.50,-23.00,11.12,-3.50,-0.50,1.62,85.95,3.00
44.00,0.00,93.81,25.19,-155.38,1.88,2.81,-2.31,86.10,3.02
44.00,1.00,279.62,-4.31,-54.31,-2.94,1.69,1.69,86.10,3.02
44.00,2.00,342.50,-23.00,11.19,-3.19,-0.75,1.38,86.10,3.02
44.00,0.00,93.75,25.19,-155.44,2.38,2.81,-1.00,86.22,3.04
44.00,1.00,279.56,-4.31,-54.31,-3.00,1.81,1.50,86.22,3.04
44.00,2.00,342.44,-23.00,11.25,-2.06,-1.31,1.69,86.22,3.04
44.00,0.00,93.75,25.25,-155.44,2.25,2.50,-0.69,86.34,3.06
44.00,1.00,279.50,-4.31,-54.25,-2.31,1.50,1.88,86.34,3.06
44.00,2.00,342.38,-22.94,11.25,-1.94,-1.75,2.44,86.34,3.06
44.00,0.00,93.69,25.31,-155.50,2.25,3.06,-0.56,86.46,3.08
44.00,1.00,279.44,-4.31,-54.19,-2.00,1.88,2.56,86.46,3.08
44.00,2.00,342.31,-22.94,11.25,-2.06,-2.62,2.94,86.46,3.08
44.00,0.00,93.69,25.38,-155.50,1.56,4.31,-0.25,86.57,3.10
44.00,1.00,279.38,-4.31,-54.19,-2.31,1.69,2.62,86.57,3.10
44.00,2.00,342.25,-22.88,11.25,-2.44,-2.81,3.31,86.57,3.10
44.00,0.00,93.62,25.50,-155.44,0.81,5.19,0.19,86.66,3.12
44.00,1.00,279.31,-4.25,-54.12,-3.12,2.88,3.38,86.66,3.12
44.00,2.00,342.19,-22.81,11.25,-2.31,-3.00,3.44,86.66,3.12
44.00,0.00,93.62,25.56,-155.44,-0.56,5.81,0.12,86.70,3.14
44.00,1.00,279.19,-4.25,-54.06,-2.94,3.06,4.19,86.70,3.14
44.00,2.00,342.06,-22.81,11.25,-2.12,-3.50,3.88,86.70,3.14
44.00,0.00,93.56,25.69,-155.31,-2.12,6.12,-1.06,86.72,3.16
44.00,1.00,279.06,-4.25,-54.00,-3.12,3.38,5.00,86.72,3.16
44.00,2.00,342.00,-22.75,11.31,-2.94,-3.50,3.88,86.72,3.16
44.00,0.00,93.56,25.81,-155.25,-2.31,6.38,-1.19,86.78,3.18
44.00,1.00,278.94,-4.19,-53.94,-3.25,4.06,5.31,86.78,3.18
44.00,2.00,341.88,-22.69,11.31,-4.44,-4.19,4.31,86.78,3.18
44.00,0.00,93.50,25.88,-155.12,-2.31,6.88,-1.69,86.83,3.20
44.00,1.00,278.75,-4.12,-53.94,-3.56,4.00,5.19,86.83,3.20
44.00,2.00,341.81,-22.62,11.38,-4.00,-3.69,4.50,86.83,3.20
44.00,0.00,93.44,26.00,-155.06,-2.25,7.38,-2.19,86.87,3.22
44.00,1.00,278.62,-4.12,-53.88,-3.00,4.31,4.62,86.87,3.22
44.00,2.00,341.69,-22.56,11.44,-3.75,-2.94,4.69,86.87,3.22
44.00,0.00,93.38,26.12,-154.94,-1.56,7.12,-2.31,86.94,3.24
44.00,1.00,278.50,-4.12,-53.81,-3.25,4.38,4.44,86.94,3.24
44.00,2.00,341.56,-22.50,11.44,-4.12,-2.44,4.81,86.94,3.24
44.00,0.00,93.31,26.19,-154.88,-0.75,6.06,-2.31,87.03,3.26
44.00,1.00,278.38,-4.06,-53.75,-3.38,4.25,4.06,87.03,3.26
44.00,2.00,341.44,-22.50,11.50,-3.94,-2.25,4.81,87.03,3.26
44.00,0.00,93.25,26.25,-154.81,-0.56,4.81,-2.56,87.16,3.28
44.00,1.00,278.25,-4.06,-53.69,-3.31,4.62,3.50,87.16,3.28
44.00,2.00,341.31,-22.50,11.56,-5.31,-1.19,5.00,87.16,3.28
44.00,0.00,93.19,26.31,-154.81,-0.06,5.31,-2.06,87.32,3.30
44.00,1.00,278.12,-4.06,-53.62,-3.38,4.69,3.69,87.32,3.30
44.00,2.00,341.25,-22.50,11.62,-5.50,-1.12,4.75,87.32,3.30
44.00,0.00,93.12,26.38,-154.75,0.62,6.25,-1.62,87.46,3.32
44.00,1.00,278.00,-4.06,-53.62,-3.25,5.06,3.75,87.46,3.32
44.00,2.00,341.12,-22.50,11.69,-4.69,-1.38,4.50,87.46,3.32
44.00,0.00,93.06,26.50,-154.75,1.69,6.62,-1.62,87.60,3.34
44.00,1.00,277.88,-4.06,-53.56,-2.94,4.75,3.88,87.60,3.34
44.00,2.00,341.00,-22.44,11.69,-3.31,-1.62,4.19,87.60,3.34
44.00,0.00,93.00,26.56,-154.75,2.06,6.00,-1.75,87.73,3.36
44.00,1.00,277.75,-4.06,-53.50,-2.50,4.06,3.44,87.73,3.36
44.00,2.00,340.94,-22.44,11.75,-2.38,-1.44,3.75,87.73,3.36
44.00,0.00,92.94,26.69,-154.69,2.19,6.19,-1.44,87.84,3.38
44.00,1.00,277.69,-4.06,-53.44,-2.88,3.19,2.88,87.84,3.38
44.00,2.00,340.88,-22.44,11.75,-1.69,-1.81,3.44,87.84,3.38
44.00,0.00,92.94,26.75,-154.69,1.56,6.00,-1.19,87.93,3.40
44.00,1.00,277.62,-4.06,-53.44,-2.38,2.81,2.69,87.93,3.40
44.00,2.00,340.75,-22.44,11.75,-1.75,-2.19,3.25,87.93,3.40
44.00,0.00,92.81,26.81,-154.62,1.75,5.69,-1.50,88.01,3.42
44.00,1.00,277.50,-4.06,-53.38,-2.06,2.62,2.50,88.01,3.42
44.00,2.00,340.75,-22.38,11.81,-1.00,-1.12,2.12,88.01,3.42
44.00,0.00,92.75,26.88,-154.56,1.19,4.94,-0.75,88.02,3.44
44.00,1.00,277.44,-4.06,-53.38,-2.00,1.94,2.44,88.02,3.44
44.00,2.00,340.69,-22.38,11.81,0.56,-0.12,1.50,88.02,3.44
44.00,0.00,92.75,27.00,-154.56,0.75,4.44,0.50,88.04,3.46
44.00,1.00,277.38,-4.06,-53.31,-1.88,1.56,2.00,88.04,3.46
44.00,2.00,340.69,-22.38,11.81,0.12,0.19,1.69,88.04,3.46
44.00,0.00,92.75,27.06,-154.50,0.62,3.88,1.38,88.03,3.48
44.00,1.00,277.38,-4.06,-53.31,-2.44,1.69,1.81,88.03,3.48
44.00,2.00,340.62,-22.38,11.81,0.94,1.38,-0.12,88.03,3.48
44.00,0.00,92.75,27.12,-154.44,0.12,1.88,2.69,88.01,3.50
44.00,1.00,277.31,-4.06,-53.25,-2.44,1.81,1.62,88.01,3.50
44.00,2.00,340.62,-22.44,11.81,1.00,1.38,-0.50,88.01,3.50
44.00,0.00,92.81,27.12,-154.38,-1.31,1.62,2.94,87.98,3.52
44.00,1.00,277.25,-4.06,-53.19,-2.44,1.25,1.12,87.98,3.52
44.00,2.00,340.69,-22.44,11.88,-0.25,0.50,-1.50,87.98,3.52
44.00,0.00,92.81,27.19,-154.31,-1.44,1.25,3.44,87.91,3.54
44.00,1.00,277.25,-4.06,-53.12,-2.31,0.69,0.56,87.91,3.54
44.00,2.00,340.75,-22.44,11.88,1.00,1.75,-2.62,87.91,3.54
44.00,0.00,92.88,27.19,-154.25,-1.38,1.44,3.06,87.81,3.56
44.00,1.00,277.25,-4.06,-53.06,-2.31,-0.19,0.06,87.81,3.56
44.00,2.00,340.81,-22.44,11.94,2.12,2.19,-3.31,87.81,3.56
44.00,0.00,92.94,27.25,-154.12,-1.62,1.75,2.19,87.73,3.58
44.00,1.00,277.25,-4.06,-53.06,-1.38,-1.25,-0.06,87.73,3.58
44.00,2.00,340.94,-22.50,12.00,1.31,0.94,-3.69,87.73,3.58
44.00,0.00,92.94,27.25,-154.06,-1.38,1.69,1.38,87.65,3.60
44.00,1.00,277.31,-4.06,-53.00,-1.38,-1.75,-0.50,87.65,3.60
44.00,2.00,341.00,-22.50,12.06,1.38,0.94,-3.62,87.65,3.60
44.00,0.00,92.94,27.31,-154.06,-1.62,2.62,2.00,87.54,3.62
44.00,1.00,277.31,-4.06,-53.00,-0.31,-2.50,-0.81,87.54,3.62
44.00,2.00,341.06,-22.50,12.06,2.50,0.50,-2.81,87.54,3.62
44.00,0.00,93.00,27.38,-154.00,-0.94,3.06,2.38,87.46,3.64
44.00,1.00,277.38,-4.06,-53.00,-0.38,-1.94,-0.81,87.46,3.64
44.00,2.00,341.12,-22.50,12.00,2.00,0.25,-2.81,87.46,3.64
44.00,0.00,93.06,27.44,-154.06,-0.38,3.12,2.94,87.41,3.66
44.00,1.00,277.38,-4.06,-52.94,-1.06,-1.25,-0.44,87.41,3.66
44.00,2.00,341.19,-22.44,12.00,1.19,0.31,-2.12,87.41,3.66
44.00,0.00,93.06,27.56,-154.06,-0.44,3.88,3.12,87.40,3.68
44.00,1.00,277.38,-4.06,-52.94,-1.31,-0.38,0.00,87.40,3.68
44.00,2.00,341.19,-22.44,12.00,0.12,-0.94,-1.06,87.40,3.68
44.00,0.00,93.12,27.62,-154.06,-0.25,4.44,2.69,87.38,3.70
44.00,1.00,277.38,-4.06,-52.94,-1.25,0.25,0.44,87.38,3.70
44.00,2.00,341.19,-22.44,12.00,0.19,-0.88,-0.38,87.38,3.70
44.00,0.00,93.19,27.75,-154.06,-0.25,4.25,2.25,87.41,3.72
44.00,1.00,277.38,-4.06,-52.88,-1.75,1.38,1.31,87.41,3.72
44.00,2.00,341.19,-22.38,12.00,-1.12,-1.25,0.69,87.41,3.72
44.00,0.00,93.19,27.81,-154.06,-0.38,2.69,2.44,87.45,3.74
44.00,1.00,277.31,-4.06,-52.88,-1.56,2.06,2.00,87.45,3.74
44.00,2.00,341.19,-22.38,12.06,-1.81,-2.12,2.06,87.45,3.74
44.00,0.00,93.25,27.88,-154.12,-0.56,1.62,2.81,87.45,3.76
44.00,1.00,277.25,-4.06,-52.88,-0.88,2.75,2.00,87.45,3.76
44.00,2.00,341.12,-22.38,12.06,-0.69,-1.56,2.75,87.45,3.76
44.00,0.00,93.25,27.88,-154.12,-0.19,0.50,2.50,87.46,3.78
44.00,1.00,277.19,-4.06,-52.81,-0.62,2.81,2.00,87.46,3.78
44.00,2.00,341.06,-22.31,12.00,-0.50,-1.62,3.12,87.46,3.78
44.00,0.00,93.44,27.88,-154.12,0.31,0.06,2.00,87.50,3.80
44.00,1.00,277.12,-4.06,-52.81,-0.69,3.06,2.19,87.50,3.80
44.00,2.00,341.00,-22.31,12.00,-1.25,-1.44,3.25,87.50,3.80
44.00,0.00,93.44,27.88,-154.19,0.88,-0.31,1.75,87.53,3.82
44.00,1.00,277.00,-4.06,-52.81,-0.69,2.69,2.31,87.53,3.82
44.00,2.00,340.94,-22.31,12.00,-0.12,-2.50,3.31,87.53,3.82
44.00,0.00,93.50,27.88,-154.19,1.44,-0.44,2.00,87.53,3.84
44.00,1.00,276.94,-4.00,-52.81,-0.06,1.88,1.94,87.53,3.84
44.00,2.00,340.88,-22.25,12.00,1.50,-3.00,3.25,87.53,3.84
44.00,0.00,93.50,27.94,-154.25,2.19,0.56,2.38,87.54,3.86
44.00,1.00,276.94,-4.00,-52.81,0.50,1.94,1.62,87.54,3.86
44.00,2.00,340.81,-22.19,12.00,1.69,-3.50,3.12,87.54,3.86
44.00,0.00,93.50,28.00,-154.31,3.56,2.06,1.88,87.56,3.88
44.00,1.00,276.88,-4.00,-52.81,0.62,1.50,1.19,87.56,3.88
44.00,2.00,340.75,-22.12,11.94,3.06,-3.25,2.06,87.56,3.88
44.00,0.00,93.56,28.06,-154.38,3.56,3.56,1.19,87.52,3.90
44.00,1.00,276.88,-4.06,-52.81,2.00,-0.31,0.31,87.52,3.90
44.00,2.00,340.75,-22.06,11.81,4.94,-2.88,0.75,87.52,3.90
44.00,0.00,93.50,28.12,-154.38,3.00,6.25,0.12,87.44,3.92
44.00,1.00,276.94,-4.06,-52.88,3.88,-2.12,0.00,87.44,3.92
44.00,2.00,340.75,-22.06,11.75,5.81,-2.19,-0.19,87.44,3.92
44.00,0.00,93.44,28.25,-154.31,2.69,7.31,-0.50,87.35,3.94
44.00,1.00,276.94,-4.06,-52.94,3.50,-2.75,0.00,87.35,3.94
44.00,2.00,340.81,-22.00,11.75,6.06,-2.00,-1.81,87.35,3.94
44.00,0.00,93.38,28.38,-154.25,2.19,6.62,-1.00,87.19,3.96
44.00,1.00,277.00,-4.00,-53.00,4.44,-4.00,-0.44,87.19,3.96
44.00,2.00,340.94,-22.00,11.69,7.81,-0.88,-2.56,87.19,3.96
44.00,0.00,93.31,28.44,-154.25,1.06,2.25,0.88,87.00,3.98
44.00,1.00,277.06,-4.00,-53.06,5.25,-5.06,-0.81,87.00,3.98
44.00,2.00,341.00,-21.94,11.56,7.94,-0.56,-4.12,87.00,3.98
44.00,0.00,93.38,28.44,-154.25,-0.81,-0.75,2.00,86.80,4.00
44.00,1.00,277.19,-3.94,-53.19,5.12,-6.00,-0.75,86.80,4.00
44.00,2.00,341.12,-21.94,11.56,6.19,-0.25,-5.44,86.80,4.00
