Iteration,IMUNo,OrientationX (deg),OrientationY,OrientationZ,GyroX (20rad/sec),GyroY,GyroZ,Elbow_Pos (rad),Time (sec)
63.00,0.00,236.75,21.88,-100.88,46.25,-1.00,9.75,1.31,1.02
63.00,1.00,262.19,-2.31,-52.31,-0.88,3.75,2.06,1.31,1.02
63.00,2.00,346.06,-21.56,13.62,0.19,-1.06,11.94,1.31,1.02
63.00,0.00,236.25,22.00,-101.81,47.06,-4.06,9.69,2.65,1.02
63.00,1.00,262.19,-2.31,-52.31,-0.56,3.94,2.25,2.65,1.02
63.00,2.00,345.81,-21.62,13.44,0.44,-2.00,13.38,2.65,1.04
63.00,0.00,236.00,22.06,-102.31,46.75,-4.94,9.81,3.98,1.04
63.00,1.00,262.06,-2.31,-52.31,-0.44,4.12,2.62,3.98,1.04
63.00,2.00,345.69,-21.62,13.38,-0.12,-2.06,13.19,3.98,1.06
63.00,0.00,235.56,22.25,-103.25,46.50,-5.88,9.56,5.33,1.06
63.00,1.00,262.00,-2.38,-52.31,-1.06,4.00,2.81,5.33,1.06
63.00,2.00,345.44,-21.62,13.31,-0.69,-2.56,12.12,5.33,1.06
63.00,0.00,235.06,22.38,-104.25,47.06,-7.00,9.12,6.74,1.08
63.00,1.00,261.94,-2.38,-52.31,-1.94,3.25,2.62,6.74,1.08
63.00,2.00,345.19,-21.62,13.25,-2.25,-2.31,11.38,6.74,1.08
63.00,0.00,234.62,22.50,-105.25,48.69,-9.88,10.19,8.17,1.10
63.00,1.00,261.88,-2.38,-52.31,-1.75,2.94,2.19,8.17,1.10
63.00,2.00,344.94,-21.62,13.19,-1.38,-2.38,11.50,8.17,1.10
63.00,0.00,234.19,22.62,-106.31,48.19,-10.94,9.44,9.53,1.12
63.00,1.00,261.81,-2.38,-52.25,-1.81,2.50,1.81,9.53,1.12
63.00,2.00,344.75,-21.62,13.06,0.50,-2.38,10.50,9.53,1.12
63.00,0.00,233.88,22.69,-107.31,49.31,-13.00,8.94,10.86,1.14
63.00,1.00,261.75,-2.44,-52.25,-2.06,1.69,1.25,10.86,1.14
63.00,2.00,344.56,-21.62,13.00,2.50,-2.31,8.75,10.86,1.14
63.00,0.00,233.50,22.81,-108.38,47.25,-11.88,8.00,12.16,1.16
63.00,1.00,261.75,-2.44,-52.19,-1.56,1.19,0.31,12.16,1.16
63.00,2.00,344.38,-21.62,12.88,1.75,-2.06,8.75,12.16,1.16
63.00,0.00,233.06,22.88,-109.31,43.12,-7.06,8.00,13.35,1.18
63.00,1.00,261.75,-2.50,-52.19,-1.69,1.44,0.50,13.35,1.18
63.00,2.00,344.25,-21.62,12.75,1.31,-2.31,7.69,13.35,1.18
63.00,0.00,232.62,23.00,-110.19,40.75,-5.19,7.38,14.45,1.20
63.00,1.00,261.75,-2.50,-52.12,-2.00,1.44,0.50,14.45,1.20
63.00,2.00,344.06,-21.62,12.69,2.25,-2.81,7.12,14.45,1.20
63.00,0.00,232.00,23.12,-110.88,37.50,2.62,6.31,15.45,1.22
63.00,1.00,261.69,-2.50,-52.12,-2.06,1.38,0.62,15.45,1.22
63.00,2.00,343.94,-21.62,12.56,2.50,-1.19,7.44,15.45,1.22
63.00,0.00,231.44,23.25,-111.75,43.88,-5.31,8.50,16.70,1.24
63.00,1.00,261.69,-2.56,-52.06,-2.44,2.00,1.06,16.70,1.24
63.00,2.00,343.81,-21.62,12.44,0.25,-2.56,9.12,16.70,1.24
63.00,0.00,231.00,23.31,-112.81,49.06,-13.19,10.12,18.14,1.26
63.00,1.00,261.62,-2.56,-52.00,-2.75,2.75,1.62,18.14,1.26
63.00,2.00,343.56,-21.56,12.38,-1.62,-3.12,9.00,18.14,1.26
63.00,0.00,230.50,23.38,-113.81,47.06,-9.69,9.12,19.52,1.28
63.00,1.00,261.56,-2.56,-52.00,-2.94,2.06,1.44,19.52,1.28
63.00,2.00,343.44,-21.56,12.31,-1.12,-2.00,7.69,19.52,1.28
63.00,0.00,229.94,23.50,-114.75,44.19,-3.75,5.81,20.79,1.30
63.00,1.00,261.56,-2.56,-51.94,-2.56,1.88,1.06,20.79,1.30
63.00,2.00,343.31,-21.56,12.25,-0.25,-1.56,7.06,20.79,1.30
63.00,0.00,229.38,23.56,-115.62,44.00,-2.00,4.88,22.09,1.32
63.00,1.00,261.50,-2.56,-51.88,-2.00,2.12,1.56,22.09,1.32
63.00,2.00,343.12,-21.56,12.25,-1.75,-1.62,8.06,22.09,1.32
63.00,0.00,229.00,23.62,-116.56,44.88,-2.56,5.81,23.46,1.34
63.00,1.00,261.44,-2.56,-51.88,-2.00,2.19,1.88,23.46,1.34
63.00,2.00,342.94,-21.56,12.19,-2.94,-1.69,8.69,23.46,1.34
63.00,0.00,228.38,23.75,-117.44,44.56,-1.44,6.69,24.83,1.36
63.00,1.00,261.38,-2.56,-51.81,-1.75,2.25,1.62,24.83,1.36
63.00,2.00,342.75,-21.56,12.19,-3.38,-1.62,9.44,24.83,1.36
63.00,0.00,227.56,23.88,-118.31,42.81,3.06,7.44,26.14,1.38
63.00,1.00,261.31,-2.56,-51.81,-1.94,2.50,1.62,26.14,1.38
63.00,2.00,342.56,-21.56,12.19,-3.19,-1.19,9.56,26.14,1.38
63.00,0.00,227.00,24.06,-119.12,43.00,5.56,7.94,27.45,1.40
63.00,1.00,261.25,-2.56,-51.75,-1.88,2.56,1.56,27.45,1.40
63.00,2.00,342.31,-21.62,12.19,-3.12,-1.62,10.19,27.45,1.40
63.00,0.00,226.06,24.19,-120.00,45.19,1.25,8.44,28.83,1.42
63.00,1.00,261.19,-2.62,-51.75,-1.94,3.00,1.62,28.83,1.42
63.00,2.00,342.12,-21.62,12.12,-3.00,-2.38,10.56,28.83,1.42
63.00,0.00,225.31,24.31,-120.94,45.62,-1.75,8.19,30.22,1.44
63.00,1.00,261.12,-2.62,-51.69,-1.12,3.19,1.69,30.22,1.44
63.00,2.00,341.88,-21.56,12.06,-2.94,-3.25,10.44,30.22,1.44
63.00,0.00,224.56,24.44,-121.81,43.69,-0.12,7.38,31.56,1.46
63.00,1.00,261.06,-2.62,-51.69,-1.62,2.56,1.81,31.56,1.46
63.00,2.00,341.69,-21.56,12.06,-3.56,-3.19,9.81,31.56,1.46
63.00,0.00,223.69,24.62,-122.69,42.69,2.81,7.38,32.86,1.48
63.00,1.00,261.06,-2.62,-51.69,-1.50,2.19,1.88,32.86,1.48
63.00,2.00,341.50,-21.56,12.06,-2.81,-3.50,9.25,32.86,1.48
63.00,0.00,222.88,24.75,-123.44,41.75,4.38,8.06,34.11,1.50
63.00,1.00,261.00,-2.69,-51.62,-1.00,2.19,1.69,34.11,1.50
63.00,2.00,341.31,-21.50,12.00,-1.81,-4.00,9.12,34.11,1.50
63.00,0.00,221.94,24.94,-124.19,41.38,4.38,9.31,35.33,1.52
63.00,1.00,261.00,-2.69,-51.62,-0.94,1.44,1.56,35.33,1.52
63.00,2.00,341.12,-21.44,12.00,-1.56,-3.88,8.62,35.33,1.52
63.00,0.00,221.00,25.12,-125.00,40.94,3.81,9.69,36.55,1.54
63.00,1.00,260.94,-2.69,-51.62,-0.75,0.81,1.38,36.55,1.54
63.00,2.00,340.94,-21.44,11.94,-1.69,-4.31,7.69,36.55,1.54
63.00,0.00,220.06,25.31,-125.75,39.88,2.69,8.88,37.70,1.56
63.00,1.00,260.88,-2.69,-51.62,-0.81,0.62,1.38,37.70,1.56
63.00,2.00,340.81,-21.38,11.88,-0.56,-4.12,7.31,37.70,1.56
63.00,0.00,219.31,25.44,-126.38,38.69,1.56,7.56,38.81,1.58
63.00,1.00,260.88,-2.69,-51.62,-0.38,0.75,1.31,38.81,1.58
63.00,2.00,340.62,-21.31,11.81,-0.31,-4.88,6.81,38.81,1.58
63.00,0.00,219.19,25.50,-126.69,36.75,2.56,6.25,39.88,1.60
63.00,1.00,260.88,-2.69,-51.62,-1.12,0.12,1.06,39.88,1.60
63.00,2.00,340.50,-21.19,11.75,-0.62,-5.31,6.31,39.88,1.60
63.00,0.00,218.00,25.62,-127.56,34.75,3.56,6.12,40.89,1.62
63.00,1.00,260.81,-2.62,-51.62,-1.56,0.56,1.38,40.89,1.62
63.00,2.00,340.38,-21.12,11.69,-0.50,-5.62,6.00,40.89,1.62
63.00,0.00,217.56,25.69,-127.88,33.88,3.88,7.31,41.87,1.64
63.00,1.00,260.81,-2.62,-51.56,-1.00,1.25,1.50,41.87,1.64
63.00,2.00,340.25,-21.06,11.62,-0.50,-4.38,6.50,41.87,1.64
63.00,0.00,216.31,25.94,-128.88,31.31,5.06,7.50,42.79,1.66
63.00,1.00,260.75,-2.62,-51.56,-1.38,2.12,1.94,42.79,1.66
63.00,2.00,340.06,-21.00,11.56,-0.94,-4.38,7.31,42.79,1.66
63.00,0.00,215.81,26.06,-129.12,30.00,4.25,6.88,43.73,1.68
63.00,1.00,260.69,-2.62,-51.56,-1.94,2.12,2.00,43.73,1.68
63.00,2.00,339.94,-20.94,11.50,-3.00,-4.62,7.69,43.73,1.68
63.00,0.00,215.06,26.19,-129.75,28.19,2.94,6.12,44.58,1.70
63.00,1.00,260.62,-2.62,-51.50,-1.69,2.06,1.88,44.58,1.70
63.00,2.00,339.75,-20.88,11.50,-1.50,-3.94,7.19,44.58,1.70
63.00,0.00,214.31,26.31,-130.31,25.62,2.44,4.56,45.34,1.72
63.00,1.00,260.56,-2.69,-51.50,-2.06,2.12,1.75,45.34,1.72
63.00,2.00,339.62,-20.88,11.50,-1.12,-3.56,6.25,45.34,1.72
63.00,0.00,213.75,26.38,-130.69,24.31,1.75,4.19,46.09,1.74
63.00,1.00,260.56,-2.69,-51.44,-1.94,2.19,1.88,46.09,1.74
63.00,2.00,339.50,-20.81,11.44,-1.88,-3.56,6.25,46.09,1.74
63.00,0.00,213.19,26.44,-131.19,24.56,1.00,5.38,46.84,1.76
63.00,1.00,260.50,-2.69,-51.44,-1.62,2.38,1.94,46.84,1.76
63.00,2.00,339.38,-20.75,11.44,-1.94,-2.75,6.12,46.84,1.76
63.00,0.00,212.50,26.56,-131.69,23.88,0.44,5.38,47.58,1.78
63.00,1.00,260.44,-2.69,-51.38,-1.12,2.50,1.75,47.58,1.78
63.00,2.00,339.25,-20.75,11.44,-1.94,-2.06,6.38,47.58,1.78
63.00,0.00,212.06,26.62,-132.12,23.31,-0.06,4.88,48.33,1.80
63.00,1.00,260.38,-2.69,-51.38,-1.12,2.62,1.38,48.33,1.80
63.00,2.00,339.12,-20.69,11.44,-2.81,-2.81,5.31,48.33,1.80
63.00,0.00,211.56,26.69,-132.56,22.31,0.81,4.12,49.04,1.82
63.00,1.00,260.31,-2.69,-51.38,-1.94,1.62,1.00,49.04,1.82
63.00,2.00,339.00,-20.69,11.44,-2.56,-2.56,4.19,49.04,1.82
63.00,0.00,211.00,26.75,-132.94,21.75,1.00,3.44,49.76,1.84
63.00,1.00,260.31,-2.69,-51.31,-2.12,1.12,0.81,49.76,1.84
63.00,2.00,338.94,-20.62,11.50,-3.44,-2.62,3.25,49.76,1.84
63.00,0.00,210.56,26.81,-133.25,20.62,1.69,2.88,50.45,1.86
63.00,1.00,260.25,-2.69,-51.31,-2.19,1.06,0.75,50.45,1.86
63.00,2.00,338.81,-20.62,11.50,-3.88,-1.56,3.06,50.45,1.86
63.00,0.00,210.06,26.88,-133.62,20.00,2.69,2.69,51.14,1.88
63.00,1.00,260.25,-2.75,-51.25,-1.50,0.75,0.50,51.14,1.88
63.00,2.00,338.75,-20.56,11.56,-4.06,-1.00,3.31,51.14,1.88
63.00,0.00,209.56,26.94,-133.94,20.31,2.56,2.56,51.89,1.90
63.00,1.00,260.25,-2.75,-51.25,-2.31,0.44,0.44,51.89,1.90
63.00,2.00,338.69,-20.56,11.62,-5.81,-1.19,2.44,51.89,1.90
63.00,0.00,209.00,27.00,-134.31,21.12,1.94,2.38,52.66,1.92
63.00,1.00,260.25,-2.75,-51.19,-1.94,0.00,0.12,52.66,1.92
63.00,2.00,338.62,-20.56,11.75,-5.81,-0.88,1.69,52.66,1.92
63.00,0.00,208.50,27.00,-134.69,21.50,1.00,2.06,53.43,1.94
63.00,1.00,260.25,-2.75,-51.19,-2.00,0.06,-0.44,53.43,1.94
63.00,2.00,338.56,-20.56,11.88,-5.50,-1.06,1.44,53.43,1.94
63.00,0.00,208.00,27.06,-135.06,22.06,-0.38,1.75,54.19,1.96
63.00,1.00,260.25,-2.75,-51.12,-1.62,-0.38,-0.44,54.19,1.96
63.00,2.00,338.50,-20.50,11.94,-4.81,-1.19,1.88,54.19,1.96
63.00,0.00,207.44,27.06,-135.50,23.19,-1.31,1.00,55.00,1.98
63.00,1.00,260.25,-2.75,-51.12,-1.38,-0.44,-0.38,55.00,1.98
63.00,2.00,338.44,-20.50,12.00,-5.19,-1.25,1.62,55.00,1.98
63.00,0.00,206.94,27.00,-135.94,23.88,-2.00,1.19,55.82,2.00
63.00,1.00,260.25,-2.75,-51.06,-1.31,-0.75,-0.31,55.82,2.00
63.00,2.00,338.44,-20.50,12.12,-4.69,-1.31,1.31,55.82,2.00
63.00,0.00,206.50,27.00,-136.44,23.38,-2.81,0.69,56.58,2.02
63.00,1.00,260.25,-2.75,-51.06,-1.06,-1.31,-0.88,56.58,2.02
63.00,2.00,338.38,-20.50,12.19,-3.38,-0.25,1.25,56.58,2.02
63.00,0.00,206.12,26.94,-136.88,21.06,-3.38,-1.00,57.28,2.04
63.00,1.00,260.31,-2.75,-51.00,-1.12,-1.12,-0.94,57.28,2.04
63.00,2.00,338.31,-20.50,12.19,-3.31,-0.50,1.50,57.28,2.04
63.00,0.00,205.94,26.88,-137.25,20.12,-1.88,-1.69,57.96,2.06
63.00,1.00,260.31,-2.75,-51.00,-1.19,-0.62,-1.00,57.96,2.06
63.00,2.00,338.31,-20.50,12.25,-3.81,-0.75,2.12,57.96,2.06
63.00,0.00,205.56,26.81,-137.62,19.25,-0.94,-2.12,58.62,2.08
63.00,1.00,260.31,-2.75,-51.00,-1.25,-0.31,-0.56,58.62,2.08
63.00,2.00,338.25,-20.44,12.31,-3.94,-1.31,1.94,58.62,2.08
63.00,0.00,205.12,26.75,-138.00,19.62,-0.75,-2.38,59.27,2.10
63.00,1.00,260.31,-2.75,-50.94,-1.06,-0.44,-0.56,59.27,2.10
63.00,2.00,338.19,-20.44,12.38,-3.00,-1.62,2.44,59.27,2.10
63.00,0.00,204.69,26.75,-138.38,21.12,-0.88,-1.62,59.95,2.12
63.00,1.00,260.31,-2.81,-50.94,-1.25,0.25,-0.19,59.95,2.12
63.00,2.00,338.12,-20.44,12.38,-2.81,-1.19,3.19,59.95,2.12
63.00,0.00,204.12,26.75,-138.75,20.81,0.38,-1.25,60.64,2.14
63.00,1.00,260.31,-2.81,-50.94,-0.94,0.38,0.06,60.64,2.14
63.00,2.00,338.00,-20.38,12.44,-3.44,-1.88,3.44,60.64,2.14
63.00,0.00,203.62,26.75,-139.12,19.94,0.75,-2.00,61.31,2.16
63.00,1.00,260.31,-2.81,-50.94,-0.75,0.75,0.38,61.31,2.16
63.00,2.00,337.94,-20.38,12.44,-3.56,-2.12,3.81,61.31,2.16
63.00,0.00,203.06,26.75,-139.50,20.25,1.06,-1.12,61.97,2.18
63.00,1.00,260.31,-2.81,-50.94,-0.25,1.25,0.69,61.97,2.18
63.00,2.00,337.81,-20.38,12.50,-2.69,-1.62,3.69,61.97,2.18
63.00,0.00,202.44,26.75,-139.88,21.31,1.50,0.69,62.69,2.20
63.00,1.00,260.31,-2.81,-50.94,-0.19,1.31,0.88,62.69,2.20
63.00,2.00,337.75,-20.31,12.50,-3.81,-2.19,3.88,62.69,2.20
63.00,0.00,201.81,26.81,-140.25,20.50,2.19,0.50,63.38,2.22
63.00,1.00,260.31,-2.81,-50.94,-1.00,0.75,1.12,63.38,2.22
63.00,2.00,337.69,-20.31,12.56,-3.75,-2.38,3.25,63.38,2.22
63.00,0.00,201.19,26.81,-140.56,18.88,2.44,-0.88,64.01,2.24
63.00,1.00,260.25,-2.81,-50.94,-0.75,0.75,0.94,64.01,2.24
63.00,2.00,337.56,-20.25,12.56,-3.31,-2.19,3.50,64.01,2.24
63.00,0.00,200.69,26.88,-140.88,16.69,3.31,-1.06,64.57,2.26
63.00,1.00,260.25,-2.81,-50.94,-0.56,0.56,1.00,64.57,2.26
63.00,2.00,337.50,-20.25,12.62,-3.00,-2.19,3.38,64.57,2.26
63.00,0.00,200.12,26.94,-141.12,15.75,4.12,-1.31,65.10,2.28
63.00,1.00,260.25,-2.81,-50.94,-0.75,0.62,1.06,65.10,2.28
63.00,2.00,337.44,-20.19,12.62,-2.62,-2.69,3.12,65.10,2.28
63.00,0.00,199.62,26.94,-141.38,15.88,3.31,-0.69,65.61,2.30
63.00,1.00,260.19,-2.81,-50.94,-0.31,0.50,0.88,65.61,2.30
63.00,2.00,337.38,-20.19,12.69,-1.94,-2.25,3.19,65.61,2.30
63.00,0.00,199.12,27.00,-141.62,14.38,3.31,-0.69,66.08,2.32
63.00,1.00,260.19,-2.81,-50.94,-0.19,0.12,1.38,66.08,2.32
63.00,2.00,337.25,-20.12,12.69,-2.38,-2.69,3.06,66.08,2.32
63.00,0.00,198.62,27.06,-141.81,13.62,2.94,-0.25,66.55,2.34
63.00,1.00,260.19,-2.81,-50.94,-1.06,0.50,1.12,66.55,2.34
63.00,2.00,337.19,-20.06,12.69,-2.88,-3.00,2.38,66.55,2.34
63.00,0.00,198.31,27.06,-142.06,14.19,2.44,0.44,67.04,2.36
63.00,1.00,260.19,-2.81,-50.88,-1.19,0.06,1.06,67.04,2.36
63.00,2.00,337.12,-20.06,12.75,-2.81,-2.75,2.00,67.04,2.36
63.00,0.00,197.88,27.12,-142.31,13.62,2.56,0.88,67.50,2.38
63.00,1.00,260.12,-2.81,-50.88,-1.00,-0.44,0.88,67.50,2.38
63.00,2.00,337.12,-20.00,12.75,-2.44,-2.00,1.81,67.50,2.38
63.00,0.00,197.44,27.19,-142.50,12.12,2.81,-0.06,67.92,2.40
63.00,1.00,260.12,-2.81,-50.88,-0.81,-0.31,1.06,67.92,2.40
63.00,2.00,337.06,-20.00,12.81,-2.56,-1.88,1.62,67.92,2.40
63.00,0.00,97.75,27.19,-142.69,11.94,2.50,0.19,68.34,2.42
63.00,1.00,260.12,-2.81,-50.88,-1.25,-0.19,0.88,68.34,2.42
63.00,2.00,337.00,-19.94,12.81,-2.75,-2.31,1.94,68.34,2.42
63.00,0.00,97.69,27.25,-142.88,11.88,2.31,0.88,68.76,2.44
63.00,1.00,260.12,-2.75,-50.81,-0.94,0.06,1.00,68.76,2.44
63.00,2.00,336.94,-19.88,12.88,-3.00,-2.25,1.38,68.76,2.44
63.00,0.00,97.62,27.31,-143.12,11.19,2.19,0.50,69.17,2.46
63.00,1.00,260.06,-2.75,-50.81,-1.06,-0.44,0.69,69.17,2.46
63.00,2.00,336.94,-19.88,12.94,-3.12,-2.38,1.12,69.17,2.46
63.00,0.00,97.56,27.31,-143.25,8.69,2.38,-0.69,69.50,2.48
63.00,1.00,260.06,-2.75,-50.81,-0.88,-0.44,0.56,69.50,2.48
63.00,2.00,336.88,-19.81,12.94,-3.00,-2.31,1.06,69.50,2.48
63.00,0.00,97.62,27.31,-143.38,8.06,1.88,-1.62,69.82,2.50
63.00,1.00,260.06,-2.75,-50.81,-0.88,-0.38,0.44,69.82,2.50
63.00,2.00,336.88,-19.75,13.00,-3.12,-1.62,0.56,69.82,2.50
63.00,0.00,97.50,27.31,-143.56,9.88,0.81,-0.94,70.20,2.52
63.00,1.00,260.06,-2.75,-50.75,-1.19,-0.38,0.38,70.20,2.52
63.00,2.00,336.88,-19.75,13.06,-3.25,-1.56,0.31,70.20,2.52
63.00,0.00,97.44,27.31,-143.75,12.44,-0.81,0.38,70.65,2.54
63.00,1.00,260.06,-2.75,-50.75,-1.25,-0.44,0.06,70.65,2.54
63.00,2.00,336.81,-19.69,13.12,-3.62,-1.81,0.25,70.65,2.54
63.00,0.00,97.38,27.31,-144.06,13.88,-2.44,0.69,71.16,2.56
63.00,1.00,260.06,-2.75,-50.75,-0.69,-1.12,0.00,71.16,2.56
63.00,2.00,336.81,-19.69,13.19,-3.88,-1.06,0.62,71.16,2.56
63.00,0.00,97.38,27.25,-144.31,13.94,-3.50,0.44,71.68,2.58
63.00,1.00,260.12,-2.75,-50.69,-1.50,-1.50,-0.25,71.68,2.58
63.00,2.00,336.81,-19.62,13.25,-4.38,-0.88,0.75,71.68,2.58
63.00,0.00,97.38,27.19,-144.69,15.94,-3.38,1.25,72.25,2.60
63.00,1.00,260.12,-2.75,-50.69,-1.81,-1.06,-0.56,72.25,2.60
63.00,2.00,336.75,-19.62,13.38,-4.00,-0.62,0.62,72.25,2.60
63.00,0.00,97.31,27.19,-145.06,18.44,-2.44,2.19,72.84,2.62
63.00,1.00,260.12,-2.69,-50.62,-0.94,-1.31,-0.62,72.84,2.62
63.00,2.00,336.75,-19.62,13.38,-2.06,-0.94,1.31,72.84,2.62
63.00,0.00,97.25,27.19,-145.44,17.81,-2.31,0.94,73.41,2.64
63.00,1.00,260.12,-2.69,-50.62,-0.50,-1.06,-0.56,73.41,2.64
63.00,2.00,336.69,-19.62,13.44,-2.31,-1.25,1.44,73.41,2.64
63.00,0.00,97.25,27.12,-145.75,16.88,-2.31,-0.31,73.99,2.66
63.00,1.00,260.12,-2.69,-50.62,-0.25,-0.62,-0.44,73.99,2.66
63.00,2.00,336.62,-19.56,13.44,-3.31,-1.62,2.62,73.99,2.66
63.00,0.00,97.12,27.12,-146.12,16.31,-0.50,-0.56,74.54,2.68
63.00,1.00,260.12,-2.69,-50.62,0.12,-0.06,-0.12,74.54,2.68
63.00,2.00,336.56,-19.56,13.50,-3.06,-1.81,2.81,74.54,2.68
63.00,0.00,97.25,27.12,-146.44,17.06,-0.62,-0.50,75.11,2.70
63.00,1.00,260.12,-2.69,-50.62,0.38,-0.06,-0.12,75.11,2.70
63.00,2.00,336.50,-19.56,13.50,-2.94,-1.94,3.06,75.11,2.70
63.00,0.00,97.19,27.12,-146.81,19.38,-1.44,0.62,75.73,2.72
63.00,1.00,260.12,-2.69,-50.62,0.44,0.12,0.06,75.73,2.72
63.00,2.00,336.44,-19.50,13.56,-2.12,-2.62,2.88,75.73,2.72
63.00,0.00,97.12,27.12,-147.19,21.19,-0.88,2.00,76.39,2.74
63.00,1.00,260.12,-2.69,-50.62,-0.19,0.00,0.06,76.39,2.74
63.00,2.00,336.38,-19.44,13.56,-2.00,-2.50,2.88,76.39,2.74
63.00,0.00,97.06,27.12,-147.62,21.31,0.00,2.50,77.04,2.76
63.00,1.00,260.12,-2.69,-50.62,-0.31,-0.12,0.44,77.04,2.76
63.00,2.00,336.31,-19.44,13.56,-1.69,-2.19,2.25,77.04,2.76
63.00,0.00,97.00,27.19,-148.06,19.75,1.12,1.88,77.66,2.78
63.00,1.00,260.12,-2.69,-50.62,-0.44,-0.31,0.50,77.66,2.78
63.00,2.00,336.25,-19.38,13.62,-1.81,-3.56,2.12,77.66,2.78
63.00,0.00,96.94,27.25,-148.38,18.62,2.44,1.06,78.19,2.80
63.00,1.00,260.12,-2.69,-50.62,0.56,-0.44,0.50,78.19,2.80
63.00,2.00,336.19,-19.31,13.56,-0.12,-4.12,2.31,78.19,2.80
63.00,0.00,96.75,27.25,-148.56,16.19,3.69,-0.44,78.67,2.82
63.00,1.00,260.12,-2.69,-50.62,0.94,-0.69,0.44,78.67,2.82
63.00,2.00,336.12,-19.25,13.56,-0.31,-4.94,1.94,78.67,2.82
63.00,0.00,96.62,27.31,-148.62,13.12,4.00,-2.00,79.01,2.84
63.00,1.00,260.19,-2.69,-50.69,0.81,-1.00,0.50,79.01,2.84
63.00,2.00,336.12,-19.12,13.56,1.19,-4.06,0.88,79.01,2.84
63.00,0.00,96.56,27.31,-148.75,10.81,4.19,-3.25,79.24,2.86
63.00,1.00,260.19,-2.69,-50.69,1.44,-2.06,0.00,79.24,2.86
63.00,2.00,336.12,-19.06,13.50,2.75,-2.88,0.12,79.24,2.86
63.00,0.00,96.44,27.38,-148.88,10.75,2.62,-2.75,79.48,2.88
63.00,1.00,260.19,-2.69,-50.75,0.62,-2.31,-0.25,79.48,2.88
63.00,2.00,336.12,-19.06,13.44,2.25,-1.44,-0.56,79.48,2.88
63.00,0.00,96.44,27.38,-149.12,11.38,1.50,-1.00,79.76,2.90
63.00,1.00,260.25,-2.62,-50.75,0.19,-3.12,-0.25,79.76,2.90
63.00,2.00,336.12,-19.06,13.44,1.44,-1.12,-1.56,79.76,2.90
63.00,0.00,96.38,27.38,-149.25,9.62,0.88,-1.31,79.96,2.92
63.00,1.00,260.31,-2.62,-50.75,0.88,-3.44,-0.75,79.96,2.92
63.00,2.00,336.19,-19.00,13.38,2.69,-0.50,-2.19,79.96,2.92
63.00,0.00,96.25,27.31,-149.25,6.88,-0.50,-1.81,80.05,2.94
63.00,1.00,260.38,-2.62,-50.75,0.69,-3.62,-1.44,80.05,2.94
63.00,2.00,336.25,-19.00,13.31,3.56,1.25,-2.12,80.05,2.94
63.00,0.00,96.31,27.31,-149.25,3.69,0.00,-2.25,80.03,2.96
63.00,1.00,260.44,-2.56,-50.75,1.31,-3.69,-1.75,80.03,2.96
63.00,2.00,336.31,-19.06,13.25,4.56,1.81,-1.81,80.03,2.96
63.00,0.00,96.25,27.31,-149.12,0.81,1.12,-2.19,79.95,2.98
63.00,1.00,260.50,-2.56,-50.81,1.00,-2.62,-1.38,79.95,2.98
63.00,2.00,336.31,-19.06,13.25,3.62,1.50,-2.81,79.95,2.98
63.00,0.00,96.19,27.31,-149.00,-2.25,1.38,-3.12,79.80,3.00
63.00,1.00,260.56,-2.56,-50.81,1.25,-2.69,-1.06,79.80,3.00
63.00,2.00,336.44,-19.06,13.19,3.06,0.81,-3.25,79.80,3.00
63.00,0.00,96.12,27.31,-148.88,-2.31,0.81,-2.50,79.62,3.02
63.00,1.00,260.56,-2.56,-50.81,1.50,-2.94,-1.06,79.62,3.02
63.00,2.00,336.50,-19.06,13.12,3.75,0.81,-3.38,79.62,3.02
63.00,0.00,96.06,27.31,-148.81,-3.31,0.56,-2.31,79.48,3.04
63.00,1.00,260.62,-2.56,-50.88,1.00,-3.19,-0.75,79.48,3.04
63.00,2.00,336.56,-19.06,13.06,1.69,0.19,-3.50,79.48,3.04
63.00,0.00,96.12,27.25,-148.62,-5.25,1.00,-3.06,79.26,3.06
63.00,1.00,260.69,-2.50,-50.88,1.25,-2.94,-0.44,79.26,3.06
63.00,2.00,336.69,-19.06,13.06,2.50,1.25,-3.62,79.26,3.06
63.00,0.00,96.06,27.25,-148.44,-8.06,1.81,-3.94,78.98,3.08
63.00,1.00,260.69,-2.50,-50.94,1.44,-2.88,-0.44,78.98,3.08
63.00,2.00,336.69,-19.06,13.06,1.75,1.12,-2.81,78.98,3.08
63.00,0.00,96.06,27.25,-148.25,-9.31,3.44,-4.62,78.71,3.10
63.00,1.00,260.75,-2.44,-50.94,0.62,-2.12,-0.12,78.71,3.10
63.00,2.00,336.75,-19.06,13.00,0.19,1.62,-1.69,78.71,3.10
63.00,0.00,96.00,27.31,-148.00,-8.62,5.00,-4.50,78.47,3.12
63.00,1.00,260.75,-2.44,-50.94,-0.12,-1.12,0.44,78.47,3.12
63.00,2.00,336.81,-19.06,13.00,-0.06,2.38,-0.69,78.47,3.12
63.00,0.00,95.94,27.31,-147.75,-8.00,6.06,-3.81,78.29,3.14
63.00,1.00,260.75,-2.44,-50.94,-1.25,0.06,1.00,78.29,3.14
63.00,2.00,336.81,-19.12,13.00,-2.00,1.50,-0.12,78.29,3.14
63.00,0.00,95.94,27.44,-147.56,-7.94,6.94,-3.75,78.12,3.16
63.00,1.00,260.69,-2.38,-50.94,-1.62,0.88,1.50,78.12,3.16
63.00,2.00,336.75,-19.12,13.00,-1.88,1.19,0.75,78.12,3.16
63.00,0.00,95.88,27.50,-147.38,-8.62,7.94,-4.31,77.91,3.18
63.00,1.00,260.62,-2.38,-50.88,-1.31,1.50,1.75,77.91,3.18
63.00,2.00,336.75,-19.12,13.00,-1.31,1.06,1.69,77.91,3.18
63.00,0.00,95.88,27.62,-147.12,-9.12,7.50,-4.06,77.68,3.20
63.00,1.00,260.56,-2.38,-50.88,-0.75,1.94,2.12,77.68,3.20
63.00,2.00,336.69,-19.19,12.94,-1.12,0.19,2.69,77.68,3.20
63.00,0.00,95.81,27.69,-146.94,-8.38,6.62,-3.44,77.50,3.22
63.00,1.00,260.50,-2.38,-50.88,-1.00,2.38,2.62,77.50,3.22
63.00,2.00,336.62,-19.19,12.94,-2.06,0.19,3.06,77.50,3.22
63.00,0.00,95.75,27.69,-146.75,-7.31,5.25,-3.00,77.35,3.24
63.00,1.00,260.44,-2.38,-50.88,-0.81,2.38,3.00,77.35,3.24
63.00,2.00,336.56,-19.19,12.94,-1.75,0.44,3.62,77.35,3.24
63.00,0.00,95.75,27.75,-146.69,-5.81,3.62,-2.06,77.23,3.26
63.00,1.00,260.38,-2.38,-50.88,-1.25,2.94,3.06,77.23,3.26
63.00,2.00,336.44,-19.19,12.94,-1.88,0.56,4.06,77.23,3.26
63.00,0.00,95.75,27.81,-146.56,-5.50,3.25,-1.25,77.13,3.28
63.00,1.00,260.25,-2.38,-50.88,-1.56,3.50,3.06,77.13,3.28
63.00,2.00,336.38,-19.19,12.94,-1.81,0.88,4.12,77.13,3.28
63.00,0.00,95.75,27.81,-146.50,-6.31,3.25,-0.81,77.00,3.30
63.00,1.00,260.19,-2.31,-50.88,-1.44,3.25,2.88,77.00,3.30
63.00,2.00,336.31,-19.25,12.94,-2.00,0.62,4.12,77.00,3.30
63.00,0.00,95.75,27.94,-146.25,-8.06,3.62,-1.31,76.87,3.32
63.00,1.00,260.06,-2.38,-50.88,-2.25,3.56,3.12,76.87,3.32
63.00,2.00,336.19,-19.25,12.94,-3.19,0.38,2.88,76.87,3.32
63.00,0.00,95.75,27.94,-146.06,-7.75,3.31,-0.75,76.75,3.34
63.00,1.00,260.00,-2.38,-50.81,-3.25,3.38,2.69,76.75,3.34
63.00,2.00,336.12,-19.25,13.00,-3.88,-0.50,2.69,76.75,3.34
63.00,0.00,95.81,28.00,-145.94,-6.69,2.94,0.62,76.68,3.36
63.00,1.00,259.94,-2.38,-50.81,-3.38,2.94,2.06,76.68,3.36
63.00,2.00,336.06,-19.25,13.06,-4.00,-0.38,2.12,76.68,3.36
63.00,0.00,95.81,28.06,-145.88,-4.88,1.31,1.94,76.65,3.38
63.00,1.00,259.88,-2.38,-50.75,-4.12,2.94,2.12,76.65,3.38
63.00,2.00,336.06,-19.25,13.12,-4.00,-0.12,1.94,76.65,3.38
63.00,0.00,95.88,28.06,-145.81,-5.88,0.94,2.00,76.59,3.40
63.00,1.00,259.81,-2.38,-50.69,-3.69,3.06,2.00,76.59,3.40
63.00,2.00,336.00,-19.25,13.19,-3.69,0.50,2.12,76.59,3.40
63.00,0.00,96.12,28.12,-145.69,-6.69,0.31,1.69,76.53,3.42
63.00,1.00,259.75,-2.38,-50.56,-4.69,2.50,1.56,76.53,3.42
63.00,2.00,335.94,-19.25,13.25,-4.50,-0.50,1.50,76.53,3.42
63.00,0.00,96.19,28.12,-145.56,-7.00,-0.19,0.62,76.43,3.44
63.00,1.00,259.69,-2.44,-50.50,-3.94,2.94,0.75,76.43,3.44
63.00,2.00,335.88,-19.25,13.31,-3.44,-0.31,1.62,76.43,3.44
63.00,0.00,96.19,28.12,-145.44,-6.12,-0.75,0.31,76.36,3.46
63.00,1.00,259.62,-2.44,-50.44,-3.38,2.06,0.94,76.36,3.46
63.00,2.00,335.81,-19.25,13.38,-3.88,-0.06,1.88,76.36,3.46
63.00,0.00,96.25,28.06,-145.38,-2.38,-1.62,0.69,76.42,3.48
63.00,1.00,259.62,-2.44,-50.38,-3.88,2.06,1.00,76.42,3.48
63.00,2.00,335.81,-19.25,13.44,-4.31,-0.94,1.12,76.42,3.48
63.00,0.00,96.25,28.06,-145.38,-1.12,-0.81,0.50,76.48,3.50
63.00,1.00,259.56,-2.44,-50.31,-3.62,1.44,0.56,76.48,3.50
63.00,2.00,335.75,-19.25,13.50,-3.19,-0.69,1.00,76.48,3.50
63.00,0.00,96.31,28.06,-145.38,-1.81,-0.12,-0.38,76.48,3.52
63.00,1.00,259.56,-2.50,-50.25,-2.94,1.62,0.00,76.48,3.52
63.00,2.00,335.75,-19.25,13.56,-1.94,0.31,1.00,76.48,3.52
63.00,0.00,96.31,28.06,-145.31,-1.56,0.31,-1.00,76.48,3.54
63.00,1.00,259.56,-2.50,-50.19,-3.19,1.00,0.19,76.48,3.54
63.00,2.00,335.75,-19.25,13.56,-1.69,-0.12,0.62,76.48,3.54
63.00,0.00,96.31,28.06,-145.25,-1.31,0.81,-1.25,76.51,3.56
63.00,1.00,259.56,-2.50,-50.12,-2.62,0.94,0.50,76.51,3.56
63.00,2.00,335.69,-19.25,13.62,-2.12,-0.44,0.75,76.51,3.56
63.00,0.00,96.25,28.06,-145.25,-0.31,1.12,-1.81,76.56,3.58
63.00,1.00,259.50,-2.50,-50.06,-2.56,0.81,0.62,76.56,3.58
63.00,2.00,335.69,-19.25,13.62,-2.06,-0.44,1.25,76.56,3.58
63.00,0.00,96.19,28.06,-145.19,-0.31,1.44,-2.00,76.62,3.60
63.00,1.00,259.50,-2.56,-50.06,-2.12,1.56,0.44,76.62,3.60
63.00,2.00,335.62,-19.25,13.69,-2.50,0.19,1.44,76.62,3.60
63.00,0.00,96.38,28.06,-145.19,-0.06,1.31,-1.31,76.67,3.62
63.00,1.00,259.50,-2.56,-50.00,-2.31,2.31,0.12,76.67,3.62
63.00,2.00,335.62,-19.25,13.69,-1.75,0.56,1.50,76.67,3.62
63.00,0.00,96.38,28.06,-145.19,0.19,1.62,-1.38,76.72,3.64
63.00,1.00,259.44,-2.62,-49.94,-2.25,2.44,0.00,76.72,3.64
63.00,2.00,335.56,-19.25,13.75,-1.75,0.31,2.06,76.72,3.64
63.00,0.00,96.31,28.06,-145.19,1.00,1.75,-1.50,76.80,3.66
63.00,1.00,259.44,-2.62,-49.94,-2.06,2.25,-0.12,76.80,3.66
63.00,2.00,335.50,-19.25,13.75,-1.88,0.00,2.38,76.80,3.66
63.00,0.00,96.25,28.06,-145.19,0.88,2.00,-1.62,76.87,3.68
63.00,1.00,259.44,-2.69,-49.88,-2.25,2.44,0.06,76.87,3.68
63.00,2.00,335.44,-19.31,13.75,-1.38,0.94,2.56,76.87,3.68
63.00,0.00,96.25,28.12,-145.12,1.00,2.19,-1.56,76.94,3.70
63.00,1.00,259.44,-2.69,-49.88,-2.69,3.06,0.69,76.94,3.70
63.00,2.00,335.38,-19.31,13.75,-1.62,0.69,3.19,76.94,3.70
63.00,0.00,96.19,28.12,-145.12,0.31,2.50,-1.31,77.02,3.72
63.00,1.00,259.31,-2.75,-49.81,-2.62,3.50,1.06,77.02,3.72
63.00,2.00,335.31,-19.31,13.75,-2.50,0.19,3.56,77.02,3.72
63.00,0.00,96.12,28.12,-145.12,-0.25,2.19,-0.62,77.08,3.74
63.00,1.00,259.31,-2.75,-49.75,-2.44,3.75,1.38,77.08,3.74
63.00,2.00,335.25,-19.38,13.81,-2.31,-0.06,3.50,77.08,3.74
63.00,0.00,96.12,28.19,-145.12,-0.56,0.94,0.12,77.13,3.76
63.00,1.00,259.19,-2.81,-49.69,-2.88,4.12,1.88,77.13,3.76
63.00,2.00,335.19,-19.38,13.81,-2.19,-0.19,3.44,77.13,3.76
63.00,0.00,96.12,28.19,-145.12,-0.25,0.00,0.25,77.16,3.78
63.00,1.00,259.12,-2.81,-49.69,-3.06,4.12,2.06,77.16,3.78
63.00,2.00,335.06,-19.38,13.81,-1.44,0.50,3.69,77.16,3.78
63.00,0.00,96.12,28.19,-145.06,-1.06,0.19,0.19,77.20,3.80
63.00,1.00,259.12,-2.81,-49.62,-3.75,4.00,2.56,77.20,3.80
63.00,2.00,335.00,-19.38,13.81,-2.19,0.31,4.12,77.20,3.80
63.00,0.00,96.12,28.19,-145.00,-2.06,1.06,0.25,77.25,3.82
63.00,1.00,258.94,-2.88,-49.56,-3.19,3.81,3.00,77.25,3.82
63.00,2.00,334.88,-19.44,13.88,-3.81,-1.06,4.25,77.25,3.82
63.00,0.00,96.19,28.19,-145.00,-2.81,1.19,0.12,77.25,3.84
63.00,1.00,258.88,-2.88,-49.50,-3.31,3.81,3.12,77.25,3.84
63.00,2.00,334.81,-19.44,13.88,-3.12,-0.69,3.94,77.25,3.84
63.00,0.00,96.19,28.25,-144.94,-2.94,1.31,0.00,77.24,3.86
63.00,1.00,258.81,-2.88,-49.44,-3.25,3.81,3.00,77.24,3.86
63.00,2.00,334.75,-19.44,13.94,-2.31,-0.31,4.12,77.24,3.86
63.00,0.00,96.19,28.25,-144.88,-2.75,1.50,-0.38,77.26,3.88
63.00,1.00,258.69,-2.88,-49.38,-3.06,3.62,2.56,77.26,3.88
63.00,2.00,334.62,-19.44,13.94,-3.62,-1.19,4.56,77.26,3.88
63.00,0.00,96.19,28.25,-144.75,-2.56,1.94,-0.25,77.27,3.90
63.00,1.00,258.62,-2.88,-49.38,-2.44,4.19,2.50,77.27,3.90
63.00,2.00,334.56,-19.44,14.00,-2.75,-0.69,3.75,77.27,3.90
63.00,0.00,96.19,28.31,-144.69,-2.44,2.62,-0.38,77.27,3.92
63.00,1.00,258.50,-2.94,-49.31,-2.50,3.94,2.50,77.27,3.92
63.00,2.00,334.44,-19.44,14.00,-2.50,-0.12,3.69,77.27,3.92
63.00,0.00,96.19,28.38,-144.62,-2.31,2.44,0.06,77.28,3.94
63.00,1.00,258.44,-2.94,-49.25,-2.56,3.31,2.38,77.28,3.94
63.00,2.00,334.38,-19.50,14.00,-2.75,-0.44,3.75,77.28,3.94
63.00,0.00,96.19,28.38,-144.56,-2.31,3.06,0.12,77.29,3.96
63.00,1.00,258.38,-2.94,-49.25,-2.38,2.69,2.31,77.29,3.96
63.00,2.00,334.31,-19.44,14.06,-2.75,-1.38,3.06,77.29,3.96
63.00,0.00,96.19,28.44,-144.50,-1.56,1.62,-0.19,77.31,3.98
63.00,1.00,258.31,-2.94,-49.19,-2.00,2.44,2.25,77.31,3.98
63.00,2.00,334.25,-19.44,14.06,-2.06,-0.81,3.06,77.31,3.98
63.00,0.00,96.12,28.44,-144.50,-1.56,1.81,-0.12,77.31,4.00
63.00,1.00,258.25,-2.94,-49.12,-1.56,2.19,2.00,77.31,4.00
63.00,2.00,334.19,-19.44,14.12,-1.75,-0.50,3.19,77.31,4.00
63.00,0.00,96.12,28.50,-144.44,-1.56,2.25,-0.25,77.32,4.02
63.00,1.00,258.25,-2.94,-49.12,-1.62,2.12,1.81,77.32,4.02
63.00,2.00,334.12,-19.44,14.12,-1.81,-0.81,2.75,77.32,4.02
63.00,0.00,96.12,28.50,-144.38,-1.50,1.75,0.12,77.32,4.04
63.00,1.00,258.12,-2.94,-49.06,-1.56,1.94,1.44,77.32,4.04
63.00,2.00,334.06,-19.44,14.12,-1.62,-0.75,2.38,77.32,4.04
63.00,0.00,96.12,28.56,-144.31,-1.06,2.06,0.75,77.33,4.06
63.00,1.00,258.12,-2.94,-49.06,-1.62,1.94,1.31,77.33,4.06
63.00,2.00,334.00,-19.44,14.12,-1.31,-0.12,2.56,77.33,4.06
63.00,0.00,96.19,28.56,-144.31,-1.25,1.81,1.31,77.32,4.08
63.00,1.00,258.06,-2.94,-49.00,-1.31,2.31,1.62,77.32,4.08
63.00,2.00,333.94,-19.50,14.19,-1.00,-0.56,2.31,77.32,4.08
63.00,0.00,96.19,28.62,-144.25,-1.19,1.69,1.69,77.35,4.10
63.00,1.00,258.00,-2.94,-49.00,-1.25,2.50,1.50,77.35,4.10
63.00,2.00,333.88,-19.44,14.19,-2.12,-1.38,1.75,77.35,4.10
63.00,0.00,96.25,28.69,-144.25,-1.81,1.50,1.62,77.33,4.12
63.00,1.00,258.00,-3.00,-49.00,-0.94,2.38,1.62,77.33,4.12
63.00,2.00,333.88,-19.44,14.19,-0.94,-1.00,1.25,77.33,4.12
63.00,0.00,96.25,28.75,-144.19,-2.38,1.81,1.31,77.29,4.14
63.00,1.00,257.94,-3.00,-49.00,-0.69,1.50,1.69,77.29,4.14
63.00,2.00,333.81,-19.44,14.19,-1.12,-0.75,1.31,77.29,4.14
63.00,0.00,96.31,28.75,-144.12,-2.94,1.50,1.62,77.23,4.16
63.00,1.00,257.88,-3.00,-48.94,-0.56,1.31,1.50,77.23,4.16
63.00,2.00,333.81,-19.44,14.25,-0.88,-0.62,1.00,77.23,4.16
63.00,0.00,96.31,28.81,-144.06,-2.44,1.69,1.94,77.18,4.18
63.00,1.00,257.88,-3.00,-48.94,-1.00,1.06,1.38,77.18,4.18
63.00,2.00,333.81,-19.38,14.25,-0.62,-1.06,-0.06,77.18,4.18
63.00,0.00,96.38,28.88,-144.00,-1.88,2.31,2.12,77.12,4.20
63.00,1.00,257.81,-3.00,-48.94,0.00,0.38,0.94,77.12,4.20
63.00,2.00,333.81,-19.38,14.25,0.12,-0.44,-0.56,77.12,4.20
63.00,0.00,96.38,28.94,-143.94,-1.75,2.69,1.50,77.06,4.22
63.00,1.00,257.81,-3.00,-48.94,0.69,-1.06,0.31,77.06,4.22
63.00,2.00,333.81,-19.38,14.31,0.44,-0.56,-1.12,77.06,4.22
63.00,0.00,189.94,28.94,-143.88,-1.12,2.31,1.50,76.97,4.24
63.00,1.00,257.88,-3.00,-48.94,1.56,-2.12,-0.38,76.97,4.24
63.00,2.00,333.88,-19.38,14.31,2.00,0.12,-1.75,76.97,4.24
63.00,0.00,189.88,29.00,-143.88,-0.12,2.19,2.06,76.89,4.26
63.00,1.00,257.88,-3.00,-48.94,1.88,-2.44,-0.75,76.89,4.26
63.00,2.00,333.94,-19.31,14.31,2.88,0.19,-2.69,76.89,4.26
63.00,0.00,189.75,29.06,-143.88,0.38,2.00,2.44,76.79,4.28
63.00,1.00,257.94,-3.00,-49.00,2.50,-3.75,-1.25,76.79,4.28
63.00,2.00,334.00,-19.31,14.25,3.88,0.31,-3.00,76.79,4.28
