Iteration,IMUNo,OrientationX (deg),OrientationY,OrientationZ,GyroX (20rad/sec),GyroY,GyroZ,Elbow_Pos (rad),Time (sec)
21.00,0.00,237.69,0.94,-101.50,-0.31,0.44,-0.19,-0.02,1.00
21.00,1.00,238.50,-2.00,-62.25,-0.50,-0.62,0.50,-0.02,1.02
21.00,2.00,311.56,-15.44,20.56,0.00,-0.94,0.62,-0.02,1.02
21.00,0.00,237.69,0.94,-101.50,0.12,0.50,-0.06,-0.01,1.02
21.00,1.00,238.50,-2.00,-62.25,-0.88,-1.44,0.31,-0.01,1.02
21.00,2.00,311.56,-15.44,20.56,-0.06,-0.38,0.56,-0.01,1.04
21.00,0.00,237.69,0.94,-101.50,0.31,0.00,0.44,0.04,1.04
21.00,1.00,238.50,-1.94,-62.25,-0.25,-1.00,0.00,0.04,1.04
21.00,2.00,311.56,-15.44,20.56,-0.62,-0.06,0.31,0.04,1.04
21.00,0.00,237.62,1.00,-101.50,0.25,0.56,1.06,0.08,1.06
21.00,1.00,238.50,-1.94,-62.25,-0.19,-0.25,-0.12,0.08,1.06
21.00,2.00,311.56,-15.44,20.56,-0.50,-0.25,0.12,0.08,1.06
21.00,0.00,237.62,1.00,-101.50,-1.06,0.56,0.38,0.02,1.08
21.00,1.00,238.50,-1.94,-62.25,-0.75,-0.25,0.19,0.02,1.08
21.00,2.00,311.56,-15.44,20.56,0.06,-0.75,-0.06,0.02,1.08
21.00,0.00,237.50,1.00,-101.50,-0.88,-1.50,-0.44,-0.05,1.10
21.00,1.00,238.50,-1.94,-62.19,-0.88,-0.56,0.50,-0.05,1.10
21.00,2.00,311.56,-15.44,20.56,0.69,-0.62,0.06,-0.05,1.10
21.00,0.00,237.50,1.00,-101.50,-0.31,-1.44,-0.44,-0.09,1.12
21.00,1.00,238.50,-1.94,-62.19,0.06,-0.44,0.44,-0.09,1.12
21.00,2.00,311.56,-15.44,20.56,0.50,-0.44,0.12,-0.09,1.12
21.00,0.00,237.50,1.00,-101.50,-0.38,0.06,-0.50,-0.11,1.14
21.00,1.00,238.50,-1.94,-62.19,0.00,-0.75,0.44,-0.11,1.14
21.00,2.00,311.56,-15.44,20.56,-0.12,-0.06,0.38,-0.11,1.14
21.00,0.00,237.50,1.00,-101.50,0.06,0.19,-0.31,-0.11,1.16
21.00,1.00,238.50,-1.94,-62.19,-0.44,-0.94,-0.06,-0.11,1.16
21.00,2.00,311.56,-15.44,20.56,0.25,-0.31,-0.06,-0.11,1.16
21.00,0.00,237.50,1.00,-101.50,0.94,-0.38,0.38,-0.12,1.18
21.00,1.00,238.50,-1.94,-62.19,-0.62,-1.06,-0.50,-0.12,1.18
21.00,2.00,311.56,-15.44,20.56,1.00,-0.31,-0.62,-0.12,1.18
21.00,0.00,237.62,1.00,-101.50,0.56,0.19,0.88,-0.12,1.20
21.00,1.00,238.56,-1.94,-62.19,-0.25,-1.00,-0.38,-0.12,1.20
21.00,2.00,311.56,-15.44,20.50,0.69,-0.44,-0.12,-0.12,1.20
21.00,0.00,237.56,1.00,-101.50,-0.69,1.88,0.19,-0.14,1.22
21.00,1.00,238.56,-1.94,-62.19,-0.44,-0.75,-0.12,-0.14,1.22
21.00,2.00,311.56,-15.44,20.50,-0.25,-0.62,0.75,-0.14,1.22
21.00,0.00,237.56,1.00,-101.50,-0.44,0.62,0.00,-0.14,1.24
21.00,1.00,238.56,-1.94,-62.19,-0.56,-0.38,0.19,-0.14,1.24
21.00,2.00,311.56,-15.44,20.50,-0.62,-0.38,1.00,-0.14,1.24
21.00,0.00,237.88,1.00,-101.50,0.94,-1.38,0.38,-0.09,1.26
21.00,1.00,238.56,-1.94,-62.19,-0.38,-0.38,-0.06,-0.09,1.26
21.00,2.00,311.56,-15.44,20.50,0.06,-0.06,-0.19,-0.09,1.26
21.00,0.00,237.94,1.00,-101.50,0.62,-1.62,0.44,-0.08,1.28
21.00,1.00,238.56,-1.94,-62.19,-0.12,-0.31,-0.19,-0.08,1.28
21.00,2.00,311.56,-15.44,20.50,0.44,-0.25,-0.44,-0.08,1.28
21.00,0.00,238.12,1.00,-101.50,-0.19,-0.31,-0.06,-0.13,1.30
21.00,1.00,238.56,-1.94,-62.19,-0.44,-0.62,-0.50,-0.13,1.30
21.00,2.00,311.56,-15.44,20.50,0.81,-0.19,-0.38,-0.13,1.30
21.00,0.00,238.12,1.00,-101.50,-0.06,0.25,-0.38,-0.15,1.32
21.00,1.00,238.56,-1.94,-62.19,-0.31,-0.75,-0.31,-0.15,1.32
21.00,2.00,311.56,-15.44,20.50,0.38,-0.06,0.12,-0.15,1.32
21.00,0.00,238.12,1.00,-101.50,0.38,-0.75,0.31,-0.14,1.34
21.00,1.00,238.56,-1.94,-62.19,0.12,-0.62,-0.62,-0.14,1.34
21.00,2.00,311.56,-15.44,20.50,0.12,0.44,0.06,-0.14,1.34
21.00,0.00,238.38,1.00,-101.50,0.31,-0.62,0.06,-0.14,1.36
21.00,1.00,238.56,-1.94,-62.19,0.62,-0.69,-0.50,-0.14,1.36
21.00,2.00,311.56,-15.44,20.50,0.19,0.12,-0.50,-0.14,1.36
21.00,0.00,238.38,1.00,-101.50,-0.25,-0.44,-0.25,-0.17,1.38
21.00,1.00,238.62,-1.94,-62.19,-0.12,-1.12,-0.44,-0.17,1.38
21.00,2.00,311.56,-15.44,20.50,0.38,0.44,-0.75,-0.17,1.38
21.00,0.00,238.38,1.00,-101.50,0.06,-1.44,-0.56,-0.19,1.40
21.00,1.00,238.62,-1.94,-62.19,-0.62,-0.88,-0.69,-0.19,1.40
21.00,2.00,311.56,-15.44,20.50,0.50,0.44,-0.75,-0.19,1.40
21.00,0.00,238.44,1.00,-101.50,0.19,-2.06,0.12,-0.18,1.42
21.00,1.00,238.62,-1.94,-62.19,-0.25,-0.75,-0.88,-0.18,1.42
21.00,2.00,311.56,-15.44,20.50,-0.06,0.19,-0.25,-0.18,1.42
21.00,0.00,238.44,1.00,-101.50,-0.56,-0.56,-0.38,-0.18,1.44
21.00,1.00,238.69,-1.94,-62.19,-0.50,-0.69,-0.62,-0.18,1.44
21.00,2.00,311.56,-15.44,20.50,-0.44,0.25,0.00,-0.18,1.44
21.00,0.00,238.38,0.94,-101.50,-0.62,-0.25,-0.69,-0.21,1.46
21.00,1.00,238.69,-1.94,-62.19,-0.69,-0.44,-0.44,-0.21,1.46
21.00,2.00,311.56,-15.44,20.50,0.06,0.31,0.19,-0.21,1.46
21.00,0.00,238.44,0.94,-101.50,0.19,-1.81,-0.44,-0.22,1.48
21.00,1.00,238.69,-1.94,-62.19,-0.44,-0.25,-0.38,-0.22,1.48
21.00,2.00,311.56,-15.44,20.50,0.38,0.50,-0.25,-0.22,1.48
21.00,0.00,238.44,0.94,-101.50,0.06,-1.25,0.06,-0.23,1.50
21.00,1.00,238.69,-1.94,-62.19,-0.25,0.25,-0.38,-0.23,1.50
21.00,2.00,311.56,-15.44,20.50,0.12,0.50,-0.25,-0.23,1.50
21.00,0.00,238.44,0.94,-101.50,-0.75,0.50,-0.56,-0.25,1.52
21.00,1.00,238.69,-1.94,-62.19,-1.00,0.25,-0.38,-0.25,1.52
21.00,2.00,311.56,-15.44,20.50,-0.25,0.31,0.19,-0.25,1.52
21.00,0.00,238.44,0.94,-101.50,-0.31,0.62,-0.62,-0.29,1.54
21.00,1.00,238.69,-1.94,-62.19,-1.06,0.38,-0.56,-0.29,1.54
21.00,2.00,311.56,-15.44,20.50,0.44,0.31,0.19,-0.29,1.54
21.00,0.00,238.50,0.94,-101.50,0.50,-0.38,0.00,-0.30,1.56
21.00,1.00,238.69,-1.94,-62.12,-0.75,0.56,-0.88,-0.30,1.56
21.00,2.00,311.56,-15.44,20.50,0.75,0.62,0.19,-0.30,1.56
21.00,0.00,238.44,0.94,-101.50,0.06,1.00,0.19,-0.33,1.58
21.00,1.00,238.69,-1.94,-62.12,-0.69,1.25,-0.38,-0.33,1.58
21.00,2.00,311.56,-15.44,20.50,0.62,0.19,0.75,-0.33,1.58
21.00,0.00,238.56,0.94,-101.50,-0.31,2.31,-0.06,-0.34,1.60
21.00,1.00,238.69,-1.94,-62.12,-1.75,1.38,-0.25,-0.34,1.60
21.00,2.00,311.56,-15.44,20.50,-0.12,-0.31,1.44,-0.34,1.60
21.00,0.00,238.50,0.94,-101.50,1.19,2.31,0.56,-0.26,1.62
21.00,1.00,238.62,-2.00,-62.12,-1.75,1.00,-0.25,-0.26,1.62
21.00,2.00,311.50,-15.44,20.50,-0.31,-0.75,1.62,-0.26,1.62
21.00,0.00,238.44,1.00,-101.56,2.56,2.56,1.88,-0.11,1.64
21.00,1.00,238.62,-2.00,-62.06,-1.31,1.44,-1.06,-0.11,1.64
21.00,2.00,311.50,-15.44,20.50,-0.69,-1.00,2.00,-0.11,1.64
21.00,0.00,238.25,1.06,-101.62,3.12,5.06,2.38,0.03,1.66
21.00,1.00,238.69,-2.06,-62.06,-1.44,1.81,-0.75,0.03,1.66
21.00,2.00,311.44,-15.44,20.50,0.25,-0.88,1.06,0.03,1.66
21.00,0.00,238.06,1.12,-101.75,4.88,4.69,1.81,0.22,1.68
21.00,1.00,238.62,-2.06,-62.00,-1.69,1.81,-0.38,0.22,1.68
21.00,2.00,311.44,-15.44,20.50,0.94,-1.06,1.06,0.22,1.68
21.00,0.00,238.00,1.12,-101.94,8.19,2.75,1.88,0.54,1.70
21.00,1.00,238.62,-2.06,-62.00,-1.12,1.31,0.06,0.54,1.70
21.00,2.00,311.38,-15.44,20.44,1.62,-1.06,0.88,0.54,1.70
21.00,0.00,237.88,1.19,-102.12,10.62,4.31,2.62,0.95,1.72
21.00,1.00,238.62,-2.06,-61.94,-0.56,0.88,-0.31,0.95,1.72
21.00,2.00,311.38,-15.44,20.38,2.19,-0.50,1.31,0.95,1.72
21.00,0.00,237.62,1.31,-102.38,13.56,6.00,4.06,1.53,1.74
21.00,1.00,238.62,-2.06,-61.94,-0.88,0.44,-1.00,1.53,1.74
21.00,2.00,311.38,-15.44,20.38,1.50,-0.62,1.75,1.53,1.74
21.00,0.00,237.44,1.44,-102.69,17.88,6.19,6.31,2.39,1.76
21.00,1.00,238.62,-2.12,-61.94,-1.19,0.06,-1.44,2.39,1.76
21.00,2.00,311.31,-15.44,20.31,0.00,-1.75,2.56,2.39,1.76
21.00,0.00,237.00,1.69,-103.19,21.69,7.06,8.81,3.44,1.78
21.00,1.00,238.62,-2.12,-61.94,-0.69,0.06,-1.69,3.44,1.78
21.00,2.00,311.25,-15.38,20.31,0.00,-2.25,2.25,3.44,1.78
21.00,0.00,236.56,1.94,-103.75,25.75,8.31,11.38,4.62,1.80
21.00,1.00,238.69,-2.19,-61.94,-0.12,-0.19,-2.38,4.62,1.80
21.00,2.00,311.19,-15.38,20.31,1.38,-2.06,1.50,4.62,1.80
21.00,0.00,236.06,2.25,-104.31,28.81,8.69,13.75,5.89,1.82
21.00,1.00,238.75,-2.19,-61.94,-0.31,0.06,-2.31,5.89,1.82
21.00,2.00,311.19,-15.38,20.25,2.44,-1.31,1.44,5.89,1.82
21.00,0.00,235.50,2.56,-104.94,29.31,9.25,13.19,7.26,1.84
21.00,1.00,238.81,-2.25,-61.94,-0.38,0.50,-1.81,7.26,1.84
21.00,2.00,311.12,-15.31,20.19,1.12,-3.38,3.00,7.26,1.84
21.00,0.00,235.00,2.88,-105.50,30.00,8.69,13.31,8.64,1.86
21.00,1.00,238.81,-2.25,-61.94,-0.31,0.56,-1.75,8.64,1.86
21.00,2.00,311.06,-15.31,20.19,1.38,-4.25,3.75,8.64,1.86
21.00,0.00,234.69,3.00,-105.81,30.69,9.94,14.75,10.03,1.88
21.00,1.00,238.81,-2.31,-61.88,-0.69,0.94,-1.50,10.03,1.88
21.00,2.00,311.00,-15.25,20.12,2.00,-5.31,4.88,10.03,1.88
21.00,0.00,234.06,3.38,-106.44,30.00,12.56,15.06,11.41,1.90
21.00,1.00,238.88,-2.38,-61.88,0.00,2.00,-1.25,11.41,1.90
21.00,2.00,310.88,-15.19,20.00,1.38,-6.06,6.62,11.41,1.90
21.00,0.00,233.12,3.75,-107.00,30.00,13.69,15.00,12.93,1.92
21.00,1.00,238.81,-2.38,-61.94,-0.56,2.56,-0.50,12.93,1.92
21.00,2.00,310.69,-15.12,19.94,-1.44,-6.12,8.12,12.93,1.92
21.00,0.00,232.38,4.12,-107.62,31.25,14.88,16.50,14.53,1.94
21.00,1.00,238.81,-2.38,-61.88,-0.69,2.31,0.25,14.53,1.94
21.00,2.00,310.50,-15.06,19.94,-1.88,-7.25,9.00,14.53,1.94
21.00,0.00,231.56,4.50,-108.25,33.81,14.44,18.94,16.26,1.96
21.00,1.00,238.75,-2.44,-61.88,-1.06,2.38,0.25,16.26,1.96
21.00,2.00,310.31,-15.00,19.88,-2.12,-7.62,9.25,16.26,1.96
21.00,0.00,230.75,4.94,-108.88,34.56,13.75,19.31,18.05,1.98
21.00,1.00,238.75,-2.44,-61.88,-1.19,2.25,0.31,18.05,1.98
21.00,2.00,310.06,-14.94,19.88,-2.38,-7.62,9.25,18.05,1.98
21.00,0.00,229.94,5.38,-109.56,34.50,13.12,18.31,19.83,2.00
21.00,1.00,238.69,-2.44,-61.81,-1.00,2.19,0.12,19.83,2.00
21.00,2.00,309.88,-14.81,19.88,-2.44,-8.00,9.88,19.83,2.00
21.00,0.00,229.12,5.81,-110.25,36.44,13.25,18.56,21.70,2.02
21.00,1.00,238.69,-2.50,-61.81,-1.31,2.44,-0.19,21.70,2.02
21.00,2.00,309.62,-14.75,19.88,-2.12,-7.06,9.94,21.70,2.02
21.00,0.00,228.25,6.25,-110.94,38.81,14.00,19.19,23.73,2.04
21.00,1.00,238.62,-2.50,-61.81,-1.31,2.75,-0.44,23.73,2.04
21.00,2.00,309.44,-14.69,19.81,-3.25,-6.88,10.06,23.73,2.04
21.00,0.00,227.25,6.69,-111.75,39.50,13.50,19.06,25.83,2.06
21.00,1.00,238.62,-2.56,-61.75,-1.25,2.31,-0.81,25.83,2.06
21.00,2.00,309.19,-14.69,19.88,-3.94,-6.19,9.62,25.83,2.06
21.00,0.00,226.38,7.06,-112.50,41.12,10.62,18.12,27.90,2.08
21.00,1.00,238.62,-2.56,-61.75,-0.31,1.25,-0.81,27.90,2.08
21.00,2.00,309.00,-14.62,19.88,-1.81,-6.06,8.44,27.90,2.08
21.00,0.00,225.69,7.38,-113.31,40.81,9.94,17.50,29.83,2.10
21.00,1.00,238.62,-2.62,-61.75,-1.06,1.56,-0.69,29.83,2.10
21.00,2.00,308.81,-14.56,19.88,0.94,-4.62,7.38,29.83,2.10
21.00,0.00,224.88,7.62,-114.00,40.31,5.44,15.94,31.74,2.12
21.00,1.00,238.62,-2.62,-61.75,-0.69,1.94,-0.19,31.74,2.12
21.00,2.00,308.62,-14.50,19.81,0.88,-3.31,7.25,31.74,2.12
21.00,0.00,224.50,7.81,-114.69,38.50,1.25,14.38,33.65,2.14
21.00,1.00,238.56,-2.62,-61.69,-1.31,2.06,0.12,33.65,2.14
21.00,2.00,308.44,-14.50,19.69,-1.19,-3.94,7.75,33.65,2.14
21.00,0.00,224.31,7.88,-115.38,36.94,-1.19,12.44,35.58,2.16
21.00,1.00,238.56,-2.62,-61.69,-1.62,2.06,0.81,35.58,2.16
21.00,2.00,308.31,-14.50,19.69,-3.00,-4.56,9.12,35.58,2.16
21.00,0.00,224.12,8.00,-116.00,32.94,-5.19,8.56,37.39,2.18
21.00,1.00,238.50,-2.69,-61.69,-1.12,3.06,0.56,37.39,2.18
21.00,2.00,308.12,-14.50,19.69,-4.56,-4.69,8.56,37.39,2.18
21.00,0.00,224.00,8.06,-116.62,31.25,-5.25,7.19,39.12,2.20
21.00,1.00,238.50,-2.69,-61.62,-1.62,3.38,0.38,39.12,2.20
21.00,2.00,307.94,-14.44,19.75,-4.50,-4.31,8.38,39.12,2.20
21.00,0.00,223.94,8.12,-117.25,29.06,-6.31,5.31,40.66,2.22
21.00,1.00,238.44,-2.75,-61.56,-2.62,2.50,0.31,40.66,2.22
21.00,2.00,307.75,-14.44,19.75,-2.81,-3.69,7.12,40.66,2.22
21.00,0.00,223.94,8.19,-117.81,28.81,-8.88,6.56,42.22,2.24
21.00,1.00,238.38,-2.75,-61.56,-2.75,2.50,-0.38,42.22,2.24
21.00,2.00,307.62,-14.38,19.81,-3.38,-2.94,6.06,42.22,2.24
21.00,0.00,223.69,8.19,-118.38,26.06,-6.62,6.12,43.62,2.26
21.00,1.00,238.38,-2.75,-61.50,-2.12,2.62,-0.31,43.62,2.26
21.00,2.00,307.44,-14.38,19.81,-2.94,-2.81,5.56,43.62,2.26
21.00,0.00,223.62,8.25,-118.88,22.69,-3.88,4.88,44.81,2.28
21.00,1.00,238.38,-2.81,-61.44,-3.19,3.06,0.19,44.81,2.28
21.00,2.00,307.38,-14.38,19.88,-2.06,-3.88,5.25,44.81,2.28
21.00,0.00,223.56,8.25,-119.25,19.25,-3.44,3.06,45.85,2.30
21.00,1.00,238.31,-2.81,-61.38,-3.19,1.88,0.19,45.85,2.30
21.00,2.00,307.25,-14.31,19.88,-2.12,-4.31,5.25,45.85,2.30
21.00,0.00,223.50,8.31,-119.62,17.88,-4.56,3.94,46.86,2.32
21.00,1.00,238.31,-2.88,-61.38,-2.81,1.44,0.44,46.86,2.32
21.00,2.00,307.12,-14.25,19.88,-3.12,-4.06,4.94,46.86,2.32
21.00,0.00,223.44,8.31,-119.94,16.69,-2.75,4.81,47.79,2.34
21.00,1.00,238.31,-2.88,-61.31,-2.81,1.19,-0.19,47.79,2.34
21.00,2.00,306.94,-14.25,19.94,-2.44,-4.69,4.94,47.79,2.34
21.00,0.00,222.94,8.44,-120.25,15.44,0.88,3.88,48.63,2.36
21.00,1.00,238.25,-2.88,-61.25,-2.31,1.62,-0.44,48.63,2.36
21.00,2.00,306.88,-14.19,19.94,-2.00,-4.56,4.69,48.63,2.36
21.00,0.00,222.69,8.50,-120.50,14.62,3.69,3.31,49.45,2.38
21.00,1.00,238.25,-2.94,-61.19,-2.06,1.81,-0.31,49.45,2.38
21.00,2.00,306.75,-14.12,19.94,-2.38,-3.44,4.12,49.45,2.38
21.00,0.00,222.38,8.62,-120.69,14.25,5.25,3.56,50.28,2.40
21.00,1.00,238.25,-2.94,-61.19,-2.62,1.69,-0.19,50.28,2.40
21.00,2.00,306.69,-14.12,20.00,-2.94,-3.12,3.94,50.28,2.40
21.00,0.00,221.81,8.81,-120.88,13.69,6.19,6.44,51.13,2.42
21.00,1.00,238.25,-2.94,-61.12,-3.12,1.62,0.06,51.13,2.42
21.00,2.00,306.56,-14.06,20.06,-3.94,-2.69,3.44,51.13,2.42
21.00,0.00,221.38,9.00,-121.00,10.81,8.31,6.25,51.81,2.44
21.00,1.00,238.19,-2.94,-61.06,-3.06,1.69,0.19,51.81,2.44
21.00,2.00,306.44,-14.06,20.12,-3.31,-3.00,3.56,51.81,2.44
21.00,0.00,221.00,9.12,-121.12,9.56,6.56,4.88,52.41,2.46
21.00,1.00,238.19,-3.00,-61.00,-3.31,1.94,-0.06,52.41,2.46
21.00,2.00,306.38,-14.06,20.12,-2.69,-2.06,3.19,52.41,2.46
21.00,0.00,220.69,9.25,-121.25,8.50,5.81,4.88,52.96,2.48
21.00,1.00,238.19,-3.00,-60.94,-3.25,1.75,0.12,52.96,2.48
21.00,2.00,306.31,-14.00,20.19,-3.06,-2.94,3.31,52.96,2.48
21.00,0.00,220.44,9.38,-121.31,6.75,5.12,2.88,53.45,2.50
21.00,1.00,238.12,-3.00,-60.88,-2.69,1.19,0.00,53.45,2.50
21.00,2.00,306.25,-14.00,20.19,-3.31,-3.44,3.25,53.45,2.50
21.00,0.00,220.00,9.44,-121.38,5.44,4.56,1.69,53.88,2.52
21.00,1.00,238.12,-3.06,-60.81,-2.38,0.81,-0.19,53.88,2.52
21.00,2.00,306.19,-13.94,20.25,-3.50,-4.19,2.75,53.88,2.52
21.00,0.00,219.88,9.44,-121.50,4.56,3.62,-0.06,54.25,2.54
21.00,1.00,238.12,-3.06,-60.75,-3.31,0.50,-0.69,54.25,2.54
21.00,2.00,306.06,-13.88,20.38,-3.06,-2.75,1.25,54.25,2.54
21.00,0.00,219.75,9.50,-121.56,4.94,2.31,0.25,54.62,2.56
21.00,1.00,238.12,-3.06,-60.69,-3.00,0.12,-1.19,54.62,2.56
21.00,2.00,306.06,-13.81,20.38,-2.75,-2.12,1.00,54.62,2.56
21.00,0.00,219.69,9.50,-121.69,6.44,1.56,1.31,55.01,2.58
21.00,1.00,238.19,-3.06,-60.69,-3.19,0.25,-1.06,55.01,2.58
21.00,2.00,306.06,-13.81,20.38,-1.50,-1.38,1.19,55.01,2.58
21.00,0.00,219.50,9.56,-121.81,7.62,1.81,3.44,55.45,2.60
21.00,1.00,238.19,-3.12,-60.62,-2.56,0.69,-1.12,55.45,2.60
21.00,2.00,306.00,-13.81,20.44,-1.62,-1.50,1.44,55.45,2.60
21.00,0.00,219.19,9.69,-121.94,7.19,3.56,4.56,55.87,2.62
21.00,1.00,238.19,-3.12,-60.56,-3.06,0.88,-1.25,55.87,2.62
21.00,2.00,305.94,-13.75,20.44,-1.44,-2.12,1.81,55.87,2.62
21.00,0.00,218.88,9.81,-122.06,5.50,5.88,3.12,56.19,2.64
21.00,1.00,238.19,-3.19,-60.50,-2.69,1.12,-1.38,56.19,2.64
21.00,2.00,305.88,-13.75,20.44,-1.19,-2.12,1.75,56.19,2.64
21.00,0.00,218.56,9.88,-122.12,4.81,5.56,1.25,56.54,2.66
21.00,1.00,238.25,-3.19,-60.44,-3.69,1.12,-1.19,56.54,2.66
21.00,2.00,305.88,-13.75,20.50,-2.31,-2.19,1.75,56.54,2.66
21.00,0.00,218.38,9.94,-122.25,6.56,3.06,2.19,56.97,2.68
21.00,1.00,238.25,-3.25,-60.38,-3.38,1.19,-1.31,56.97,2.68
21.00,2.00,305.81,-13.69,20.50,-2.44,-2.00,2.06,56.97,2.68
21.00,0.00,218.19,10.00,-122.38,6.75,2.56,2.69,57.39,2.70
21.00,1.00,238.25,-3.31,-60.31,-2.81,1.12,-0.94,57.39,2.70
21.00,2.00,305.75,-13.69,20.56,-1.88,-1.62,2.12,57.39,2.70
21.00,0.00,217.94,10.06,-122.50,4.06,3.06,0.38,57.68,2.72
21.00,1.00,238.25,-3.31,-60.25,-3.50,1.06,-0.69,57.68,2.72
21.00,2.00,305.69,-13.69,20.56,-1.94,-1.44,2.25,57.68,2.72
21.00,0.00,217.88,10.06,-122.50,3.50,1.31,-1.50,57.99,2.74
21.00,1.00,238.25,-3.31,-60.19,-3.31,1.06,-0.31,57.99,2.74
21.00,2.00,305.62,-13.69,20.62,-2.94,-1.69,2.88,57.99,2.74
21.00,0.00,217.81,10.06,-122.62,6.69,-0.81,1.31,58.42,2.76
21.00,1.00,238.19,-3.31,-60.12,-2.56,0.69,0.06,58.42,2.76
21.00,2.00,305.56,-13.62,20.62,-2.31,-1.94,2.50,58.42,2.76
21.00,0.00,217.69,10.12,-122.81,7.56,1.06,2.94,58.94,2.78
21.00,1.00,238.19,-3.31,-60.12,-2.62,0.94,-0.06,58.94,2.78
21.00,2.00,305.50,-13.62,20.69,-3.06,-2.19,2.31,58.94,2.78
21.00,0.00,217.50,10.19,-122.94,6.19,2.19,1.81,59.41,2.80
21.00,1.00,238.19,-3.38,-60.06,-2.69,0.94,-0.19,59.41,2.80
21.00,2.00,305.44,-13.62,20.75,-3.56,-2.00,2.44,59.41,2.80
21.00,0.00,217.38,10.19,-123.00,5.38,2.38,0.25,59.83,2.82
21.00,1.00,238.19,-3.38,-60.00,-2.62,0.31,-0.06,59.83,2.82
21.00,2.00,305.38,-13.62,20.81,-3.38,-1.44,2.75,59.83,2.82
21.00,0.00,217.25,10.25,-123.12,7.31,1.81,0.50,60.37,2.84
21.00,1.00,238.19,-3.38,-59.94,-2.31,-0.12,-0.12,60.37,2.84
21.00,2.00,305.31,-13.62,20.88,-3.75,-0.94,2.44,60.37,2.84
21.00,0.00,217.12,10.25,-123.31,8.38,0.56,2.31,60.94,2.86
21.00,1.00,238.19,-3.38,-59.94,-2.31,0.31,-0.94,60.94,2.86
21.00,2.00,305.25,-13.62,20.94,-3.44,-1.06,2.12,60.94,2.86
21.00,0.00,217.06,10.31,-123.44,7.12,-0.31,1.62,61.42,2.88
21.00,1.00,238.19,-3.44,-59.88,-2.31,1.12,-0.62,61.42,2.88
21.00,2.00,305.25,-13.56,20.94,-2.88,-1.81,1.62,61.42,2.88
21.00,0.00,217.06,10.31,-123.62,8.38,-2.38,1.88,61.96,2.90
21.00,1.00,238.19,-3.44,-59.81,-2.38,0.62,-0.44,61.96,2.90
21.00,2.00,305.19,-13.56,21.00,-2.88,-1.38,1.12,61.96,2.90
21.00,0.00,217.00,10.31,-123.75,8.31,-2.19,2.31,62.49,2.92
21.00,1.00,238.19,-3.44,-59.75,-2.38,-0.44,-0.56,62.49,2.92
21.00,2.00,305.12,-13.56,21.06,-2.62,-1.69,0.81,62.49,2.92
21.00,0.00,217.00,10.31,-123.94,8.69,-3.62,2.62,63.05,2.94
21.00,1.00,238.19,-3.44,-59.75,-1.69,-0.44,-0.88,63.05,2.94
21.00,2.00,305.12,-13.50,21.12,-2.94,-2.19,1.31,63.05,2.94
21.00,0.00,216.94,10.31,-124.12,8.50,-2.06,2.88,63.58,2.96
21.00,1.00,238.25,-3.44,-59.75,-0.88,-0.31,-1.06,63.58,2.96
21.00,2.00,305.06,-13.50,21.19,-2.31,-2.44,1.44,63.58,2.96
21.00,0.00,216.94,10.38,-124.25,9.19,-2.00,2.69,64.09,2.98
21.00,1.00,238.25,-3.50,-59.69,-0.88,-0.31,-1.25,64.09,2.98
21.00,2.00,305.06,-13.44,21.19,-1.50,-2.50,0.69,64.09,2.98
21.00,0.00,216.81,10.38,-124.44,9.19,-1.06,3.44,64.58,3.00
21.00,1.00,238.31,-3.50,-59.69,-1.25,-0.19,-1.12,64.58,3.00
21.00,2.00,305.06,-13.44,21.25,-0.81,-2.44,0.12,64.58,3.00
21.00,0.00,216.69,10.44,-124.62,8.38,-0.75,2.38,65.09,3.02
21.00,1.00,238.31,-3.50,-59.69,-1.38,-0.88,-0.94,65.09,3.02
21.00,2.00,305.00,-13.38,21.25,-2.31,-2.19,-0.19,65.09,3.02
21.00,0.00,216.56,10.50,-124.81,9.00,-0.75,3.25,65.60,3.04
21.00,1.00,238.38,-3.56,-59.62,-0.81,-0.81,-1.06,65.60,3.04
21.00,2.00,305.00,-13.31,21.31,-1.56,-2.81,-0.12,65.60,3.04
21.00,0.00,216.38,10.56,-124.94,7.94,-0.38,3.94,66.01,3.06
21.00,1.00,238.38,-3.56,-59.62,-0.56,-1.19,-0.94,66.01,3.06
21.00,2.00,305.00,-13.25,21.31,-0.44,-2.88,-0.25,66.01,3.06
21.00,0.00,216.31,10.56,-125.06,5.56,0.12,2.62,66.30,3.08
21.00,1.00,238.38,-3.56,-59.62,-0.88,-0.69,-0.31,66.30,3.08
21.00,2.00,305.00,-13.25,21.31,-0.56,-3.00,0.06,66.30,3.08
21.00,0.00,216.25,10.62,-125.12,3.56,1.38,0.50,66.53,3.10
21.00,1.00,238.44,-3.56,-59.62,-0.75,-0.62,-0.31,66.53,3.10
21.00,2.00,305.00,-13.19,21.31,-1.06,-2.81,0.50,66.53,3.10
21.00,0.00,216.19,10.62,-125.19,3.88,0.38,0.38,66.78,3.12
21.00,1.00,238.44,-3.56,-59.62,-0.19,-1.00,-0.31,66.78,3.12
21.00,2.00,304.94,-13.12,21.31,-1.31,-3.25,1.19,66.78,3.12
21.00,0.00,216.12,10.62,-125.25,5.38,-1.00,2.69,67.07,3.14
21.00,1.00,238.44,-3.56,-59.62,-0.25,-1.19,-0.19,67.07,3.14
21.00,2.00,304.94,-13.06,21.38,-0.75,-3.00,0.69,67.07,3.14
21.00,0.00,215.94,10.69,-125.38,5.81,-0.38,4.00,67.40,3.16
21.00,1.00,238.44,-3.56,-59.56,-0.62,-1.00,-0.12,67.40,3.16
21.00,2.00,304.88,-13.06,21.38,-0.88,-2.69,0.25,67.40,3.16
21.00,0.00,215.81,10.75,-125.44,4.56,1.50,2.69,67.69,3.18
21.00,1.00,238.44,-3.56,-59.56,-0.25,-0.88,-0.25,67.69,3.18
21.00,2.00,304.88,-13.00,21.38,-1.56,-2.00,0.25,67.69,3.18
21.00,0.00,215.69,10.81,-125.50,4.75,1.69,1.50,68.02,3.20
21.00,1.00,238.50,-3.50,-59.56,0.38,-1.25,-0.19,68.02,3.20
21.00,2.00,304.88,-13.00,21.44,-2.06,-1.75,-0.06,68.02,3.20
21.00,0.00,215.50,10.81,-125.62,6.12,0.69,3.00,68.38,3.22
21.00,1.00,238.50,-3.50,-59.56,-0.12,-1.75,-0.25,68.38,3.22
21.00,2.00,304.88,-12.94,21.44,-1.31,-1.38,-1.00,68.38,3.22
21.00,0.00,215.44,10.88,-125.75,5.31,1.06,2.44,68.70,3.24
21.00,1.00,238.56,-3.50,-59.56,0.00,-2.56,-0.31,68.70,3.24
21.00,2.00,304.88,-12.94,21.50,-1.31,-2.12,-1.38,68.70,3.24
21.00,0.00,215.44,10.88,-125.81,3.44,1.06,0.94,68.93,3.26
21.00,1.00,238.56,-3.50,-59.56,-0.06,-3.62,-0.06,68.93,3.26
21.00,2.00,304.94,-12.88,21.50,-1.31,-3.00,-1.62,68.93,3.26
21.00,0.00,215.38,10.88,-125.81,2.50,0.50,0.19,69.09,3.28
21.00,1.00,238.62,-3.44,-59.56,-0.19,-3.69,-0.25,69.09,3.28
21.00,2.00,304.94,-12.81,21.56,-0.75,-2.81,-1.94,69.09,3.28
21.00,0.00,215.38,10.88,-125.88,3.12,-0.94,0.19,69.25,3.30
21.00,1.00,238.69,-3.44,-59.56,0.31,-3.81,-0.31,69.25,3.30
21.00,2.00,304.94,-12.75,21.56,-0.19,-3.00,-2.06,69.25,3.30
21.00,0.00,215.38,10.88,-126.00,5.31,-1.19,2.12,69.48,3.32
21.00,1.00,238.69,-3.38,-59.56,0.50,-3.44,-0.38,69.48,3.32
21.00,2.00,305.00,-12.69,21.56,0.50,-3.25,-2.06,69.48,3.32
21.00,0.00,215.25,10.94,-126.12,6.56,0.31,3.81,69.73,3.34
21.00,1.00,238.75,-3.38,-59.56,0.69,-3.62,-0.19,69.73,3.34
21.00,2.00,305.00,-12.62,21.56,1.38,-3.06,-1.81,69.73,3.34
21.00,0.00,215.12,11.06,-126.25,6.12,2.12,4.00,70.00,3.36
21.00,1.00,238.81,-3.31,-59.56,0.81,-3.19,-0.06,70.00,3.36
21.00,2.00,305.06,-12.56,21.56,0.62,-2.75,-1.25,70.00,3.36
21.00,0.00,214.88,11.12,-126.38,6.31,2.94,3.81,70.29,3.38
21.00,1.00,238.81,-3.31,-59.56,0.62,-3.19,0.06,70.29,3.38
21.00,2.00,305.06,-12.50,21.56,0.25,-2.81,-1.75,70.29,3.38
21.00,0.00,214.62,11.25,-126.50,7.19,2.50,4.38,70.61,3.40
21.00,1.00,238.88,-3.25,-59.62,1.31,-2.75,-0.12,70.61,3.40
21.00,2.00,305.12,-12.44,21.56,0.62,-2.75,-2.19,70.61,3.40
21.00,0.00,214.38,11.31,-126.62,5.31,2.00,2.81,70.80,3.42
21.00,1.00,238.88,-3.25,-59.62,1.50,-2.81,0.50,70.80,3.42
21.00,2.00,305.12,-12.38,21.56,1.31,-3.62,-1.81,70.80,3.42
21.00,0.00,214.25,11.38,-126.75,6.00,-0.12,2.50,71.06,3.44
21.00,1.00,238.94,-3.19,-59.62,1.44,-3.31,1.00,71.06,3.44
21.00,2.00,305.12,-12.25,21.50,0.62,-4.50,-1.81,71.06,3.44
21.00,0.00,214.25,11.38,-126.88,6.44,-0.25,4.12,71.39,3.46
21.00,1.00,238.94,-3.12,-59.69,1.62,-3.44,1.12,71.39,3.46
21.00,2.00,305.19,-12.19,21.50,-0.38,-3.19,-2.31,71.39,3.46
21.00,0.00,214.12,11.44,-127.00,5.06,0.56,2.81,71.61,3.48
21.00,1.00,238.94,-3.12,-59.69,1.38,-2.94,0.88,71.61,3.48
21.00,2.00,305.19,-12.12,21.56,0.38,-2.19,-2.81,71.61,3.48
21.00,0.00,214.00,11.50,-127.06,4.50,0.12,1.88,71.75,3.50
21.00,1.00,238.94,-3.06,-59.75,1.81,-3.44,0.69,71.75,3.50
21.00,2.00,305.25,-12.06,21.50,1.69,-3.31,-2.31,71.75,3.50
21.00,0.00,214.00,11.50,-127.12,5.12,0.62,3.12,71.89,3.52
21.00,1.00,239.00,-3.00,-59.75,2.31,-3.88,1.00,71.89,3.52
21.00,2.00,305.31,-12.00,21.50,2.19,-3.94,-1.69,71.89,3.52
21.00,0.00,213.75,11.62,-127.25,5.44,1.75,3.88,72.06,3.54
21.00,1.00,239.00,-2.94,-59.81,2.69,-4.31,1.50,72.06,3.54
21.00,2.00,305.31,-11.88,21.44,1.88,-4.44,-2.00,72.06,3.54
21.00,0.00,213.62,11.62,-127.31,6.06,2.12,3.19,72.28,3.56
21.00,1.00,239.00,-2.88,-59.88,2.88,-4.69,1.06,72.28,3.56
21.00,2.00,305.31,-11.81,21.44,1.62,-4.25,-1.75,72.28,3.56
21.00,0.00,213.31,11.75,-127.56,7.25,2.44,2.06,72.55,3.58
21.00,1.00,239.06,-2.81,-59.88,2.50,-4.12,0.25,72.55,3.58
21.00,2.00,305.38,-11.69,21.38,1.56,-3.81,-1.81,72.55,3.58
21.00,0.00,213.25,11.75,-127.62,8.38,1.69,2.12,72.89,3.60
21.00,1.00,239.12,-2.81,-59.94,2.25,-4.19,0.06,72.89,3.60
21.00,2.00,305.38,-11.62,21.38,1.44,-3.62,-1.88,72.89,3.60
21.00,0.00,212.88,11.81,-127.75,9.50,2.38,2.94,73.27,3.62
21.00,1.00,239.19,-2.75,-60.00,2.75,-4.19,0.75,73.27,3.62
21.00,2.00,305.44,-11.56,21.38,1.69,-4.44,-2.00,73.27,3.62
21.00,0.00,212.62,11.94,-127.94,10.25,2.19,3.69,73.67,3.64
21.00,1.00,239.19,-2.69,-60.06,2.56,-4.62,0.88,73.67,3.64
21.00,2.00,305.44,-11.44,21.31,1.81,-4.44,-2.00,73.67,3.64
21.00,0.00,212.38,12.00,-128.19,11.94,2.06,5.06,74.18,3.66
21.00,1.00,239.25,-2.62,-60.06,3.06,-4.31,0.94,74.18,3.66
21.00,2.00,305.44,-11.38,21.31,1.50,-4.44,-2.25,74.18,3.66
21.00,0.00,212.19,12.12,-128.44,10.69,4.56,4.12,74.60,3.68
21.00,1.00,239.25,-2.56,-60.12,3.19,-4.44,1.19,74.60,3.68
21.00,2.00,305.50,-11.25,21.25,2.06,-4.38,-2.62,74.60,3.68
21.00,0.00,211.88,12.25,-128.62,7.94,5.31,1.25,74.88,3.70
21.00,1.00,239.31,-2.50,-60.19,2.38,-4.25,0.81,74.88,3.70
21.00,2.00,305.56,-11.19,21.25,2.00,-4.50,-2.44,74.88,3.70
21.00,0.00,211.44,12.31,-128.75,7.44,2.62,0.00,75.10,3.72
21.00,1.00,239.31,-2.44,-60.25,3.38,-4.25,1.00,75.10,3.72
21.00,2.00,305.56,-11.06,21.19,3.00,-5.56,-2.31,75.10,3.72
21.00,0.00,211.25,12.31,-128.88,10.19,1.00,2.88,75.43,3.74
21.00,1.00,239.38,-2.38,-60.31,3.50,-4.38,0.88,75.43,3.74
21.00,2.00,305.62,-10.94,21.12,3.31,-5.31,-2.19,75.43,3.74
21.00,0.00,211.00,12.38,-129.12,11.31,1.44,4.94,75.85,3.76
21.00,1.00,239.38,-2.31,-60.38,3.75,-3.25,1.31,75.85,3.76
21.00,2.00,305.62,-10.81,21.06,2.56,-4.81,-1.81,75.85,3.76
21.00,0.00,210.88,12.50,-129.31,10.19,3.75,5.94,76.23,3.78
21.00,1.00,239.38,-2.31,-60.44,3.81,-3.12,1.31,76.23,3.78
21.00,2.00,305.62,-10.75,21.00,2.38,-4.81,-0.94,76.23,3.78
21.00,0.00,210.56,12.62,-129.50,8.94,2.88,4.50,76.50,3.80
21.00,1.00,239.44,-2.25,-60.56,3.38,-2.50,1.06,76.50,3.80
21.00,2.00,305.62,-10.62,20.94,3.25,-4.50,-0.69,76.50,3.80
21.00,0.00,210.25,12.75,-129.69,9.31,2.62,4.69,76.80,3.82
21.00,1.00,239.44,-2.19,-60.62,3.19,-1.62,1.06,76.80,3.82
21.00,2.00,305.62,-10.56,20.88,3.19,-4.06,-0.88,76.80,3.82
21.00,0.00,209.94,12.88,-129.88,7.88,2.69,4.19,77.10,3.84
21.00,1.00,239.44,-2.19,-60.69,3.88,-2.00,1.50,77.10,3.84
21.00,2.00,305.62,-10.44,20.81,1.69,-5.12,-0.44,77.10,3.84
21.00,0.00,209.69,12.94,-130.00,6.06,2.38,3.00,77.31,3.86
21.00,1.00,239.44,-2.12,-60.75,3.56,-2.00,1.75,77.31,3.86
21.00,2.00,305.62,-10.38,20.75,1.62,-5.50,-0.31,77.31,3.86
21.00,0.00,209.56,12.94,-130.12,6.19,-1.94,1.62,77.54,3.88
21.00,1.00,239.38,-2.06,-60.81,3.50,-2.00,1.81,77.54,3.88
21.00,2.00,305.62,-10.31,20.75,1.56,-3.88,-0.94,77.54,3.88
21.00,0.00,209.50,13.00,-130.25,8.44,-0.31,6.00,77.86,3.90
21.00,1.00,239.38,-2.00,-60.88,3.12,-1.88,1.94,77.86,3.90
21.00,2.00,305.62,-10.19,20.69,1.81,-3.69,-0.94,77.86,3.90
21.00,0.00,209.12,13.06,-130.44,8.00,1.38,7.06,78.13,3.92
21.00,1.00,239.38,-2.00,-60.94,3.44,-2.06,2.12,78.13,3.92
21.00,2.00,305.62,-10.12,20.62,2.31,-3.94,-0.25,78.13,3.92
21.00,0.00,208.81,13.25,-130.56,5.94,3.06,6.25,78.28,3.94
21.00,1.00,239.38,-1.94,-61.00,2.94,-1.44,1.94,78.28,3.94
21.00,2.00,305.62,-10.06,20.56,2.88,-3.94,0.31,78.28,3.94
21.00,0.00,208.56,13.31,-130.69,4.25,3.00,4.19,78.39,3.96
21.00,1.00,239.31,-1.88,-61.06,2.50,-1.25,1.62,78.39,3.96
21.00,2.00,305.62,-10.00,20.50,1.88,-3.94,0.38,78.39,3.96
21.00,0.00,208.31,13.44,-130.75,5.81,1.94,3.56,78.68,3.98
21.00,1.00,239.31,-1.81,-61.12,1.88,-0.94,1.38,78.68,3.98
21.00,2.00,305.56,-9.88,20.50,-0.19,-4.38,-0.06,78.68,3.98
21.00,0.00,208.06,13.50,-130.94,6.31,3.12,4.50,78.98,4.00
21.00,1.00,239.31,-1.81,-61.19,2.06,-0.81,1.31,78.98,4.00
21.00,2.00,305.56,-9.81,20.50,0.12,-4.69,-0.56,78.98,4.00
21.00,0.00,207.81,13.62,-131.00,4.44,2.94,2.75,79.19,4.02
21.00,1.00,239.25,-1.75,-61.25,1.75,-1.19,1.50,79.19,4.02
21.00,2.00,305.56,-9.75,20.50,0.06,-4.44,-0.81,79.19,4.02
21.00,0.00,207.62,13.69,-131.12,5.06,0.38,3.31,79.46,4.04
21.00,1.00,239.31,-1.75,-61.25,1.06,-2.25,1.06,79.46,4.04
21.00,2.00,305.56,-9.62,20.50,-0.38,-3.44,-0.94,79.46,4.04
21.00,0.00,207.44,13.75,-131.25,6.44,1.38,5.00,79.81,4.06
21.00,1.00,239.31,-1.69,-61.31,1.06,-1.50,0.69,79.81,4.06
21.00,2.00,305.56,-9.62,20.50,-0.81,-2.94,-0.56,79.81,4.06
21.00,0.00,207.12,13.88,-131.38,7.06,2.12,6.25,80.13,4.08
21.00,1.00,239.31,-1.69,-61.31,1.50,-1.25,0.38,80.13,4.08
21.00,2.00,305.56,-9.56,20.50,0.44,-2.56,-0.50,80.13,4.08
21.00,0.00,206.81,13.94,-131.50,5.44,2.56,4.94,80.34,4.10
21.00,1.00,239.31,-1.69,-61.38,0.56,-1.19,0.38,80.34,4.10
21.00,2.00,305.56,-9.50,20.50,1.00,-4.06,-0.50,80.34,4.10
21.00,0.00,206.62,14.00,-131.56,3.00,2.06,2.00,80.41,4.12
21.00,1.00,239.31,-1.69,-61.38,0.94,-1.19,0.75,80.41,4.12
21.00,2.00,305.56,-9.38,20.44,1.50,-4.75,-0.62,80.41,4.12
21.00,0.00,206.50,14.06,-131.62,2.31,0.88,0.44,80.48,4.14
21.00,1.00,239.31,-1.62,-61.38,1.31,-1.69,0.81,80.48,4.14
21.00,2.00,305.56,-9.31,20.44,0.94,-4.81,-0.62,80.48,4.14
21.00,0.00,206.44,14.06,-131.69,4.81,-0.75,1.50,80.67,4.16
21.00,1.00,239.31,-1.62,-61.44,0.81,-1.06,1.06,80.67,4.16
21.00,2.00,305.56,-9.19,20.44,1.00,-4.06,-1.38,80.67,4.16
21.00,0.00,206.06,14.12,-131.88,7.75,-0.50,4.62,81.00,4.18
21.00,1.00,239.31,-1.56,-61.44,0.75,-1.31,0.75,81.00,4.18
21.00,2.00,305.56,-9.12,20.38,0.88,-3.12,-0.62,81.00,4.18
21.00,0.00,205.81,14.19,-132.00,7.62,2.44,5.75,81.37,4.20
21.00,1.00,239.31,-1.56,-61.44,1.00,-1.31,0.06,81.37,4.20
21.00,2.00,305.56,-9.06,20.38,-0.12,-3.81,0.38,81.37,4.20
21.00,0.00,205.44,14.38,-132.12,5.75,4.88,4.56,81.67,4.22
21.00,1.00,239.38,-1.56,-61.44,0.62,-1.81,0.19,81.67,4.22
21.00,2.00,305.50,-9.00,20.38,-0.38,-4.25,0.75,81.67,4.22
21.00,0.00,205.12,14.44,-132.25,4.94,4.38,3.12,81.91,4.24
21.00,1.00,239.38,-1.56,-61.50,0.75,-1.44,0.38,81.91,4.24
21.00,2.00,305.50,-8.94,20.38,-0.06,-4.88,0.19,81.91,4.24
21.00,0.00,204.94,14.50,-132.31,5.25,2.12,2.31,82.17,4.26
21.00,1.00,239.38,-1.56,-61.50,0.88,-1.31,0.62,82.17,4.26
21.00,2.00,305.50,-8.81,20.38,-0.06,-4.25,-0.19,82.17,4.26
21.00,0.00,204.50,14.56,-132.44,5.75,-0.31,2.50,82.44,4.28
21.00,1.00,239.38,-1.50,-61.50,1.12,-1.19,0.56,82.44,4.28
21.00,2.00,305.50,-8.75,20.38,0.00,-3.38,-0.75,82.44,4.28
21.00,0.00,204.38,14.62,-132.56,7.50,-0.56,4.19,82.80,4.30
21.00,1.00,239.38,-1.50,-61.56,1.56,-1.06,0.88,82.80,4.30
21.00,2.00,305.50,-8.75,20.38,0.19,-2.75,-0.50,82.80,4.30
21.00,0.00,204.12,14.69,-132.75,7.88,2.25,5.88,83.12,4.32
21.00,1.00,239.44,-1.50,-61.56,1.62,-1.75,-0.06,83.12,4.32
21.00,2.00,305.50,-8.69,20.31,1.25,-2.56,-0.62,83.12,4.32
21.00,0.00,203.81,14.81,-132.88,5.19,3.69,3.94,83.30,4.34
21.00,1.00,239.44,-1.50,-61.62,1.69,-2.25,0.00,83.30,4.34
21.00,2.00,305.50,-8.62,20.31,1.38,-2.94,-0.88,83.30,4.34
21.00,0.00,203.62,14.88,-132.88,2.50,1.94,0.81,83.37,4.36
21.00,1.00,239.50,-1.44,-61.62,1.69,-2.62,0.06,83.37,4.36
21.00,2.00,305.50,-8.56,20.31,1.06,-3.50,-1.38,83.37,4.36
21.00,0.00,203.69,14.81,-132.94,2.50,-1.31,-1.06,83.42,4.38
21.00,1.00,239.50,-1.44,-61.69,1.38,-2.38,-0.31,83.42,4.38
21.00,2.00,305.50,-8.50,20.25,1.50,-2.88,-1.38,83.42,4.38
21.00,0.00,203.69,14.81,-133.06,6.12,-2.94,2.75,83.66,4.40
21.00,1.00,239.56,-1.44,-61.69,1.38,-2.00,-0.44,83.66,4.40
21.00,2.00,305.56,-8.44,20.25,1.19,-2.31,-1.44,83.66,4.40
21.00,0.00,203.62,14.88,-133.19,6.69,-0.25,6.06,83.94,4.42
21.00,1.00,239.56,-1.38,-61.75,0.44,-2.31,0.19,83.94,4.42
21.00,2.00,305.56,-8.38,20.25,0.88,-1.56,-1.31,83.94,4.42
21.00,0.00,203.38,15.00,-133.38,5.44,1.25,5.56,84.15,4.44
21.00,1.00,239.56,-1.38,-61.75,1.06,-1.75,0.25,84.15,4.44
21.00,2.00,305.56,-8.31,20.19,1.12,-2.25,-1.25,84.15,4.44
21.00,0.00,203.12,15.06,-133.44,3.81,2.50,3.00,84.27,4.46
21.00,1.00,239.62,-1.38,-61.75,1.88,-2.25,-0.25,84.27,4.46
21.00,2.00,305.56,-8.25,20.19,1.31,-2.75,-1.19,84.27,4.46
21.00,0.00,202.94,15.12,-133.50,4.00,2.12,1.62,84.46,4.48
21.00,1.00,239.62,-1.31,-61.81,1.62,-2.38,-0.25,84.46,4.48
21.00,2.00,305.62,-8.19,20.19,0.00,-3.44,-1.06,84.46,4.48
21.00,0.00,202.75,15.19,-133.62,5.94,0.88,2.62,84.74,4.50
21.00,1.00,239.69,-1.31,-61.81,1.81,-1.94,0.00,84.74,4.50
21.00,2.00,305.62,-8.12,20.19,0.25,-3.31,-1.31,84.74,4.50
21.00,0.00,202.50,15.25,-133.75,6.88,1.50,3.50,85.00,4.52
21.00,1.00,239.69,-1.31,-61.88,2.19,-2.12,0.06,85.00,4.52
21.00,2.00,305.62,-8.06,20.19,1.31,-1.94,-1.38,85.00,4.52
21.00,0.00,202.25,15.31,-133.88,5.31,2.44,3.19,85.20,4.54
21.00,1.00,239.69,-1.31,-61.94,2.06,-2.12,0.19,85.20,4.54
21.00,2.00,305.62,-8.06,20.12,1.31,-2.06,-1.50,85.20,4.54
21.00,0.00,202.12,15.31,-133.94,2.88,1.25,0.81,85.27,4.56
21.00,1.00,239.75,-1.25,-61.94,1.94,-2.06,0.06,85.27,4.56
21.00,2.00,305.69,-8.00,20.12,1.38,-2.94,-1.19,85.27,4.56
21.00,0.00,202.12,15.31,-134.00,4.19,-0.56,0.56,85.39,4.58
21.00,1.00,239.75,-1.25,-62.00,1.38,-2.00,-0.12,85.39,4.58
21.00,2.00,305.69,-7.94,20.06,1.62,-2.56,-1.12,85.39,4.58
21.00,0.00,202.06,15.31,-134.12,4.56,-1.12,1.31,85.58,4.60
21.00,1.00,239.81,-1.25,-62.00,1.25,-1.50,0.31,85.58,4.60
21.00,2.00,305.69,-7.88,20.06,0.81,-1.56,-0.50,85.58,4.60
21.00,0.00,201.88,15.38,-134.25,5.50,-1.56,2.81,85.84,4.62
21.00,1.00,239.81,-1.25,-62.06,1.31,-1.06,0.31,85.84,4.62
21.00,2.00,305.69,-7.88,20.06,0.12,-0.88,0.00,85.84,4.62
21.00,0.00,201.81,15.38,-134.31,2.62,0.94,2.19,85.89,4.64
21.00,1.00,239.81,-1.25,-62.06,1.31,-1.44,0.38,85.89,4.64
21.00,2.00,305.69,-7.81,20.00,1.56,-1.88,0.06,85.89,4.64
21.00,0.00,201.75,15.38,-134.31,-0.38,0.50,-1.62,85.83,4.66
21.00,1.00,239.81,-1.19,-62.12,1.00,-1.62,0.44,85.83,4.66
21.00,2.00,305.69,-7.81,20.00,0.81,-1.38,-0.38,85.83,4.66
21.00,0.00,201.81,15.38,-134.31,1.06,-1.62,-1.38,85.87,4.68
21.00,1.00,239.81,-1.19,-62.12,0.56,-0.56,0.31,85.87,4.68
21.00,2.00,305.69,-7.81,20.00,0.12,-0.38,-0.56,85.87,4.68
21.00,0.00,201.81,15.38,-134.38,2.88,0.00,0.88,86.04,4.70
21.00,1.00,239.81,-1.19,-62.12,0.38,0.44,0.44,86.04,4.70
21.00,2.00,305.69,-7.81,20.00,-0.62,0.00,-0.06,86.04,4.70
21.00,0.00,201.69,15.38,-134.38,0.06,0.81,1.19,86.06,4.72
21.00,1.00,239.81,-1.19,-62.12,0.75,-0.38,1.00,86.06,4.72
21.00,2.00,305.69,-7.81,20.00,-0.38,-0.06,0.25,86.06,4.72
21.00,0.00,201.69,15.38,-134.38,-1.25,1.06,0.19,85.96,4.74
21.00,1.00,239.81,-1.12,-62.19,1.06,-1.12,1.00,85.96,4.74
21.00,2.00,305.69,-7.81,20.00,0.81,-0.25,0.06,85.96,4.74
21.00,0.00,201.69,15.38,-134.31,-3.38,1.56,-1.69,85.76,4.76
21.00,1.00,239.81,-1.12,-62.19,0.75,-0.69,0.75,85.76,4.76
21.00,2.00,305.69,-7.81,20.00,0.88,-0.31,0.38,85.76,4.76
21.00,0.00,201.69,15.38,-134.25,-1.94,0.69,-1.25,85.69,4.78
21.00,1.00,239.81,-1.12,-62.19,0.38,-0.12,0.62,85.69,4.78
21.00,2.00,305.69,-7.81,20.00,-0.50,-0.50,0.69,85.69,4.78
21.00,0.00,201.69,15.38,-134.25,-1.31,1.12,-0.62,85.64,4.80
21.00,1.00,239.75,-1.12,-62.19,0.62,-0.44,1.25,85.64,4.80
21.00,2.00,305.69,-7.81,20.00,-0.25,-0.31,0.44,85.64,4.80
21.00,0.00,201.62,15.44,-134.19,-1.75,2.12,-0.31,85.55,4.82
21.00,1.00,239.75,-1.06,-62.19,0.31,-0.44,0.94,85.55,4.82
21.00,2.00,305.69,-7.81,20.00,0.12,-1.00,0.12,85.55,4.82
21.00,0.00,201.56,15.44,-134.12,-1.56,1.25,-0.06,85.46,4.84
21.00,1.00,239.75,-1.06,-62.19,-0.12,-0.62,0.12,85.46,4.84
21.00,2.00,305.69,-7.75,20.00,0.31,-0.12,-0.06,85.46,4.84
21.00,0.00,201.56,15.44,-134.12,-1.56,0.25,-0.44,85.40,4.86
21.00,1.00,239.75,-1.06,-62.19,0.06,-0.19,0.38,85.40,4.86
21.00,2.00,305.69,-7.75,20.00,-0.31,-0.06,-0.06,85.40,4.86
21.00,0.00,201.44,15.44,-134.06,-2.06,-0.19,-1.75,85.32,4.88
21.00,1.00,239.75,-1.06,-62.19,-0.19,-0.44,0.50,85.32,4.88
21.00,2.00,305.69,-7.75,20.00,-0.56,0.00,0.00,85.32,4.88
21.00,0.00,201.56,15.38,-134.00,-2.38,-1.19,-2.06,85.22,4.90
21.00,1.00,239.75,-1.06,-62.19,-0.50,-0.56,0.31,85.22,4.90
21.00,2.00,305.69,-7.81,20.00,-0.12,0.75,0.25,85.22,4.90
21.00,0.00,201.69,15.31,-133.94,-3.44,-1.19,-2.25,85.07,4.92
21.00,1.00,239.75,-1.06,-62.19,-0.56,0.19,0.31,85.07,4.92
21.00,2.00,305.69,-7.81,20.00,-0.31,1.19,0.25,85.07,4.92
21.00,0.00,201.88,15.25,-133.88,-5.69,-1.56,-3.19,84.78,4.94
21.00,1.00,239.75,-1.06,-62.19,-0.62,0.12,0.75,84.78,4.94
21.00,2.00,305.69,-7.81,20.00,0.25,1.50,0.31,84.78,4.94
21.00,0.00,202.19,15.19,-133.69,-7.44,-2.62,-3.62,84.46,4.96
21.00,1.00,239.75,-1.06,-62.19,-1.00,0.50,0.88,84.46,4.96
21.00,2.00,305.69,-7.88,20.00,-0.94,1.81,0.56,84.46,4.96
21.00,0.00,202.50,15.06,-133.50,-8.44,-2.38,-4.19,84.12,4.98
21.00,1.00,239.69,-1.06,-62.19,-1.62,0.56,0.81,84.12,4.98
21.00,2.00,305.69,-7.94,20.06,-1.25,2.81,0.81,84.12,4.98
21.00,0.00,202.88,15.00,-133.31,-9.31,-2.50,-5.50,83.76,5.00
21.00,1.00,239.69,-1.06,-62.12,-2.12,0.81,0.69,83.76,5.00
21.00,2.00,305.69,-8.00,20.06,-1.94,4.25,0.62,83.76,5.00
21.00,0.00,203.25,14.81,-133.12,-10.69,-3.31,-6.69,83.41,5.02
21.00,1.00,239.69,-1.06,-62.12,-2.94,1.62,-0.06,83.41,5.02
21.00,2.00,305.69,-8.12,20.12,-3.50,5.88,0.75,83.41,5.02
21.00,0.00,203.69,14.69,-132.88,-11.94,-3.88,-6.25,83.04,5.04
21.00,1.00,239.62,-1.06,-62.06,-3.62,0.88,-0.25,83.04,5.04
21.00,2.00,305.69,-8.19,20.19,-4.31,5.06,0.81,83.04,5.04
21.00,0.00,204.06,14.56,-132.62,-13.19,-1.94,-4.06,82.62,5.06
21.00,1.00,239.62,-1.06,-62.00,-3.06,0.44,-0.25,82.62,5.06
21.00,2.00,305.69,-8.31,20.31,-4.38,4.50,1.06,82.62,5.06
21.00,0.00,204.38,14.50,-132.31,-16.69,0.44,-5.50,82.03,5.08
21.00,1.00,239.62,-1.06,-61.94,-3.81,0.44,-0.56,82.03,5.08
21.00,2.00,305.69,-8.38,20.38,-4.50,4.75,0.56,82.03,5.08
21.00,0.00,204.81,14.38,-131.94,-18.19,-0.69,-8.44,81.38,5.10
21.00,1.00,239.69,-1.06,-61.88,-4.44,0.50,-1.00,81.38,5.10
21.00,2.00,305.69,-8.50,20.50,-4.69,5.19,0.38,81.38,5.10
21.00,0.00,205.38,14.25,-131.56,-15.81,-2.94,-9.06,80.82,5.12
21.00,1.00,239.69,-1.12,-61.75,-4.94,0.31,-0.94,80.82,5.12
21.00,2.00,305.69,-8.56,20.56,-4.31,5.12,-0.38,80.82,5.12
21.00,0.00,205.62,14.19,-131.31,-11.19,0.38,-4.88,80.52,5.14
21.00,1.00,239.69,-1.12,-61.69,-4.88,0.25,-0.88,80.52,5.14
21.00,2.00,305.69,-8.62,20.69,-4.94,4.69,-0.69,80.52,5.14
21.00,0.00,205.62,14.19,-131.12,-10.31,4.38,-2.81,80.25,5.16
21.00,1.00,239.69,-1.12,-61.56,-3.88,0.00,-1.00,80.25,5.16
21.00,2.00,305.75,-8.75,20.81,-4.69,4.94,-0.50,80.25,5.16
21.00,0.00,205.69,14.19,-130.81,-13.31,4.25,-5.12,79.79,5.18
21.00,1.00,239.75,-1.12,-61.50,-3.31,-0.31,-1.56,79.79,5.18
21.00,2.00,305.75,-8.81,20.88,-3.88,5.62,-0.81,79.79,5.18
21.00,0.00,206.00,14.06,-130.50,-14.94,0.12,-9.50,79.24,5.20
21.00,1.00,239.75,-1.19,-61.44,-3.62,-0.50,-1.94,79.24,5.20
21.00,2.00,305.81,-8.94,20.94,-3.50,5.06,-1.56,79.24,5.20
21.00,0.00,206.44,13.88,-130.25,-11.25,-4.06,-9.44,78.87,5.22
21.00,1.00,239.81,-1.19,-61.38,-3.62,-0.12,-1.81,78.87,5.22
21.00,2.00,305.81,-9.00,21.00,-3.50,3.94,-1.88,78.87,5.22
21.00,0.00,206.75,13.81,-130.06,-7.75,-0.38,-4.06,78.66,5.24
21.00,1.00,239.88,-1.25,-61.31,-3.62,-0.88,-1.69,78.66,5.24
21.00,2.00,305.88,-9.06,21.12,-3.50,4.06,-1.44,78.66,5.24
21.00,0.00,206.81,13.75,-129.94,-6.56,1.56,-2.06,78.58,5.26
21.00,1.00,239.88,-1.25,-61.25,-3.62,-0.44,-1.75,78.58,5.26
21.00,2.00,305.94,-9.12,21.19,-4.88,3.56,-1.06,78.58,5.26
21.00,0.00,206.81,13.75,-129.88,-5.12,1.31,-0.94,78.60,5.28
21.00,1.00,239.94,-1.31,-61.19,-3.31,-1.31,-1.69,78.60,5.28
21.00,2.00,305.94,-9.12,21.31,-5.62,2.75,-0.88,78.60,5.28
21.00,0.00,206.81,13.75,-129.75,-4.31,3.00,-1.75,78.57,5.30
21.00,1.00,240.00,-1.31,-61.12,-2.31,-4.00,-1.56,78.57,5.30
21.00,2.00,305.94,-9.12,21.38,-3.62,0.12,-2.12,78.57,5.30
21.00,0.00,206.75,13.81,-129.69,-1.19,3.69,-0.25,78.66,5.32
21.00,1.00,240.06,-1.31,-61.06,-2.00,-2.81,-2.50,78.66,5.32
21.00,2.00,306.00,-9.12,21.44,-3.06,0.00,-2.62,78.66,5.32
21.00,0.00,206.44,13.88,-129.69,1.19,4.56,1.69,78.90,5.34
21.00,1.00,240.12,-1.31,-61.00,-2.19,-2.31,-2.19,78.90,5.34
21.00,2.00,306.06,-9.12,21.56,-3.69,0.31,-2.81,78.90,5.34
21.00,0.00,206.19,13.94,-129.69,0.69,4.75,0.19,79.11,5.36
21.00,1.00,240.19,-1.31,-61.00,-1.25,-1.81,-1.62,79.11,5.36
21.00,2.00,306.06,-9.06,21.62,-3.75,-2.69,-2.50,79.11,5.36
21.00,0.00,206.00,14.00,-129.69,2.00,2.00,0.25,79.26,5.38
21.00,1.00,240.25,-1.31,-60.94,-0.44,-3.81,-1.56,79.26,5.38
21.00,2.00,306.12,-9.00,21.69,-1.06,-3.19,-3.06,79.26,5.38
21.00,0.00,205.94,14.06,-129.75,4.19,1.69,3.12,79.46,5.40
21.00,1.00,240.38,-1.31,-60.94,-0.12,-4.06,-1.69,79.46,5.40
21.00,2.00,306.19,-8.94,21.69,-0.06,-3.62,-3.50,79.46,5.40
21.00,0.00,205.69,14.12,-129.81,4.81,2.12,4.31,79.70,5.42
21.00,1.00,240.44,-1.31,-60.94,0.19,-4.88,-1.31,79.70,5.42
21.00,2.00,306.19,-8.81,21.75,0.00,-4.81,-2.62,79.70,5.42
21.00,0.00,205.25,14.25,-129.94,6.50,2.81,5.75,80.00,5.44
21.00,1.00,240.50,-1.31,-60.94,0.75,-4.81,-1.50,80.00,5.44
21.00,2.00,306.25,-8.75,21.75,0.19,-5.06,-2.62,80.00,5.44
21.00,0.00,205.00,14.38,-130.06,7.56,2.44,5.31,80.36,5.46
21.00,1.00,240.62,-1.31,-60.94,0.81,-4.81,-1.69,80.36,5.46
21.00,2.00,306.25,-8.62,21.75,0.19,-5.94,-3.25,80.36,5.46
21.00,0.00,204.69,14.44,-130.25,8.31,1.94,5.25,80.78,5.48
21.00,1.00,240.69,-1.25,-61.00,0.75,-4.81,-2.06,80.78,5.48
21.00,2.00,306.31,-8.50,21.75,-0.38,-5.12,-4.56,80.78,5.48
21.00,0.00,204.38,14.56,-130.44,10.19,0.94,6.25,81.33,5.50
21.00,1.00,240.81,-1.25,-61.00,0.38,-5.00,-1.56,81.33,5.50
21.00,2.00,306.44,-8.38,21.81,-1.25,-4.88,-4.69,81.33,5.50
21.00,0.00,204.12,14.69,-130.69,10.00,1.06,6.44,81.89,5.52
21.00,1.00,240.88,-1.25,-61.00,1.31,-5.56,-0.88,81.89,5.52
21.00,2.00,306.50,-8.25,21.88,-1.50,-5.69,-5.19,81.89,5.52
21.00,0.00,203.88,14.75,-130.88,11.62,1.31,8.38,82.53,5.54
21.00,1.00,241.00,-1.19,-61.00,2.31,-6.44,-0.75,82.53,5.54
21.00,2.00,306.56,-8.12,21.94,-1.69,-6.38,-5.50,82.53,5.54
21.00,0.00,203.44,14.94,-131.12,10.44,5.12,8.44,83.01,5.56
21.00,1.00,241.06,-1.19,-61.06,2.88,-5.94,-1.44,83.01,5.56
21.00,2.00,306.62,-8.00,21.94,0.38,-5.75,-5.75,83.01,5.56
21.00,0.00,202.94,15.12,-131.31,9.19,5.19,6.81,83.42,5.58
21.00,1.00,241.12,-1.19,-61.06,2.69,-5.88,-1.75,83.42,5.58
21.00,2.00,306.75,-7.81,21.94,0.81,-6.06,-5.94,83.42,5.58
21.00,0.00,202.62,15.19,-131.50,9.31,1.75,5.31,83.80,5.60
21.00,1.00,241.31,-1.12,-61.12,2.62,-6.44,-1.56,83.80,5.60
21.00,2.00,306.88,-7.69,21.94,1.50,-5.44,-7.06,83.80,5.60
21.00,0.00,202.38,15.31,-131.75,11.75,0.12,7.19,84.32,5.62
21.00,1.00,241.38,-1.12,-61.19,3.69,-6.44,-1.56,84.32,5.62
21.00,2.00,307.00,-7.50,21.94,1.00,-5.62,-7.62,84.32,5.62
21.00,0.00,201.88,15.50,-132.00,12.44,3.19,10.62,84.83,5.64
21.00,1.00,241.50,-1.06,-61.31,3.38,-6.62,-1.25,84.83,5.64
21.00,2.00,307.12,-7.38,21.94,1.88,-5.81,-7.44,84.83,5.64
21.00,0.00,201.44,15.69,-132.19,8.75,3.31,9.25,85.13,5.66
21.00,1.00,241.62,-1.00,-61.38,3.31,-7.00,-1.31,85.13,5.66
21.00,2.00,307.19,-7.25,21.88,2.50,-5.94,-6.69,85.13,5.66
21.00,0.00,201.12,15.75,-132.38,8.25,0.94,7.69,85.38,5.68
21.00,1.00,241.69,-1.00,-61.38,2.88,-6.38,-1.19,85.38,5.68
21.00,2.00,307.31,-7.06,21.88,3.00,-6.31,-6.50,85.38,5.68
21.00,0.00,200.81,15.88,-132.56,8.44,2.19,6.50,85.66,5.70
21.00,1.00,241.75,-0.94,-61.44,3.75,-5.75,-1.00,85.66,5.70
21.00,2.00,307.44,-6.94,21.81,2.69,-6.56,-6.06,85.66,5.70
21.00,0.00,200.38,16.06,-132.75,9.19,3.06,7.56,85.96,5.72
21.00,1.00,241.88,-0.94,-61.50,3.50,-5.06,-0.44,85.96,5.72
21.00,2.00,307.50,-6.75,21.75,3.00,-5.44,-5.31,85.96,5.72
21.00,0.00,200.00,16.19,-132.94,8.81,3.12,7.88,86.25,5.74
21.00,1.00,241.88,-0.88,-61.56,3.25,-4.81,-0.50,86.25,5.74
21.00,2.00,307.56,-6.69,21.69,2.69,-4.69,-4.44,86.25,5.74
21.00,0.00,199.69,16.31,-133.12,6.50,1.94,5.62,86.44,5.76
21.00,1.00,242.00,-0.81,-61.69,4.31,-4.56,0.38,86.44,5.76
21.00,2.00,307.62,-6.50,21.62,2.69,-5.44,-4.19,86.44,5.76
21.00,0.00,199.50,16.38,-133.25,6.50,0.44,4.06,86.59,5.78
21.00,1.00,242.00,-0.81,-61.75,4.44,-4.62,0.50,86.59,5.78
21.00,2.00,307.69,-6.38,21.56,3.31,-5.62,-3.69,86.59,5.78
21.00,0.00,199.19,16.44,-133.44,7.81,1.50,5.56,86.78,5.80
21.00,1.00,242.06,-0.75,-61.81,4.88,-3.88,1.25,86.78,5.80
21.00,2.00,307.75,-6.25,21.50,3.88,-5.56,-3.06,86.78,5.80
21.00,0.00,198.75,16.62,-133.62,9.69,4.88,7.56,87.04,5.82
21.00,1.00,242.06,-0.69,-61.94,5.19,-2.94,2.00,87.04,5.82
21.00,2.00,307.75,-6.19,21.44,4.31,-6.31,-1.38,87.04,5.82
21.00,0.00,198.19,16.81,-133.75,7.88,7.75,6.88,87.27,5.84
21.00,1.00,242.06,-0.62,-62.00,5.12,-2.69,2.38,87.27,5.84
21.00,2.00,307.75,-6.06,21.31,3.19,-6.06,-0.19,87.27,5.84
21.00,0.00,197.75,16.94,-133.88,6.06,6.06,3.94,87.41,5.86
21.00,1.00,242.06,-0.50,-62.19,4.88,-2.62,1.88,87.41,5.86
21.00,2.00,307.75,-5.94,21.25,3.06,-6.62,-0.56,87.41,5.86
21.00,0.00,197.31,17.12,-134.00,6.69,5.88,3.69,87.60,5.88
21.00,1.00,242.06,-0.50,-62.25,5.12,-2.75,2.12,87.60,5.88
21.00,2.00,307.75,-5.81,21.19,2.75,-6.62,-1.06,87.60,5.88
21.00,0.00,196.81,17.25,-134.12,7.12,7.12,4.81,87.78,5.90
21.00,1.00,242.00,-0.44,-62.31,4.00,-2.25,2.44,87.78,5.90
21.00,2.00,307.75,-5.69,21.12,3.50,-6.31,-1.00,87.78,5.90
21.00,0.00,196.38,17.44,-134.25,7.56,5.31,5.75,88.04,5.92
21.00,1.00,242.00,-0.38,-62.44,3.75,-2.50,2.81,88.04,5.92
21.00,2.00,307.69,-5.56,21.06,2.25,-5.62,-0.44,88.04,5.92
21.00,0.00,196.00,17.56,-134.38,4.44,4.81,4.75,88.17,5.94
21.00,1.00,242.00,-0.31,-62.50,3.75,-2.81,3.00,88.17,5.94
21.00,2.00,307.69,-5.44,21.00,1.62,-5.75,-0.25,88.17,5.94
21.00,0.00,195.81,17.62,-134.44,3.25,2.00,2.94,88.21,5.96
21.00,1.00,242.00,-0.25,-62.56,3.56,-2.50,1.88,88.21,5.96
21.00,2.00,307.69,-5.38,21.00,2.38,-4.81,-0.81,88.21,5.96
21.00,0.00,195.62,17.69,-134.50,4.12,0.81,3.44,88.25,5.98
21.00,1.00,241.94,-0.19,-62.62,3.25,-2.69,2.12,88.25,5.98
21.00,2.00,307.69,-5.25,20.94,3.38,-4.62,-1.44,88.25,5.98
21.00,0.00,195.44,17.75,-134.62,4.00,1.44,4.50,88.28,6.00
21.00,1.00,241.94,-0.12,-62.69,3.00,-3.44,2.19,88.28,6.00
21.00,2.00,307.75,-5.19,20.88,3.38,-5.19,-2.00,88.28,6.00
21.00,0.00,195.19,17.88,-134.69,3.50,2.25,5.31,88.38,6.02
21.00,1.00,241.94,0.00,-62.75,2.94,-4.31,2.06,88.38,6.02
21.00,2.00,307.75,-5.06,20.81,1.44,-5.62,-2.19,88.38,6.02
21.00,0.00,194.88,17.94,-134.75,3.38,3.19,5.38,88.47,6.04
21.00,1.00,242.00,0.00,-62.81,2.62,-4.38,0.69,88.47,6.04
21.00,2.00,307.75,-4.94,20.81,1.44,-4.62,-2.62,88.47,6.04
21.00,0.00,194.56,18.12,-134.81,3.94,4.62,4.81,88.54,6.06
21.00,1.00,242.06,0.00,-62.88,3.00,-5.12,0.19,88.54,6.06
21.00,2.00,307.81,-4.88,20.75,2.50,-4.62,-3.06,88.54,6.06
21.00,0.00,194.19,18.25,-134.94,3.81,4.56,4.38,88.56,6.08
21.00,1.00,242.12,0.06,-62.94,3.06,-5.56,0.69,88.56,6.08
21.00,2.00,307.88,-4.75,20.69,3.56,-5.56,-3.94,88.56,6.08
21.00,0.00,193.88,18.31,-135.00,4.00,4.12,4.81,88.58,6.10
21.00,1.00,242.12,0.12,-63.00,3.44,-5.62,0.81,88.58,6.10
21.00,2.00,307.94,-4.62,20.62,3.56,-6.06,-4.25,88.58,6.10
21.00,0.00,193.44,18.50,-135.06,4.81,5.25,5.69,88.65,6.12
21.00,1.00,242.19,0.19,-63.06,3.94,-5.00,0.19,88.65,6.12
21.00,2.00,308.00,-4.44,20.56,3.31,-6.19,-3.62,88.65,6.12
21.00,0.00,193.00,18.62,-135.19,6.19,5.56,6.44,88.80,6.14
21.00,1.00,242.25,0.19,-63.12,3.81,-5.12,0.31,88.80,6.14
21.00,2.00,308.06,-4.31,20.50,3.00,-5.50,-4.25,88.80,6.14
21.00,0.00,192.56,18.81,-135.31,6.50,5.31,5.81,88.99,6.16
21.00,1.00,242.31,0.25,-63.19,3.56,-5.38,0.38,88.99,6.16
21.00,2.00,308.12,-4.19,20.50,2.62,-5.31,-4.31,88.99,6.16
21.00,0.00,192.19,18.94,-135.50,8.12,2.81,5.50,89.24,6.18
21.00,1.00,242.38,0.31,-63.25,3.62,-5.38,0.25,89.24,6.18
21.00,2.00,308.19,-4.06,20.44,2.94,-5.56,-4.50,89.24,6.18
21.00,0.00,191.75,19.06,-135.69,9.00,4.12,6.88,89.52,6.20
21.00,1.00,242.44,0.38,-63.38,4.75,-4.69,0.00,89.52,6.20
21.00,2.00,308.25,-3.94,20.38,3.25,-5.75,-4.06,89.52,6.20
21.00,0.00,191.25,19.19,-135.88,7.81,4.62,6.56,89.71,6.22
21.00,1.00,242.50,0.38,-63.44,4.00,-5.00,0.38,89.71,6.22
21.00,2.00,308.31,-3.81,20.31,3.81,-5.94,-3.62,89.71,6.22
21.00,0.00,190.88,19.31,-136.00,7.06,2.06,5.94,89.82,6.24
21.00,1.00,242.56,0.44,-63.56,4.62,-4.62,0.31,89.82,6.24
21.00,2.00,308.38,-3.69,20.19,4.94,-4.69,-4.19,89.82,6.24
21.00,0.00,190.56,19.44,-136.19,7.94,1.12,5.44,89.98,6.26
21.00,1.00,242.62,0.50,-63.62,3.75,-3.81,0.25,89.98,6.26
21.00,2.00,308.44,-3.56,20.12,4.50,-4.25,-3.19,89.98,6.26
21.00,0.00,190.25,19.50,-136.38,8.81,1.81,5.44,90.22,6.28
21.00,1.00,242.62,0.50,-63.69,4.62,-2.94,0.69,90.22,6.28
21.00,2.00,308.44,-3.50,20.00,3.94,-4.88,-1.44,90.22,6.28
21.00,0.00,189.88,19.62,-136.56,9.12,2.12,5.31,90.49,6.30
21.00,1.00,242.62,0.56,-63.81,4.31,-2.75,1.19,90.49,6.30
21.00,2.00,308.44,-3.38,19.94,3.38,-4.94,-0.69,90.49,6.30
21.00,0.00,189.50,19.75,-136.75,9.44,1.44,5.19,90.78,6.32
21.00,1.00,242.62,0.62,-63.88,4.88,-2.31,1.19,90.78,6.32
21.00,2.00,308.44,-3.31,19.88,3.50,-4.38,-0.69,90.78,6.32
21.00,0.00,189.12,19.81,-137.00,9.38,0.62,5.25,91.02,6.34
21.00,1.00,242.62,0.62,-64.00,5.06,-2.06,1.25,91.02,6.34
21.00,2.00,308.44,-3.25,19.81,4.38,-3.94,-1.06,91.02,6.34
21.00,0.00,188.81,19.88,-137.19,9.44,0.50,5.50,91.21,6.36
21.00,1.00,242.62,0.69,-64.12,4.69,-1.56,1.19,91.21,6.36
21.00,2.00,308.50,-3.12,19.69,5.56,-3.44,-1.19,91.21,6.36
21.00,0.00,188.50,19.94,-137.44,8.69,0.50,5.06,91.38,6.38
21.00,1.00,242.62,0.75,-64.19,3.62,-0.56,1.25,91.38,6.38
21.00,2.00,308.50,-3.06,19.56,5.25,-3.06,-0.38,91.38,6.38
21.00,0.00,188.12,20.06,-137.62,9.75,1.31,5.25,91.70,6.40
21.00,1.00,242.62,0.75,-64.25,3.88,-0.62,1.31,91.70,6.40
21.00,2.00,308.44,-3.00,19.50,3.12,-3.69,0.88,91.70,6.40
21.00,0.00,187.62,20.19,-137.81,9.44,4.31,5.81,92.02,6.42
21.00,1.00,242.56,0.81,-64.38,4.12,-0.81,1.44,92.02,6.42
21.00,2.00,308.44,-2.94,19.44,2.75,-4.25,1.38,92.02,6.42
21.00,0.00,187.19,20.31,-138.00,6.81,5.00,3.94,92.21,6.44
21.00,1.00,242.56,0.81,-64.44,3.62,-0.62,1.00,92.21,6.44
21.00,2.00,308.38,-2.88,19.38,2.94,-3.44,1.12,92.21,6.44
21.00,0.00,186.94,20.38,-138.06,4.00,1.94,0.50,92.20,6.46
21.00,1.00,242.56,0.88,-64.50,2.75,-1.06,0.94,92.20,6.46
21.00,2.00,308.38,-2.81,19.31,4.19,-3.81,0.81,92.20,6.46
21.00,0.00,186.81,20.38,-138.19,6.56,-1.69,0.00,92.32,6.48
21.00,1.00,242.56,0.88,-64.56,2.75,-0.69,0.88,92.32,6.48
21.00,2.00,308.31,-2.75,19.19,3.94,-4.75,0.56,92.32,6.48
21.00,0.00,186.56,20.38,-138.38,9.75,1.69,3.50,92.65,6.50
21.00,1.00,242.56,0.88,-64.62,3.19,-1.50,0.88,92.65,6.50
21.00,2.00,308.31,-2.62,19.12,3.06,-5.31,1.19,92.65,6.50
21.00,0.00,186.00,20.56,-138.56,10.12,5.94,4.69,93.01,6.52
21.00,1.00,242.56,0.94,-64.69,3.12,-2.00,0.81,93.01,6.52
21.00,2.00,308.25,-2.56,19.06,2.62,-4.44,1.56,93.01,6.52
21.00,0.00,185.56,20.62,-138.69,8.62,4.88,2.38,93.29,6.54
21.00,1.00,242.56,0.94,-64.75,3.06,-2.12,0.19,93.29,6.54
21.00,2.00,308.25,-2.50,19.06,2.81,-4.44,0.88,93.29,6.54
21.00,0.00,185.25,20.69,-138.88,7.69,3.25,-0.44,93.52,6.56
21.00,1.00,242.56,1.00,-64.81,2.88,-2.50,0.00,93.52,6.56
21.00,2.00,308.19,-2.44,19.00,2.94,-4.12,0.31,93.52,6.56
21.00,0.00,184.94,20.75,-139.00,8.19,3.75,-0.50,93.79,6.58
21.00,1.00,242.62,1.00,-64.88,2.44,-2.38,0.12,93.79,6.58
21.00,2.00,308.19,-2.31,18.94,2.62,-4.81,-0.19,93.79,6.58
21.00,0.00,65.00,20.81,-139.12,8.44,3.38,1.06,94.09,6.60
21.00,1.00,242.62,1.00,-64.94,1.94,-2.50,0.06,94.09,6.60
21.00,2.00,308.19,-2.25,18.88,2.19,-4.56,-0.25,94.09,6.60
21.00,0.00,64.94,20.88,-139.31,8.94,3.62,2.06,94.43,6.62
21.00,1.00,242.69,1.06,-64.94,2.19,-2.19,-0.25,94.43,6.62
21.00,2.00,308.19,-2.19,18.81,1.88,-3.94,-0.25,94.43,6.62
21.00,0.00,64.94,20.94,-139.44,9.56,3.56,2.69,94.81,6.64
21.00,1.00,242.69,1.06,-65.00,2.19,-1.88,-0.19,94.81,6.64
21.00,2.00,308.19,-2.12,18.81,1.81,-3.19,-0.38,94.81,6.64
21.00,0.00,64.94,21.06,-139.69,10.19,4.94,4.12,95.19,6.66
21.00,1.00,242.75,1.06,-65.06,2.44,-2.12,-0.38,95.19,6.66
21.00,2.00,308.19,-2.06,18.75,2.31,-2.88,-0.75,95.19,6.66
21.00,0.00,64.94,21.19,-139.81,8.25,5.44,3.62,95.45,6.68
21.00,1.00,242.75,1.12,-65.12,2.19,-1.94,-0.50,95.45,6.68
21.00,2.00,308.12,-2.00,18.75,2.75,-3.81,-0.38,95.45,6.68
21.00,0.00,64.94,21.31,-139.94,5.25,4.19,2.62,95.59,6.70
21.00,1.00,242.81,1.12,-65.12,1.81,-2.44,-0.06,95.59,6.70
21.00,2.00,308.12,-1.94,18.69,2.44,-5.81,-1.06,95.59,6.70
21.00,0.00,64.94,21.38,-139.94,3.25,2.00,1.12,95.63,6.72
21.00,1.00,242.81,1.12,-65.19,1.31,-2.00,-0.31,95.63,6.72
21.00,2.00,308.19,-1.81,18.62,2.38,-5.62,-1.56,95.63,6.72
21.00,0.00,64.94,21.38,-140.06,5.00,0.81,1.81,95.79,6.74
21.00,1.00,242.81,1.12,-65.19,1.12,-1.12,-0.62,95.79,6.74
21.00,2.00,308.19,-1.69,18.56,1.75,-4.38,-1.69,95.79,6.74
21.00,0.00,65.00,21.44,-140.19,7.50,1.94,4.88,96.04,6.76
21.00,1.00,242.88,1.12,-65.25,2.12,-0.94,-0.56,96.04,6.76
21.00,2.00,308.19,-1.62,18.56,2.25,-3.62,-1.50,96.04,6.76
21.00,0.00,65.06,21.62,-140.38,8.56,4.06,6.81,96.38,6.78
21.00,1.00,242.88,1.12,-65.25,2.62,-0.62,-0.12,96.38,6.78
21.00,2.00,308.19,-1.56,18.50,1.56,-3.19,-0.44,96.38,6.78
21.00,0.00,65.12,21.75,-140.56,7.25,3.25,6.88,96.66,6.80
21.00,1.00,242.88,1.12,-65.31,2.56,-1.56,0.38,96.66,6.80
21.00,2.00,308.19,-1.50,18.50,1.38,-3.94,-0.19,96.66,6.80
21.00,0.00,65.19,21.88,-140.69,5.31,2.38,5.38,96.79,6.82
21.00,1.00,242.88,1.19,-65.38,2.94,-2.38,0.38,96.79,6.82
21.00,2.00,308.19,-1.44,18.44,2.69,-4.88,-1.31,96.79,6.82
21.00,0.00,65.25,21.88,-140.75,4.94,1.12,4.38,96.87,6.84
21.00,1.00,242.94,1.19,-65.44,2.31,-2.12,0.00,96.87,6.84
21.00,2.00,308.19,-1.31,18.38,3.25,-4.62,-2.31,96.87,6.84
21.00,0.00,65.31,22.00,-140.94,5.44,1.75,4.62,97.01,6.86
21.00,1.00,242.94,1.19,-65.50,2.19,-1.62,0.25,97.01,6.86
21.00,2.00,308.25,-1.25,18.31,2.56,-4.56,-2.00,97.01,6.86
21.00,0.00,65.38,22.06,-141.00,5.88,2.62,5.31,97.24,6.88
21.00,1.00,242.94,1.19,-65.50,2.19,-1.62,0.50,97.24,6.88
21.00,2.00,308.25,-1.12,18.31,1.12,-4.44,-1.44,97.24,6.88
21.00,0.00,65.44,22.19,-141.19,5.62,3.00,5.25,97.43,6.90
21.00,1.00,243.00,1.25,-65.56,2.44,-2.06,0.81,97.43,6.90
21.00,2.00,308.25,-1.06,18.31,1.75,-4.62,-1.81,97.43,6.90
21.00,0.00,65.50,22.31,-141.31,4.75,2.50,5.06,97.54,6.92
21.00,1.00,243.00,1.25,-65.62,2.88,-2.50,0.50,97.54,6.92
21.00,2.00,308.31,-0.94,18.25,2.38,-3.00,-2.12,97.54,6.92
21.00,0.00,65.56,22.38,-141.38,3.44,0.56,3.69,97.59,6.94
21.00,1.00,243.06,1.31,-65.69,2.56,-2.12,0.25,97.59,6.94
21.00,2.00,308.38,-0.94,18.19,2.56,-1.31,-2.31,97.59,6.94
21.00,0.00,65.56,22.38,-141.44,3.19,-0.62,3.19,97.67,6.96
21.00,1.00,243.06,1.31,-65.75,2.06,-1.88,0.38,97.67,6.96
21.00,2.00,308.38,-0.88,18.19,1.44,-1.81,-1.38,97.67,6.96
21.00,0.00,65.62,22.38,-141.50,2.12,0.06,2.88,97.69,6.98
21.00,1.00,243.06,1.31,-65.75,2.69,-1.94,0.62,97.69,6.98
21.00,2.00,308.38,-0.81,18.12,1.62,-1.94,-0.75,97.69,6.98
21.00,0.00,65.69,22.44,-141.56,1.19,1.00,2.38,97.68,7.00
21.00,1.00,243.06,1.38,-65.81,2.75,-1.44,0.75,97.68,7.00
21.00,2.00,308.38,-0.81,18.12,1.56,-1.44,-1.31,97.68,7.00
21.00,0.00,65.69,22.50,-141.56,0.62,0.12,2.25,97.64,7.02
21.00,1.00,243.06,1.38,-65.88,2.94,-1.44,1.00,97.64,7.02
21.00,2.00,308.44,-0.75,18.06,1.44,-1.06,-1.62,97.64,7.02
21.00,0.00,65.75,22.50,-141.62,1.00,0.00,1.94,97.60,7.04
21.00,1.00,243.06,1.38,-65.94,2.94,-1.69,0.69,97.60,7.04
21.00,2.00,308.44,-0.75,18.06,1.81,-1.75,-1.75,97.60,7.04
21.00,0.00,65.75,22.56,-141.62,1.88,1.75,2.00,97.59,7.06
21.00,1.00,243.12,1.44,-66.00,3.12,-2.00,0.06,97.59,7.06
21.00,2.00,308.50,-0.69,18.00,1.94,-1.75,-1.62,97.59,7.06
21.00,0.00,65.75,22.56,-141.69,1.88,2.62,1.94,97.59,7.08
21.00,1.00,243.12,1.44,-66.06,3.06,-1.88,-0.25,97.59,7.08
21.00,2.00,308.50,-0.62,18.00,1.88,-0.94,-1.75,97.59,7.08
21.00,0.00,65.81,22.62,-141.75,2.50,2.00,1.50,97.62,7.10
21.00,1.00,243.19,1.44,-66.12,2.62,-2.50,0.00,97.62,7.10
21.00,2.00,308.56,-0.62,17.94,2.06,-1.94,-1.12,97.62,7.10
21.00,0.00,65.81,22.69,-141.75,2.50,2.06,1.62,97.64,7.12
21.00,1.00,243.19,1.50,-66.19,3.06,-2.69,0.50,97.64,7.12
21.00,2.00,308.56,-0.56,17.88,2.00,-2.88,-0.69,97.64,7.12
21.00,0.00,65.81,22.69,-141.81,2.88,1.81,1.69,97.64,7.14
21.00,1.00,243.25,1.50,-66.25,3.00,-2.62,0.50,97.64,7.14
21.00,2.00,308.56,-0.50,17.88,2.81,-2.38,-1.00,97.64,7.14
21.00,0.00,65.81,22.75,-141.88,4.62,0.88,1.50,97.73,7.16
21.00,1.00,243.25,1.50,-66.31,2.81,-1.75,0.50,97.73,7.16
21.00,2.00,308.56,-0.50,17.81,2.75,-2.19,-1.25,97.73,7.16
21.00,0.00,65.81,22.81,-142.00,5.12,0.94,1.38,97.88,7.18
21.00,1.00,243.25,1.56,-66.38,2.81,-1.88,0.75,97.88,7.18
21.00,2.00,308.56,-0.44,17.75,2.19,-2.38,-1.12,97.88,7.18
21.00,0.00,65.75,22.81,-142.12,6.69,1.25,1.19,98.10,7.20
21.00,1.00,243.25,1.56,-66.44,3.19,-2.19,1.00,98.10,7.20
21.00,2.00,308.56,-0.38,17.69,2.12,-3.50,-0.38,98.10,7.20
21.00,0.00,65.75,22.88,-142.25,6.12,3.38,2.25,98.25,7.22
21.00,1.00,243.25,1.62,-66.50,4.12,-2.31,0.69,98.25,7.22
21.00,2.00,308.56,-0.31,17.69,2.94,-4.19,0.31,98.25,7.22
21.00,0.00,65.75,22.94,-142.38,5.62,4.38,2.50,98.35,7.24
21.00,1.00,243.31,1.62,-66.56,3.44,-1.19,0.81,98.35,7.24
21.00,2.00,308.56,-0.25,17.56,3.50,-3.75,0.19,98.35,7.24
21.00,0.00,65.75,23.06,-142.50,5.69,3.56,2.69,98.47,7.26
21.00,1.00,243.25,1.62,-66.62,3.44,-0.38,0.94,98.47,7.26
21.00,2.00,308.56,-0.19,17.50,3.31,-4.12,0.56,98.47,7.26
21.00,0.00,65.75,23.12,-142.62,6.00,3.50,2.50,98.61,7.28
21.00,1.00,243.25,1.69,-66.69,3.31,0.06,1.25,98.61,7.28
21.00,2.00,308.50,-0.06,17.44,2.94,-4.50,0.94,98.61,7.28
21.00,0.00,65.75,23.25,-142.75,7.00,3.50,2.62,98.86,7.30
21.00,1.00,243.19,1.69,-66.75,3.81,-0.19,1.69,98.86,7.30
21.00,2.00,308.50,0.00,17.44,1.94,-4.25,0.56,98.86,7.30
21.00,0.00,65.75,23.31,-142.88,6.50,3.38,2.62,99.03,7.32
21.00,1.00,243.19,1.75,-66.88,4.31,-0.56,1.38,99.03,7.32
21.00,2.00,308.50,0.00,17.38,2.94,-3.88,0.44,99.03,7.32
21.00,0.00,65.75,23.38,-143.00,6.50,2.25,2.19,99.18,7.34
21.00,1.00,243.19,1.75,-66.94,3.88,-0.94,1.50,99.18,7.34
21.00,2.00,308.44,0.06,17.31,3.44,-4.81,0.19,99.18,7.34
21.00,0.00,65.75,23.38,-143.12,6.44,1.25,1.44,99.33,7.36
21.00,1.00,243.12,1.81,-67.00,2.50,-1.69,2.31,99.33,7.36
21.00,2.00,308.44,0.19,17.25,3.25,-5.44,-0.12,99.33,7.36
21.00,0.00,65.75,23.44,-143.25,7.81,1.94,2.69,99.58,7.38
21.00,1.00,243.12,1.88,-67.06,3.00,-2.06,1.94,99.58,7.38
21.00,2.00,308.44,0.31,17.19,2.62,-4.88,0.19,99.58,7.38
21.00,0.00,65.75,23.56,-143.44,7.50,4.44,2.94,99.85,7.40
21.00,1.00,243.12,1.94,-67.12,2.31,-1.62,1.19,99.85,7.40
21.00,2.00,308.44,0.38,17.12,2.00,-4.25,0.19,99.85,7.40
21.00,0.00,65.75,23.69,-143.56,6.81,4.44,2.38,100.11,7.42
21.00,1.00,243.12,1.94,-67.12,2.00,-1.25,1.25,100.11,7.42
21.00,2.00,308.38,0.44,17.12,1.50,-4.88,0.31,100.11,7.42
21.00,0.00,65.75,23.75,-143.69,6.31,4.50,1.38,100.32,7.44
21.00,1.00,243.12,2.00,-67.19,2.12,-1.94,1.88,100.32,7.44
21.00,2.00,308.38,0.56,17.06,2.00,-5.06,0.06,100.32,7.44
21.00,0.00,65.69,23.81,-143.75,5.81,5.00,1.31,100.47,7.46
21.00,1.00,243.06,2.06,-67.25,2.25,-2.19,2.25,100.47,7.46
21.00,2.00,308.38,0.62,17.00,2.56,-6.00,0.50,100.47,7.46
21.00,0.00,65.69,23.94,-143.88,6.62,5.56,3.06,100.67,7.48
21.00,1.00,243.06,2.12,-67.31,2.62,-2.12,2.81,100.67,7.48
21.00,2.00,308.31,0.75,17.00,2.44,-6.31,0.69,100.67,7.48
21.00,0.00,65.69,24.12,-144.00,6.69,7.19,3.94,100.86,7.50
21.00,1.00,243.00,2.19,-67.38,3.12,-0.88,2.81,100.86,7.50
21.00,2.00,308.31,0.88,16.94,2.94,-5.38,-0.31,100.86,7.50
21.00,0.00,65.69,24.25,-144.12,6.88,6.06,3.06,100.98,7.52
21.00,1.00,242.94,2.19,-67.38,2.81,-0.44,2.62,100.98,7.52
21.00,2.00,308.31,0.94,16.81,4.38,-5.00,-1.00,100.98,7.52
21.00,0.00,65.62,24.38,-144.19,4.19,5.38,0.81,101.05,7.54
21.00,1.00,242.94,2.25,-67.44,1.75,0.06,2.88,101.05,7.54
21.00,2.00,308.31,1.06,16.75,2.75,-4.75,0.81,101.05,7.54
21.00,0.00,65.62,24.38,-144.25,3.50,1.62,-1.56,101.19,7.56
21.00,1.00,242.81,2.31,-67.50,0.94,0.75,2.88,101.19,7.56
21.00,2.00,308.25,1.12,16.75,0.50,-3.06,2.06,101.19,7.56
21.00,0.00,65.56,24.38,-144.38,6.50,0.62,1.00,101.51,7.58
21.00,1.00,242.81,2.38,-67.50,1.62,1.50,2.75,101.51,7.58
21.00,2.00,308.19,1.19,16.75,-0.12,-2.25,2.62,101.51,7.58
21.00,0.00,65.56,24.50,-144.50,7.25,4.88,3.44,101.81,7.60
21.00,1.00,242.69,2.44,-67.56,1.00,2.19,1.69,101.81,7.60
21.00,2.00,308.12,1.19,16.75,1.00,-1.94,2.94,101.81,7.60
21.00,0.00,65.56,24.62,-144.56,4.62,6.62,3.75,101.96,7.62
21.00,1.00,242.62,2.44,-67.62,0.81,1.94,1.19,101.96,7.62
21.00,2.00,308.06,1.25,16.69,1.56,-2.12,3.06,101.96,7.62
21.00,0.00,65.56,24.75,-144.62,1.88,5.75,1.88,102.05,7.64
21.00,1.00,242.56,2.50,-67.62,0.38,2.25,1.25,102.05,7.64
21.00,2.00,308.00,1.25,16.69,0.12,-4.06,3.88,102.05,7.64
21.00,0.00,65.56,24.81,-144.62,0.50,5.75,-0.12,102.08,7.66
21.00,1.00,242.50,2.50,-67.62,0.62,1.50,1.00,102.08,7.66
21.00,2.00,307.94,1.31,16.69,-0.12,-4.56,3.94,102.08,7.66
21.00,0.00,65.50,24.94,-144.56,0.94,6.25,-0.19,102.11,7.68
21.00,1.00,242.50,2.50,-67.62,1.25,1.31,0.81,102.11,7.68
21.00,2.00,307.81,1.38,16.69,0.25,-4.06,3.31,102.11,7.68
21.00,0.00,65.50,25.06,-144.56,1.31,6.56,0.62,102.10,7.70
21.00,1.00,242.44,2.50,-67.62,1.19,1.12,0.50,102.10,7.70
21.00,2.00,307.75,1.44,16.69,1.44,-2.81,2.44,102.10,7.70
21.00,0.00,65.44,25.06,-144.56,1.19,4.38,0.31,102.06,7.72
21.00,1.00,242.44,2.50,-67.69,0.56,1.00,0.50,102.06,7.72
21.00,2.00,307.69,1.44,16.62,2.06,-2.25,2.06,102.06,7.72
21.00,0.00,65.44,25.12,-144.56,2.19,1.44,0.75,102.15,7.74
21.00,1.00,242.44,2.50,-67.69,0.19,0.38,1.06,102.15,7.74
21.00,2.00,307.69,1.50,16.62,0.25,-2.00,2.00,102.15,7.74
21.00,0.00,65.38,25.12,-144.62,2.88,1.44,0.62,102.34,7.76
21.00,1.00,242.38,2.50,-67.69,-0.19,-0.44,1.00,102.34,7.76
21.00,2.00,307.62,1.50,16.62,-0.88,-2.50,2.06,102.34,7.76
21.00,0.00,65.38,25.19,-144.62,3.25,3.62,0.12,102.56,7.78
21.00,1.00,242.38,2.50,-67.69,-0.44,-0.69,0.25,102.56,7.78
21.00,2.00,307.56,1.56,16.69,-1.31,-1.75,1.25,102.56,7.78
21.00,0.00,65.31,25.25,-144.69,3.56,3.81,0.06,102.76,7.80
21.00,1.00,242.38,2.50,-67.69,-0.62,-1.06,-0.44,102.76,7.80
21.00,2.00,307.56,1.56,16.69,-0.69,-1.00,0.25,102.76,7.80
21.00,0.00,65.31,25.31,-144.75,3.69,3.38,-0.12,102.97,7.82
21.00,1.00,242.44,2.50,-67.69,-0.38,-1.38,-0.38,102.97,7.82
21.00,2.00,307.56,1.56,16.69,-0.56,-0.50,-0.31,102.97,7.82
21.00,0.00,65.25,25.38,-144.81,3.50,3.25,0.25,103.14,7.84
21.00,1.00,242.44,2.50,-67.69,-0.69,-1.44,-0.75,103.14,7.84
21.00,2.00,307.56,1.56,16.75,-0.12,-0.56,-0.69,103.14,7.84
21.00,0.00,65.25,25.44,-144.81,2.25,3.19,0.31,103.23,7.86
21.00,1.00,242.44,2.50,-67.62,-0.75,-1.19,-0.88,103.23,7.86
21.00,2.00,307.62,1.62,16.75,0.44,-0.75,-0.88,103.23,7.86
21.00,0.00,65.19,25.50,-144.81,2.06,3.12,0.69,103.32,7.88
21.00,1.00,242.50,2.50,-67.62,-0.12,-1.25,-0.31,103.32,7.88
21.00,2.00,307.62,1.62,16.75,0.25,-0.88,-0.50,103.32,7.88
21.00,0.00,65.19,25.56,-144.88,2.19,4.06,1.19,103.39,7.90
21.00,1.00,242.50,2.56,-67.62,0.00,-0.81,0.06,103.39,7.90
21.00,2.00,307.62,1.62,16.75,0.75,-1.94,0.19,103.39,7.90
21.00,0.00,65.19,25.62,-144.88,1.62,4.81,1.38,103.40,7.92
21.00,1.00,242.50,2.56,-67.62,0.56,-0.38,-0.12,103.40,7.92
21.00,2.00,307.62,1.69,16.69,1.44,-1.69,0.50,103.40,7.92
21.00,0.00,65.19,25.75,-144.88,1.31,4.56,1.56,103.39,7.94
21.00,1.00,242.50,2.56,-67.62,0.25,0.38,-0.12,103.39,7.94
21.00,2.00,307.56,1.69,16.69,1.44,-1.19,0.69,103.39,7.94
21.00,0.00,65.19,25.81,-144.94,1.62,3.44,1.94,103.45,7.96
21.00,1.00,242.50,2.56,-67.62,-0.31,0.38,0.06,103.45,7.96
21.00,2.00,307.56,1.75,16.69,0.31,-2.25,0.75,103.45,7.96
21.00,0.00,65.19,25.88,-145.00,2.19,2.31,2.44,103.55,7.98
21.00,1.00,242.50,2.56,-67.62,0.62,0.19,0.12,103.55,7.98
21.00,2.00,307.56,1.75,16.69,0.25,-2.06,0.56,103.55,7.98
21.00,0.00,65.25,25.94,-145.06,2.81,1.88,2.62,103.64,8.00
21.00,1.00,242.50,2.56,-67.62,0.50,-0.31,-0.31,103.64,8.00
21.00,2.00,307.56,1.81,16.69,0.94,-1.25,0.31,103.64,8.00
21.00,0.00,65.25,26.00,-145.12,3.38,2.12,3.19,103.72,8.02
21.00,1.00,242.50,2.50,-67.69,0.62,-0.25,-0.81,103.72,8.02
21.00,2.00,307.56,1.81,16.62,1.62,-0.81,-0.12,103.72,8.02
21.00,0.00,65.31,26.06,-145.19,3.38,1.50,3.12,103.85,8.04
21.00,1.00,242.50,2.50,-67.69,0.12,0.50,-0.81,103.85,8.04
21.00,2.00,307.56,1.81,16.62,0.69,-0.81,-0.12,103.85,8.04
21.00,0.00,65.31,26.06,-145.31,3.75,-0.44,3.06,104.01,8.06
21.00,1.00,242.50,2.50,-67.69,-0.19,0.06,-0.19,104.01,8.06
21.00,2.00,307.56,1.81,16.62,0.44,-1.12,-0.12,104.01,8.06
21.00,0.00,65.38,26.12,-145.38,3.44,-0.94,2.81,104.16,8.08
21.00,1.00,242.56,2.50,-67.69,0.31,-1.25,-0.44,104.16,8.08
21.00,2.00,307.56,1.88,16.62,0.38,-1.81,-0.56,104.16,8.08
21.00,0.00,65.44,26.12,-145.44,2.69,-0.81,2.69,104.27,8.10
21.00,1.00,242.56,2.50,-67.69,0.25,-1.12,-0.94,104.27,8.10
21.00,2.00,307.56,1.88,16.62,0.44,-0.75,-0.31,104.27,8.10
21.00,0.00,65.44,26.12,-145.56,2.94,-0.44,2.81,104.39,8.12
21.00,1.00,242.62,2.50,-67.69,0.25,-0.69,-1.12,104.39,8.12
21.00,2.00,307.56,1.88,16.62,0.50,-0.75,-0.62,104.39,8.12
21.00,0.00,65.50,26.19,-145.62,2.12,0.44,2.19,104.44,8.14
21.00,1.00,242.62,2.50,-67.69,-0.12,-0.38,-0.44,104.44,8.14
21.00,2.00,307.56,1.94,16.56,1.06,-2.19,-0.62,104.44,8.14
21.00,0.00,65.50,26.19,-145.69,1.75,0.62,1.88,104.47,8.16
21.00,1.00,242.62,2.50,-67.69,0.56,-1.00,0.38,104.47,8.16
21.00,2.00,307.56,2.00,16.56,1.12,-2.56,-0.12,104.47,8.16
21.00,0.00,65.56,26.25,-145.69,1.00,1.56,1.69,104.46,8.18
21.00,1.00,242.62,2.50,-67.69,0.81,-1.12,0.19,104.46,8.18
21.00,2.00,307.56,2.06,16.56,1.06,-2.62,0.38,104.46,8.18
21.00,0.00,65.56,26.31,-145.69,1.44,2.19,1.56,104.46,8.20
21.00,1.00,242.62,2.50,-67.69,0.88,-1.31,-0.25,104.46,8.20
21.00,2.00,307.56,2.06,16.50,1.44,-1.88,0.00,104.46,8.20
21.00,0.00,65.56,26.38,-145.75,2.69,1.94,1.81,104.55,8.22
21.00,1.00,242.69,2.50,-67.75,0.81,-1.00,-0.12,104.55,8.22
21.00,2.00,307.56,2.12,16.50,0.94,-1.31,-0.06,104.55,8.22
21.00,0.00,65.56,26.38,-145.81,3.44,1.81,2.12,104.67,8.24
21.00,1.00,242.69,2.50,-67.75,0.44,-0.50,-0.06,104.67,8.24
21.00,2.00,307.56,2.12,16.50,0.94,-1.06,0.00,104.67,8.24
21.00,0.00,65.62,26.44,-145.88,3.06,1.31,2.19,104.80,8.26
21.00,1.00,242.69,2.50,-67.75,0.62,-0.12,0.19,104.80,8.26
21.00,2.00,307.50,2.12,16.50,0.38,-2.38,1.00,104.80,8.26
21.00,0.00,65.62,26.50,-145.94,2.25,0.81,1.94,104.90,8.28
21.00,1.00,242.69,2.50,-67.75,0.12,-0.38,0.81,104.90,8.28
21.00,2.00,307.50,2.19,16.50,0.12,-2.50,1.62,104.90,8.28
21.00,0.00,65.62,26.50,-146.00,2.69,0.38,1.81,104.98,8.30
21.00,1.00,242.62,2.56,-67.75,0.50,0.06,0.69,104.98,8.30
21.00,2.00,307.50,2.19,16.50,1.06,-2.38,0.69,104.98,8.30
21.00,0.00,65.69,26.50,-146.06,2.81,1.12,1.88,105.02,8.32
21.00,1.00,242.62,2.56,-67.75,1.25,-0.44,0.56,105.02,8.32
21.00,2.00,307.44,2.25,16.44,2.06,-2.44,0.56,105.02,8.32
21.00,0.00,65.69,26.56,-146.12,2.94,1.81,2.06,105.06,8.34
21.00,1.00,242.62,2.56,-67.75,1.06,-0.31,0.38,105.06,8.34
21.00,2.00,307.44,2.31,16.38,2.06,-2.38,1.00,105.06,8.34
21.00,0.00,65.69,26.62,-146.25,3.56,2.44,2.19,105.16,8.36
21.00,1.00,242.62,2.56,-67.81,1.19,0.06,0.00,105.16,8.36
21.00,2.00,307.38,2.38,16.38,1.50,-3.00,1.44,105.16,8.36
21.00,0.00,65.69,26.69,-146.31,3.81,2.56,2.12,105.28,8.38
21.00,1.00,242.62,2.56,-67.81,1.00,-0.38,0.31,105.28,8.38
21.00,2.00,307.38,2.38,16.38,1.38,-3.12,0.81,105.28,8.38
21.00,0.00,65.69,26.75,-146.38,4.25,2.12,2.31,105.41,8.40
21.00,1.00,242.62,2.56,-67.81,1.06,-0.44,0.19,105.41,8.40
21.00,2.00,307.38,2.44,16.31,1.44,-2.62,0.81,105.41,8.40
21.00,0.00,65.75,26.81,-146.50,3.88,2.38,3.06,105.50,8.42
21.00,1.00,242.62,2.56,-67.88,1.12,-0.50,0.12,105.50,8.42
21.00,2.00,307.31,2.50,16.25,2.00,-1.75,0.81,105.50,8.42
21.00,0.00,65.75,26.88,-146.56,3.44,1.81,3.19,105.59,8.44
21.00,1.00,242.62,2.56,-67.88,0.69,0.06,0.00,105.59,8.44
21.00,2.00,307.31,2.50,16.25,1.62,-1.44,1.12,105.59,8.44
21.00,0.00,65.81,26.94,-146.62,3.44,0.44,2.56,105.73,8.46
21.00,1.00,242.62,2.56,-67.88,0.31,0.88,0.50,105.73,8.46
21.00,2.00,307.25,2.56,16.25,0.50,-1.00,1.12,105.73,8.46
21.00,0.00,65.81,26.94,-146.75,3.25,-0.81,2.06,105.90,8.48
21.00,1.00,242.62,2.56,-67.88,0.25,1.06,0.50,105.90,8.48
21.00,2.00,307.25,2.56,16.25,-0.19,-0.94,1.44,105.90,8.48
21.00,0.00,65.88,26.94,-146.81,2.81,-1.56,2.06,106.04,8.50
21.00,1.00,242.62,2.56,-67.88,-0.06,1.25,0.44,106.04,8.50
21.00,2.00,307.25,2.56,16.25,-0.06,-1.56,1.12,106.04,8.50
21.00,0.00,65.88,26.94,-146.88,2.12,-2.56,2.31,106.13,8.52
21.00,1.00,242.62,2.56,-67.88,0.38,0.31,0.38,106.13,8.52
21.00,2.00,307.19,2.56,16.25,0.25,-0.75,1.19,106.13,8.52
21.00,0.00,65.94,26.88,-146.94,1.31,-3.81,2.44,106.16,8.54
21.00,1.00,242.56,2.56,-67.88,0.12,0.50,0.62,106.16,8.54
21.00,2.00,307.19,2.56,16.19,0.62,-0.50,1.38,106.16,8.54
21.00,0.00,66.00,26.81,-147.00,1.06,-4.25,1.88,106.16,8.56
21.00,1.00,242.56,2.56,-67.88,0.25,0.75,0.88,106.16,8.56
21.00,2.00,307.12,2.56,16.19,1.12,-0.44,0.94,106.16,8.56
21.00,0.00,66.06,26.81,-147.06,0.75,-2.94,1.62,106.16,8.58
21.00,1.00,242.50,2.56,-67.88,-0.06,1.19,1.50,106.16,8.58
21.00,2.00,307.12,2.56,16.19,0.75,-0.56,1.25,106.16,8.58
21.00,0.00,66.06,26.81,-147.06,0.88,-1.62,1.31,106.20,8.60
21.00,1.00,242.50,2.56,-67.88,-0.38,0.81,1.19,106.20,8.60
21.00,2.00,307.12,2.56,16.19,0.00,-0.62,0.94,106.20,8.60
21.00,0.00,66.12,26.81,-147.12,0.75,-1.12,1.12,106.25,8.62
21.00,1.00,242.44,2.62,-67.88,-0.62,0.50,0.75,106.25,8.62
21.00,2.00,307.06,2.56,16.19,-0.31,-0.44,0.81,106.25,8.62
21.00,0.00,66.12,26.75,-147.19,0.88,-1.19,1.12,106.29,8.64
21.00,1.00,242.44,2.62,-67.88,-0.62,0.12,0.69,106.29,8.64
21.00,2.00,307.06,2.56,16.19,0.19,-1.31,1.00,106.29,8.64
21.00,0.00,66.19,26.75,-147.19,1.31,-1.00,0.94,106.35,8.66
21.00,1.00,242.44,2.62,-67.88,0.25,0.25,0.25,106.35,8.66
21.00,2.00,307.06,2.62,16.19,0.00,-1.00,1.25,106.35,8.66
21.00,0.00,66.19,26.75,-147.25,1.12,-0.50,0.75,106.38,8.68
21.00,1.00,242.44,2.62,-67.88,-0.12,0.62,0.62,106.38,8.68
21.00,2.00,307.00,2.62,16.19,0.50,-1.31,1.75,106.38,8.68
21.00,0.00,66.19,26.75,-147.25,0.81,0.94,0.19,106.44,8.70
21.00,1.00,242.44,2.62,-67.88,-0.25,0.81,1.31,106.44,8.70
21.00,2.00,307.00,2.62,16.19,-0.38,-1.88,2.12,106.44,8.70
21.00,0.00,66.19,26.81,-147.25,0.31,2.00,-0.75,106.46,8.72
21.00,1.00,242.38,2.62,-67.88,0.19,0.56,1.19,106.46,8.72
21.00,2.00,306.94,2.62,16.19,-0.12,-1.75,1.50,106.46,8.72
21.00,0.00,66.12,26.81,-147.25,0.44,3.50,-0.81,106.43,8.74
21.00,1.00,242.38,2.69,-67.88,-0.25,0.12,0.56,106.43,8.74
21.00,2.00,306.88,2.69,16.19,0.94,-1.31,1.06,106.43,8.74
21.00,0.00,66.12,26.88,-147.19,0.31,3.81,-0.88,106.43,8.76
21.00,1.00,242.38,2.69,-67.88,-0.12,0.31,0.12,106.43,8.76
21.00,2.00,306.88,2.69,16.19,0.44,-0.75,2.00,106.43,8.76
21.00,0.00,66.06,26.94,-147.19,0.56,2.81,-0.88,106.47,8.78
21.00,1.00,242.38,2.69,-67.88,-0.50,1.00,0.56,106.47,8.78
21.00,2.00,306.81,2.69,16.19,-0.38,-1.12,2.06,106.47,8.78
21.00,0.00,66.00,26.94,-147.19,0.69,1.62,-1.25,106.54,8.80
21.00,1.00,242.31,2.69,-67.88,-0.69,0.50,0.69,106.54,8.80
21.00,2.00,306.81,2.69,16.19,-0.62,-1.06,2.06,106.54,8.80
21.00,0.00,66.00,26.94,-147.19,1.19,-0.12,-1.31,106.64,8.82
21.00,1.00,242.31,2.69,-67.88,-0.88,0.44,0.19,106.64,8.82
21.00,2.00,306.75,2.69,16.25,-0.88,0.06,1.50,106.64,8.82
21.00,0.00,65.94,26.94,-147.19,1.31,-0.50,-1.31,106.74,8.84
21.00,1.00,242.31,2.69,-67.81,-1.44,0.88,-0.25,106.74,8.84
21.00,2.00,306.69,2.69,16.25,-0.75,0.56,1.25,106.74,8.84
21.00,0.00,65.94,26.88,-147.19,0.94,0.00,-1.88,106.80,8.86
21.00,1.00,242.31,2.69,-67.81,-1.00,0.88,0.06,106.80,8.86
21.00,2.00,306.69,2.69,16.25,-0.44,0.06,1.44,106.80,8.86
21.00,0.00,65.88,26.88,-147.19,0.31,1.00,-2.00,106.85,8.88
21.00,1.00,242.31,2.69,-67.81,-0.88,0.50,0.50,106.85,8.88
21.00,2.00,306.69,2.69,16.25,-0.62,0.00,1.44,106.85,8.88
21.00,0.00,65.81,26.88,-147.19,0.25,1.75,-2.06,106.86,8.90
21.00,1.00,242.31,2.69,-67.75,-0.62,0.44,0.56,106.86,8.90
21.00,2.00,306.62,2.69,16.25,-0.06,-0.06,1.50,106.86,8.90
21.00,0.00,65.81,26.94,-147.12,-0.38,2.56,-1.56,106.85,8.92
21.00,1.00,242.31,2.69,-67.75,-0.12,0.75,0.25,106.85,8.92
21.00,2.00,306.56,2.62,16.25,-0.06,-0.62,1.94,106.85,8.92
21.00,0.00,65.75,26.94,-147.12,-0.19,2.31,-1.31,106.82,8.94
21.00,1.00,242.31,2.62,-67.75,0.00,0.94,-0.06,106.82,8.94
21.00,2.00,306.56,2.62,16.25,0.38,0.06,1.69,106.82,8.94
21.00,0.00,65.75,26.94,-147.06,0.19,-0.25,-1.00,106.80,8.96
21.00,1.00,242.25,2.62,-67.75,-0.38,1.38,0.00,106.80,8.96
21.00,2.00,306.56,2.62,16.25,0.50,0.88,1.56,106.80,8.96
21.00,0.00,65.69,26.94,-147.06,0.25,-0.81,-0.88,106.86,8.98
21.00,1.00,242.25,2.62,-67.75,-0.81,1.19,0.38,106.86,8.98
21.00,2.00,306.50,2.62,16.25,-0.88,-0.06,2.12,106.86,8.98
21.00,0.00,65.69,26.94,-147.06,0.00,-0.38,-1.00,106.90,9.00
21.00,1.00,242.25,2.62,-67.75,-0.56,1.50,0.69,106.90,9.00
21.00,2.00,306.50,2.62,16.31,-0.81,-0.12,2.38,106.90,9.00
21.00,0.00,65.69,26.88,-147.06,-0.31,-0.31,-1.12,106.90,9.02
21.00,1.00,242.19,2.62,-67.75,-0.38,1.38,0.88,106.90,9.02
21.00,2.00,306.38,2.56,16.31,-0.31,-0.25,2.31,106.90,9.02
21.00,0.00,65.69,26.88,-147.06,-0.12,-0.19,-0.88,106.88,9.04
21.00,1.00,242.19,2.62,-67.75,-0.25,1.50,0.94,106.88,9.04
21.00,2.00,306.38,2.56,16.31,0.19,0.06,2.31,106.88,9.04
21.00,0.00,65.62,26.88,-147.06,0.25,-0.38,-0.88,106.88,9.06
21.00,1.00,242.12,2.62,-67.75,-0.38,1.38,0.44,106.88,9.06
21.00,2.00,306.31,2.56,16.31,0.25,0.81,2.31,106.88,9.06
21.00,0.00,65.62,26.88,-147.06,1.38,-2.19,-0.44,106.96,9.08
21.00,1.00,242.12,2.62,-67.75,-0.38,2.00,0.31,106.96,9.08
21.00,2.00,306.25,2.50,16.31,-0.12,1.00,2.12,106.96,9.08
21.00,0.00,65.62,26.81,-147.12,1.50,-4.25,0.06,107.04,9.10
21.00,1.00,242.06,2.62,-67.75,-0.69,1.38,0.75,107.04,9.10
21.00,2.00,306.25,2.50,16.31,-0.25,0.81,2.06,107.04,9.10
21.00,0.00,65.69,26.69,-147.19,1.12,-5.56,0.31,107.15,9.12
21.00,1.00,242.06,2.62,-67.75,-0.75,1.44,0.62,107.15,9.12
21.00,2.00,306.19,2.50,16.31,-1.19,0.94,2.75,107.15,9.12
21.00,0.00,65.69,26.62,-147.25,0.50,-4.31,-0.06,107.21,9.14
21.00,1.00,242.06,2.62,-67.69,-1.00,1.25,0.38,107.21,9.14
21.00,2.00,306.19,2.44,16.38,-0.69,0.44,2.50,107.21,9.14
21.00,0.00,65.69,26.56,-147.25,0.44,-1.44,0.25,107.22,9.16
21.00,1.00,242.00,2.62,-67.69,-0.75,1.44,0.25,107.22,9.16
21.00,2.00,306.06,2.44,16.38,0.25,0.12,2.25,107.22,9.16
21.00,0.00,65.69,26.62,-147.25,-0.25,1.62,0.44,107.17,9.18
21.00,1.00,242.00,2.56,-67.69,-0.12,1.31,-0.19,107.17,9.18
21.00,2.00,306.06,2.44,16.38,0.69,-0.38,2.25,107.17,9.18
21.00,0.00,65.69,26.69,-147.19,-0.56,3.88,0.25,107.13,9.20
21.00,1.00,242.00,2.56,-67.69,-0.94,1.81,0.19,107.13,9.20
21.00,2.00,306.00,2.44,16.38,0.38,-0.50,2.50,107.13,9.20
21.00,0.00,65.69,26.75,-147.19,-1.25,3.75,-0.06,107.09,9.22
21.00,1.00,241.94,2.56,-67.62,-1.06,1.69,0.19,107.09,9.22
21.00,2.00,305.94,2.44,16.38,-0.44,-0.19,2.19,107.09,9.22
21.00,0.00,65.69,26.75,-147.12,-1.00,0.81,-0.31,107.08,9.24
21.00,1.00,241.94,2.56,-67.62,-1.25,2.25,0.81,107.08,9.24
21.00,2.00,305.94,2.44,16.38,-0.81,0.56,1.88,107.08,9.24
21.00,0.00,65.69,26.75,-147.12,-0.62,-1.31,0.31,107.09,9.26
21.00,1.00,241.88,2.56,-67.62,-1.38,1.56,1.12,107.09,9.26
21.00,2.00,305.88,2.38,16.38,-0.81,0.50,2.06,107.09,9.26
21.00,0.00,65.69,26.75,-147.12,-0.81,-1.75,-0.69,107.12,9.28
21.00,1.00,241.88,2.56,-67.56,-1.50,1.12,0.62,107.12,9.28
21.00,2.00,305.81,2.38,16.44,-1.50,0.56,2.44,107.12,9.28
21.00,0.00,65.69,26.69,-147.06,-1.06,-2.88,-0.69,107.14,9.30
21.00,1.00,241.81,2.56,-67.56,-1.69,0.56,0.50,107.14,9.30
21.00,2.00,305.81,2.38,16.44,-1.38,0.88,1.94,107.14,9.30
21.00,0.00,65.69,26.62,-147.06,-1.50,-2.69,-1.06,107.11,9.32
21.00,1.00,241.81,2.56,-67.50,-1.88,0.62,0.06,107.11,9.32
21.00,2.00,305.81,2.31,16.44,-0.94,1.44,1.12,107.11,9.32
21.00,0.00,65.69,26.56,-147.00,-2.00,-2.62,-1.50,107.10,9.34
21.00,1.00,241.81,2.56,-67.44,-1.62,0.25,-0.06,107.10,9.34
21.00,2.00,305.75,2.31,16.44,-1.75,1.75,1.25,107.10,9.34
21.00,0.00,65.69,26.50,-147.00,-2.00,-2.69,-1.00,107.10,9.36
21.00,1.00,241.81,2.56,-67.44,-1.94,0.62,-0.19,107.10,9.36
21.00,2.00,305.75,2.25,16.50,-2.00,1.50,0.50,107.10,9.36
21.00,0.00,65.69,26.50,-146.94,-2.06,-2.44,-0.38,107.06,9.38
21.00,1.00,241.81,2.56,-67.38,-1.69,0.06,-0.75,107.06,9.38
21.00,2.00,305.75,2.19,16.56,-1.38,1.56,-0.31,107.06,9.38
21.00,0.00,65.75,26.44,-146.94,-1.62,-1.44,-0.50,107.05,9.40
21.00,1.00,241.88,2.50,-67.38,-1.44,0.06,-0.94,107.05,9.40
21.00,2.00,305.75,2.19,16.56,-1.31,2.00,-0.62,107.05,9.40
21.00,0.00,65.75,26.44,-146.88,-1.38,-0.94,-0.75,107.05,9.42
21.00,1.00,241.88,2.50,-67.31,-1.31,-0.19,-1.00,107.05,9.42
21.00,2.00,305.81,2.12,16.62,-1.38,2.88,-0.81,107.05,9.42
21.00,0.00,65.75,26.44,-146.88,-1.25,-1.25,-0.75,107.04,9.44
21.00,1.00,241.88,2.50,-67.31,-1.00,-0.44,-0.88,107.04,9.44
21.00,2.00,305.81,2.12,16.62,-1.00,2.44,-0.88,107.04,9.44
21.00,0.00,65.75,26.38,-146.81,-1.44,-1.75,-0.50,107.00,9.46
21.00,1.00,241.94,2.50,-67.31,-0.94,-0.56,-0.81,107.00,9.46
21.00,2.00,305.81,2.06,16.62,-0.69,1.44,-0.69,107.00,9.46
21.00,0.00,65.75,26.38,-146.81,-1.00,-0.94,-0.56,106.98,9.48
21.00,1.00,241.94,2.44,-67.31,-0.62,-0.69,-1.19,106.98,9.48
21.00,2.00,305.88,2.06,16.62,-0.56,1.56,-0.56,106.98,9.48
21.00,0.00,65.75,26.38,-146.81,-0.62,-0.81,-0.38,106.96,9.50
21.00,1.00,242.00,2.44,-67.31,-0.62,-0.81,-1.00,106.96,9.50
21.00,2.00,305.88,2.00,16.62,-0.12,1.50,-0.69,106.96,9.50
21.00,0.00,65.75,26.31,-146.81,-0.06,-2.00,-1.12,106.93,9.52
21.00,1.00,242.00,2.44,-67.31,-0.25,-0.44,-1.00,106.93,9.52
21.00,2.00,305.88,2.00,16.62,0.44,1.50,-0.94,106.93,9.52
21.00,0.00,65.75,26.25,-146.81,0.25,-2.44,-0.94,106.94,9.54
21.00,1.00,242.00,2.44,-67.31,-0.38,-0.69,-1.12,106.94,9.54
21.00,2.00,305.94,2.00,16.62,0.12,1.25,-0.56,106.94,9.54
21.00,0.00,65.75,26.25,-146.81,0.62,-1.19,-0.62,106.99,9.56
21.00,1.00,242.06,2.38,-67.31,-0.06,-0.38,-0.81,106.99,9.56
21.00,2.00,305.94,1.94,16.62,-0.38,1.12,0.12,106.99,9.56
21.00,0.00,65.75,26.25,-146.81,1.25,-0.62,-0.38,107.10,9.58
21.00,1.00,242.06,2.38,-67.31,0.69,-0.38,-0.75,107.10,9.58
21.00,2.00,305.94,1.94,16.62,-1.06,1.31,-0.19,107.10,9.58
21.00,0.00,65.75,26.19,-146.88,2.31,-0.88,-0.56,107.25,9.60
21.00,1.00,242.06,2.38,-67.31,0.38,-0.12,-1.12,107.25,9.60
21.00,2.00,305.94,1.94,16.62,-0.88,1.62,-0.81,107.25,9.60
