Iteration,IMUNo,OrientationX (deg),OrientationY,OrientationZ,GyroX (20rad/sec),GyroY,GyroZ,Elbow_Pos (rad),Time (sec)
23.00,0.00,243.69,0.88,-103.44,-0.25,-1.00,0.12,0.00,1.02
23.00,1.00,246.62,-3.25,-61.12,0.00,-0.44,-0.19,0.00,1.02
23.00,2.00,310.62,-16.38,22.88,-0.19,-0.25,-0.25,0.00,1.02
23.00,0.00,243.69,0.88,-103.44,-0.25,-0.31,0.06,-0.03,1.04
23.00,1.00,246.62,-3.25,-61.12,0.12,-0.56,-0.19,-0.03,1.04
23.00,2.00,310.62,-16.38,22.88,0.38,-0.19,-0.25,-0.03,1.04
23.00,0.00,243.69,0.88,-103.44,0.06,-0.44,0.12,-0.05,1.06
23.00,1.00,246.69,-3.25,-61.12,-0.19,-0.50,-0.19,-0.05,1.06
23.00,2.00,310.62,-16.38,22.88,0.44,0.06,-0.25,-0.05,1.06
23.00,0.00,243.75,0.88,-103.44,0.75,-0.94,0.50,-0.02,1.08
23.00,1.00,246.69,-3.25,-61.12,0.06,-0.56,-0.19,-0.02,1.08
23.00,2.00,310.62,-16.38,22.88,0.19,0.00,-0.19,-0.02,1.08
23.00,0.00,243.75,0.88,-103.44,0.06,0.19,0.31,-0.01,1.08
23.00,1.00,246.69,-3.25,-61.12,0.06,-0.88,0.00,-0.01,1.10
23.00,2.00,310.62,-16.38,22.88,-0.12,-0.44,0.12,-0.01,1.10
23.00,0.00,243.75,0.88,-103.44,-0.19,0.56,0.06,-0.01,1.10
23.00,1.00,246.69,-3.19,-61.12,-0.19,-0.62,0.00,-0.01,1.10
23.00,2.00,310.62,-16.38,22.88,-0.19,-0.19,0.25,-0.01,1.10
23.00,0.00,243.75,0.88,-103.44,-0.44,-0.06,-0.19,-0.05,1.12
23.00,1.00,246.69,-3.19,-61.12,-0.06,-0.56,0.12,-0.05,1.12
23.00,2.00,310.62,-16.38,22.88,0.38,0.00,0.06,-0.05,1.12
23.00,0.00,243.75,0.88,-103.44,0.31,-1.19,0.19,-0.04,1.14
23.00,1.00,246.69,-3.19,-61.12,0.12,-0.31,0.06,-0.04,1.14
23.00,2.00,310.62,-16.38,22.88,0.12,0.00,-0.12,-0.04,1.14
23.00,0.00,243.75,0.88,-103.44,0.00,-0.75,0.44,-0.04,1.16
23.00,1.00,246.69,-3.19,-61.12,-0.12,-0.50,0.38,-0.04,1.16
23.00,2.00,310.62,-16.38,22.88,-0.12,-0.56,0.06,-0.04,1.16
23.00,0.00,243.75,0.88,-103.44,-0.31,0.31,0.06,-0.04,1.18
23.00,1.00,246.69,-3.19,-61.12,-0.25,-0.12,0.31,-0.04,1.18
23.00,2.00,310.62,-16.38,22.88,-0.19,-0.56,0.19,-0.04,1.18
23.00,0.00,243.75,0.88,-103.44,-0.25,-0.25,0.25,-0.07,1.20
23.00,1.00,246.69,-3.19,-61.12,0.06,0.06,0.19,-0.07,1.20
23.00,2.00,310.62,-16.38,22.88,0.38,-0.50,-0.06,-0.07,1.20
23.00,0.00,243.75,0.88,-103.44,-0.12,-0.06,0.38,-0.06,1.22
23.00,1.00,246.69,-3.19,-61.12,0.12,0.19,0.50,-0.06,1.22
23.00,2.00,310.62,-16.38,22.88,-0.38,-0.94,0.38,-0.06,1.22
23.00,0.00,243.75,0.88,-103.44,-0.38,0.31,0.50,-0.06,1.24
23.00,1.00,246.69,-3.19,-61.12,-0.12,-0.88,0.31,-0.06,1.24
23.00,2.00,310.62,-16.38,22.88,-0.31,-0.12,0.31,-0.06,1.24
23.00,0.00,243.75,0.88,-103.44,-0.06,-0.06,0.62,-0.05,1.26
23.00,1.00,246.69,-3.19,-61.12,-0.12,-0.44,-0.19,-0.05,1.26
23.00,2.00,310.62,-16.38,22.88,-0.38,0.00,0.00,-0.05,1.26
23.00,0.00,243.75,0.88,-103.44,-0.12,0.00,0.44,-0.04,1.28
23.00,1.00,246.69,-3.19,-61.12,-0.12,0.31,0.12,-0.04,1.28
23.00,2.00,310.56,-16.38,22.88,-0.25,-0.88,-0.19,-0.04,1.28
23.00,0.00,243.75,0.88,-103.44,-0.75,0.25,0.12,-0.10,1.30
23.00,1.00,246.69,-3.19,-61.12,-0.06,0.12,0.19,-0.10,1.30
23.00,2.00,310.56,-16.31,22.88,0.38,-1.31,-0.06,-0.10,1.30
23.00,0.00,243.75,0.88,-103.44,-1.00,-1.00,0.12,-0.19,1.32
23.00,1.00,246.69,-3.19,-61.12,0.06,-0.12,0.31,-0.19,1.32
23.00,2.00,310.56,-16.31,22.88,0.94,-0.06,-0.25,-0.19,1.32
23.00,0.00,243.81,0.88,-103.44,-0.62,-1.31,0.31,-0.21,1.34
23.00,1.00,246.69,-3.19,-61.12,0.19,-0.06,0.50,-0.21,1.34
23.00,2.00,310.56,-16.31,22.88,-0.12,-0.56,0.25,-0.21,1.34
23.00,0.00,243.81,0.88,-103.44,-0.81,-0.12,0.19,-0.25,1.36
23.00,1.00,246.69,-3.19,-61.12,-0.06,-0.50,0.50,-0.25,1.36
23.00,2.00,310.56,-16.31,22.88,0.06,-0.19,0.25,-0.25,1.36
23.00,0.00,243.81,0.88,-103.44,0.12,0.19,-0.12,-0.26,1.38
23.00,1.00,246.69,-3.19,-61.12,-0.12,-0.81,0.00,-0.26,1.38
23.00,2.00,310.56,-16.31,22.88,0.38,-0.25,-0.31,-0.26,1.38
23.00,0.00,243.81,0.88,-103.44,0.56,-0.69,-0.12,-0.29,1.40
23.00,1.00,246.69,-3.19,-61.12,-0.56,-0.75,-0.44,-0.29,1.40
23.00,2.00,310.56,-16.31,22.88,1.06,-0.38,-0.50,-0.29,1.40
23.00,0.00,243.81,0.88,-103.44,0.12,0.44,0.12,-0.32,1.42
23.00,1.00,246.69,-3.19,-61.12,-0.69,-0.56,-0.44,-0.32,1.42
23.00,2.00,310.62,-16.31,22.81,0.88,-0.38,0.06,-0.32,1.42
23.00,0.00,243.75,0.88,-103.44,-0.31,1.00,0.12,-0.35,1.44
23.00,1.00,246.69,-3.19,-61.12,-0.62,-0.38,-0.25,-0.35,1.44
23.00,2.00,310.56,-16.31,22.81,0.31,-0.25,0.69,-0.35,1.44
23.00,0.00,243.75,0.88,-103.44,-0.06,0.69,0.31,-0.32,1.46
23.00,1.00,246.69,-3.19,-61.12,-0.25,0.00,0.00,-0.32,1.46
23.00,2.00,310.56,-16.31,22.81,-0.69,-0.62,1.56,-0.32,1.46
23.00,0.00,243.75,0.88,-103.44,0.00,0.38,0.62,-0.32,1.48
23.00,1.00,246.69,-3.19,-61.12,-0.06,0.31,0.19,-0.32,1.48
23.00,2.00,310.50,-16.31,22.81,0.00,-0.56,0.75,-0.32,1.48
23.00,0.00,243.75,0.94,-103.44,0.06,0.19,1.00,-0.34,1.50
23.00,1.00,246.69,-3.19,-61.06,-0.62,0.50,0.00,-0.34,1.50
23.00,2.00,310.50,-16.31,22.81,0.44,-0.12,0.56,-0.34,1.50
23.00,0.00,243.69,0.94,-103.44,1.12,0.94,1.62,-0.31,1.52
23.00,1.00,246.69,-3.19,-61.06,-1.00,0.69,-0.06,-0.31,1.52
23.00,2.00,310.50,-16.31,22.81,0.50,-0.50,1.31,-0.31,1.52
23.00,0.00,243.56,1.00,-103.50,1.88,2.19,1.94,-0.26,1.54
23.00,1.00,246.69,-3.19,-61.06,-0.94,0.56,-0.12,-0.26,1.54
23.00,2.00,310.50,-16.31,22.81,0.69,-0.69,1.62,-0.26,1.54
23.00,0.00,243.38,1.12,-103.56,2.81,4.19,2.56,-0.17,1.56
23.00,1.00,246.69,-3.19,-61.06,-1.12,0.81,-0.69,-0.17,1.56
23.00,2.00,310.44,-16.31,22.75,0.94,-1.62,2.94,-0.17,1.56
23.00,0.00,243.19,1.19,-103.69,4.06,4.88,3.50,-0.11,1.58
23.00,1.00,246.69,-3.25,-61.00,-1.25,1.12,-0.94,-0.11,1.58
23.00,2.00,310.38,-16.31,22.69,2.81,-1.00,2.38,-0.11,1.58
23.00,0.00,243.00,1.31,-103.88,6.25,4.75,4.50,0.01,1.60
23.00,1.00,246.69,-3.25,-61.00,-1.25,1.62,-1.25,0.01,1.60
23.00,2.00,310.31,-16.31,22.62,3.75,-0.25,1.75,0.01,1.60
23.00,0.00,242.69,1.50,-104.12,9.56,4.88,6.25,0.18,1.62
23.00,1.00,246.75,-3.31,-60.94,-1.44,1.38,-1.44,0.18,1.62
23.00,2.00,310.31,-16.31,22.50,5.81,-0.94,0.50,0.18,1.62
23.00,0.00,242.25,1.75,-104.44,11.94,7.19,7.25,0.45,1.64
23.00,1.00,246.75,-3.38,-60.94,-2.06,0.94,-2.38,0.45,1.64
23.00,2.00,310.31,-16.31,22.44,6.38,-1.75,0.81,0.45,1.64
23.00,0.00,241.81,2.00,-104.75,14.00,9.94,8.19,0.84,1.66
23.00,1.00,246.81,-3.38,-60.88,-1.94,0.62,-2.44,0.84,1.66
23.00,2.00,310.31,-16.25,22.25,5.56,-4.88,3.81,0.84,1.66
23.00,0.00,241.25,2.25,-105.19,16.94,11.75,9.69,1.51,1.68
23.00,1.00,246.81,-3.44,-60.88,-1.00,0.75,-2.12,1.51,1.68
23.00,2.00,310.25,-16.19,22.12,2.69,-5.62,5.94,1.51,1.68
23.00,0.00,240.62,2.56,-105.56,20.56,16.19,11.44,2.50,1.70
23.00,1.00,246.88,-3.50,-60.88,-0.31,0.25,-0.81,2.50,1.70
23.00,2.00,310.06,-16.12,22.06,-0.44,-7.12,6.75,2.50,1.70
23.00,0.00,239.94,2.88,-106.06,21.81,16.69,11.50,3.51,1.72
23.00,1.00,246.88,-3.50,-60.88,0.00,0.38,-0.50,3.51,1.72
23.00,2.00,309.94,-16.06,22.00,0.25,-7.75,5.81,3.51,1.72
23.00,0.00,239.31,3.19,-106.62,27.31,14.50,12.44,4.71,1.74
23.00,1.00,246.88,-3.50,-60.81,-0.62,0.44,-0.75,4.71,1.74
23.00,2.00,309.81,-16.00,21.94,1.69,-6.75,5.06,4.71,1.74
23.00,0.00,238.69,3.50,-107.25,31.69,11.69,14.44,6.07,1.76
23.00,1.00,246.88,-3.50,-60.81,-0.56,0.88,-0.62,6.07,1.76
23.00,2.00,309.69,-15.94,21.88,2.88,-3.19,4.25,6.07,1.76
23.00,0.00,238.00,3.81,-107.88,32.62,11.62,13.00,7.51,1.78
23.00,1.00,246.88,-3.50,-60.81,-0.56,1.38,-0.69,7.51,1.78
23.00,2.00,309.62,-15.94,21.81,1.94,-3.31,4.25,7.51,1.78
23.00,0.00,237.44,4.12,-108.56,33.44,11.44,11.88,9.11,1.80
23.00,1.00,246.88,-3.56,-60.81,-0.81,1.31,-0.50,9.11,1.80
23.00,2.00,309.50,-15.88,21.75,-0.75,-4.31,6.06,9.11,1.80
23.00,0.00,236.75,4.44,-109.19,35.12,12.62,12.88,10.96,1.82
23.00,1.00,246.81,-3.56,-60.81,-1.31,1.12,-0.25,10.96,1.82
23.00,2.00,309.31,-15.81,21.75,-4.31,-8.44,8.12,10.96,1.82
23.00,0.00,236.06,4.75,-109.88,35.81,14.44,14.62,12.85,1.84
23.00,1.00,246.81,-3.56,-60.81,-1.06,1.19,-0.06,12.85,1.84
23.00,2.00,309.12,-15.75,21.81,-4.25,-8.38,8.62,12.85,1.84
23.00,0.00,235.19,5.19,-110.56,35.75,17.38,16.25,14.66,1.86
23.00,1.00,246.81,-3.56,-60.75,-0.69,1.19,-0.06,14.66,1.86
23.00,2.00,308.88,-15.62,21.81,-2.88,-7.50,9.38,14.66,1.86
23.00,0.00,234.25,5.56,-111.19,34.12,21.75,14.38,16.40,1.88
23.00,1.00,246.81,-3.56,-60.75,-0.38,1.12,0.12,16.40,1.88
23.00,2.00,308.69,-15.56,21.81,-3.00,-9.25,10.44,16.40,1.88
23.00,0.00,232.94,6.00,-111.88,39.00,19.94,18.06,18.42,1.90
23.00,1.00,246.75,-3.62,-60.75,-0.75,1.56,0.50,18.42,1.90
23.00,2.00,308.44,-15.50,21.75,-3.88,-9.88,10.88,18.42,1.90
23.00,0.00,231.88,6.50,-112.69,42.69,15.38,21.00,20.58,1.92
23.00,1.00,246.75,-3.62,-60.75,-1.06,1.06,0.69,20.58,1.92
23.00,2.00,308.19,-15.38,21.81,-3.50,-8.88,9.62,20.58,1.92
23.00,0.00,231.00,6.94,-113.50,42.88,11.31,18.62,22.76,1.94
23.00,1.00,246.75,-3.62,-60.75,-0.75,2.00,0.38,22.76,1.94
23.00,2.00,307.94,-15.31,21.81,-3.38,-10.00,9.69,22.76,1.94
23.00,0.00,230.06,7.31,-114.31,41.69,12.19,16.06,24.83,1.96
23.00,1.00,246.69,-3.62,-60.75,-1.19,2.50,0.25,24.83,1.96
23.00,2.00,307.75,-15.19,21.75,-2.50,-10.56,9.25,24.83,1.96
23.00,0.00,229.19,7.69,-115.12,42.62,12.00,15.00,26.84,1.98
23.00,1.00,246.69,-3.69,-60.69,-0.69,2.06,0.38,26.84,1.98
23.00,2.00,307.50,-15.06,21.75,-0.25,-9.19,8.19,26.84,1.98
23.00,0.00,228.44,8.06,-116.00,44.12,7.38,16.25,28.84,2.00
23.00,1.00,246.62,-3.69,-60.69,0.12,1.94,0.69,28.84,2.00
23.00,2.00,307.38,-14.94,21.62,1.62,-7.88,8.12,28.84,2.00
23.00,0.00,227.75,8.38,-116.88,44.19,4.81,16.19,30.79,2.02
23.00,1.00,246.62,-3.69,-60.75,1.31,2.50,0.75,30.79,2.02
23.00,2.00,307.12,-14.88,21.56,2.69,-7.75,9.12,30.79,2.02
23.00,0.00,227.00,8.69,-117.69,44.00,4.38,16.62,32.90,2.04
23.00,1.00,246.56,-3.69,-60.75,-0.25,2.88,0.62,32.90,2.04
23.00,2.00,306.94,-14.81,21.50,-1.00,-8.00,9.69,32.90,2.04
23.00,0.00,226.31,9.00,-118.56,42.56,4.25,15.00,34.97,2.06
23.00,1.00,246.50,-3.75,-60.75,0.12,2.81,0.31,34.97,2.06
23.00,2.00,306.69,-14.75,21.44,-1.56,-7.00,10.19,34.97,2.06
23.00,0.00,225.75,9.25,-119.38,43.50,2.06,15.44,37.02,2.08
23.00,1.00,246.50,-3.75,-60.75,-0.94,4.19,0.44,37.02,2.08
23.00,2.00,306.50,-14.69,21.38,0.00,-5.69,8.81,37.02,2.08
23.00,0.00,225.06,9.50,-120.19,42.38,1.25,15.44,39.02,2.10
23.00,1.00,246.44,-3.81,-60.69,-0.62,4.62,0.88,39.02,2.10
23.00,2.00,306.31,-14.69,21.38,-0.25,-6.19,9.19,39.02,2.10
23.00,0.00,224.56,9.69,-120.88,40.44,0.62,14.06,40.91,2.12
23.00,1.00,246.31,-3.81,-60.75,-0.44,4.31,1.31,40.91,2.12
23.00,2.00,306.12,-14.62,21.31,0.06,-7.56,9.94,40.91,2.12
23.00,0.00,224.12,9.88,-121.56,38.00,-0.44,13.06,42.74,2.14
23.00,1.00,246.25,-3.81,-60.69,-1.00,4.44,1.88,42.74,2.14
23.00,2.00,305.88,-14.56,21.25,-0.94,-6.19,9.88,42.74,2.14
23.00,0.00,223.62,10.00,-122.12,34.06,-0.88,10.56,44.36,2.16
23.00,1.00,246.19,-3.81,-60.69,-0.94,4.50,2.12,44.36,2.16
23.00,2.00,305.69,-14.50,21.19,-0.44,-5.75,10.00,44.36,2.16
23.00,0.00,223.31,10.12,-122.62,30.00,-1.56,8.88,45.68,2.18
23.00,1.00,246.06,-3.81,-60.69,-0.81,4.88,2.06,45.68,2.18
23.00,2.00,305.44,-14.50,21.12,1.88,-5.62,9.56,45.68,2.18
23.00,0.00,222.88,10.25,-123.19,27.69,-2.00,8.69,46.95,2.20
23.00,1.00,246.00,-3.88,-60.69,-1.81,5.06,1.69,46.95,2.20
23.00,2.00,305.25,-14.44,21.06,0.69,-4.94,9.62,46.95,2.20
23.00,0.00,222.56,10.31,-123.62,23.81,-0.19,7.12,48.01,2.22
23.00,1.00,245.88,-3.88,-60.69,-1.19,5.38,1.31,48.01,2.22
23.00,2.00,305.06,-14.44,21.00,1.19,-3.62,9.25,48.01,2.22
23.00,0.00,222.50,10.38,-123.81,19.25,-0.38,4.94,48.99,2.24
23.00,1.00,245.81,-3.94,-60.62,-2.31,4.69,0.88,48.99,2.24
23.00,2.00,304.88,-14.44,20.94,-1.56,-2.94,9.50,48.99,2.24
23.00,0.00,222.38,10.38,-124.00,16.38,-0.25,3.19,49.89,2.26
23.00,1.00,245.75,-3.94,-60.62,-2.38,4.00,0.25,49.89,2.26
23.00,2.00,304.69,-14.44,20.94,-2.81,-3.62,9.06,49.89,2.26
23.00,0.00,222.31,10.38,-124.31,16.06,-1.69,4.19,50.79,2.28
23.00,1.00,245.69,-4.00,-60.56,-2.75,3.75,0.00,50.79,2.28
23.00,2.00,304.50,-14.44,20.94,-3.00,-2.81,7.44,50.79,2.28
23.00,0.00,222.00,10.44,-124.62,15.19,-3.00,4.25,51.50,2.30
23.00,1.00,245.69,-4.00,-60.50,-3.19,4.31,-0.38,51.50,2.30
23.00,2.00,304.38,-14.50,20.94,0.00,-0.88,5.94,51.50,2.30
23.00,0.00,221.88,10.50,-124.88,13.88,-2.31,3.25,52.14,2.32
23.00,1.00,245.62,-4.06,-60.50,-2.94,4.25,-0.69,52.14,2.32
23.00,2.00,304.25,-14.50,20.94,0.31,-0.31,5.75,52.14,2.32
23.00,0.00,221.81,10.50,-125.06,13.06,-1.56,2.88,52.79,2.34
23.00,1.00,245.56,-4.12,-60.44,-3.06,3.62,-0.56,52.79,2.34
23.00,2.00,304.12,-14.56,20.88,-0.81,-0.81,5.75,52.79,2.34
23.00,0.00,221.62,10.56,-125.38,12.88,0.12,4.62,53.46,2.36
23.00,1.00,245.56,-4.19,-60.38,-3.44,2.81,-1.19,53.46,2.36
23.00,2.00,304.00,-14.56,20.88,-1.44,-1.19,5.56,53.46,2.36
23.00,0.00,221.38,10.62,-125.56,9.88,3.12,3.00,53.98,2.38
23.00,1.00,245.56,-4.25,-60.31,-3.81,2.94,-2.19,53.98,2.38
23.00,2.00,303.94,-14.56,20.88,-1.12,-1.31,5.00,53.98,2.38
23.00,0.00,221.06,10.69,-125.75,9.69,3.19,1.56,54.41,2.40
23.00,1.00,245.56,-4.31,-60.25,-3.50,3.38,-2.44,54.41,2.40
23.00,2.00,303.81,-14.56,20.88,0.38,-1.12,4.44,54.41,2.40
23.00,0.00,220.88,10.75,-125.94,9.75,3.19,2.31,54.90,2.42
23.00,1.00,245.56,-4.38,-60.19,-6.06,3.44,-1.75,54.90,2.42
23.00,2.00,303.75,-14.62,20.88,-0.62,0.06,4.06,54.90,2.42
23.00,0.00,220.69,10.81,-126.12,9.19,1.44,2.88,55.39,2.44
23.00,1.00,245.56,-4.44,-60.12,-4.62,3.75,-1.75,55.39,2.44
23.00,2.00,303.62,-14.62,20.88,-1.19,-0.06,4.62,55.39,2.44
23.00,0.00,220.62,10.88,-126.19,8.50,1.94,2.94,55.86,2.46
23.00,1.00,245.50,-4.50,-60.06,-4.38,4.25,-1.19,55.86,2.46
23.00,2.00,303.56,-14.69,20.88,-1.44,0.19,5.12,55.86,2.46
23.00,0.00,220.44,10.94,-126.38,6.38,1.62,1.31,56.32,2.48
23.00,1.00,245.50,-4.56,-59.94,-6.50,4.50,-0.69,56.32,2.48
23.00,2.00,303.44,-14.75,20.88,-3.44,1.06,5.56,56.32,2.48
23.00,0.00,220.31,10.94,-126.44,3.69,2.88,-1.19,56.69,2.50
23.00,1.00,245.44,-4.56,-59.75,-9.56,3.44,-0.50,56.69,2.50
23.00,2.00,303.31,-14.81,20.94,-4.31,0.69,5.81,56.69,2.50
23.00,0.00,220.12,10.94,-126.50,4.94,-0.31,-1.06,57.07,2.52
23.00,1.00,245.38,-4.62,-59.69,-6.19,5.81,-0.62,57.07,2.52
23.00,2.00,303.19,-14.88,21.00,-3.19,-0.06,6.00,57.07,2.52
23.00,0.00,220.12,10.94,-126.62,5.06,0.94,-0.25,57.44,2.54
23.00,1.00,245.31,-4.69,-59.56,-5.38,4.50,0.12,57.44,2.54
23.00,2.00,303.06,-14.88,21.00,-2.69,-0.19,6.31,57.44,2.54
23.00,0.00,220.06,10.94,-126.69,4.50,0.62,-0.38,57.87,2.56
23.00,1.00,245.25,-4.75,-59.50,-5.56,4.94,1.06,57.87,2.56
23.00,2.00,302.94,-14.94,21.06,-4.69,-0.88,7.31,57.87,2.56
23.00,0.00,220.00,10.94,-126.81,6.75,0.19,1.56,58.48,2.58
23.00,1.00,245.19,-4.75,-59.38,-7.38,5.56,0.88,58.48,2.58
23.00,2.00,302.75,-14.94,21.12,-6.38,-0.62,7.69,58.48,2.58
23.00,0.00,219.88,11.00,-126.94,6.31,1.81,1.38,59.14,2.60
23.00,1.00,245.06,-4.81,-59.25,-6.81,5.88,0.94,59.14,2.60
23.00,2.00,302.56,-15.00,21.25,-7.62,-1.12,6.88,59.14,2.60
23.00,0.00,219.56,11.00,-127.00,4.31,2.94,-2.06,59.61,2.62
23.00,1.00,245.00,-4.81,-59.12,-5.06,4.06,1.25,59.61,2.62
23.00,2.00,302.44,-15.00,21.31,-5.81,-2.06,6.44,59.61,2.62
23.00,0.00,219.50,11.00,-127.12,3.88,1.19,-2.31,60.04,2.64
23.00,1.00,244.94,-4.88,-59.06,-5.31,3.38,1.81,60.04,2.64
23.00,2.00,302.31,-15.00,21.44,-5.19,-2.25,5.50,60.04,2.64
23.00,0.00,219.50,11.00,-127.19,4.06,1.25,-2.31,60.46,2.66
23.00,1.00,244.81,-4.88,-58.94,-5.06,2.94,1.75,60.46,2.66
23.00,2.00,302.19,-15.00,21.50,-4.88,-2.56,4.94,60.46,2.66
23.00,0.00,219.44,11.00,-127.25,5.69,1.88,-1.31,60.90,2.68
23.00,1.00,244.81,-4.88,-58.88,-4.81,2.56,1.00,60.90,2.68
23.00,2.00,302.06,-15.00,21.50,-3.69,-3.00,4.69,60.90,2.68
23.00,0.00,219.31,11.00,-127.38,5.44,2.44,-0.88,61.29,2.70
23.00,1.00,244.75,-4.88,-58.75,-4.88,2.81,0.69,61.29,2.70
23.00,2.00,302.00,-15.00,21.56,-2.81,-2.38,4.06,61.29,2.70
23.00,0.00,218.94,11.06,-127.38,2.69,5.69,-2.56,61.58,2.72
23.00,1.00,244.69,-4.88,-58.69,-5.31,2.44,0.38,61.58,2.72
23.00,2.00,301.88,-14.94,21.62,-3.62,-2.38,4.12,61.58,2.72
23.00,0.00,218.75,11.06,-127.44,3.19,6.81,-2.06,61.91,2.74
23.00,1.00,244.69,-4.94,-58.56,-5.75,2.50,0.00,61.91,2.74
23.00,2.00,301.75,-14.94,21.62,-3.69,-2.00,3.81,61.91,2.74
23.00,0.00,218.50,11.12,-127.44,3.38,6.75,-2.00,62.27,2.76
23.00,1.00,244.62,-4.94,-58.50,-6.06,2.44,0.06,62.27,2.76
23.00,2.00,301.69,-14.94,21.69,-4.44,-1.38,3.81,62.27,2.76
23.00,0.00,218.25,11.19,-127.50,4.62,4.31,1.38,62.78,2.78
23.00,1.00,244.56,-4.94,-58.31,-6.31,2.81,-0.06,62.78,2.78
23.00,2.00,301.56,-14.94,21.81,-6.25,-0.62,4.44,62.78,2.78
23.00,0.00,218.00,11.25,-127.56,3.44,5.00,1.19,63.30,2.80
23.00,1.00,244.56,-5.00,-58.31,-6.56,2.38,-0.06,63.30,2.80
23.00,2.00,301.50,-15.00,21.94,-7.50,-0.94,4.81,63.30,2.80
23.00,0.00,217.75,11.31,-127.62,1.69,5.81,-0.88,63.68,2.82
23.00,1.00,244.50,-5.00,-58.12,-5.88,2.69,-0.12,63.68,2.82
23.00,2.00,301.38,-15.00,22.00,-6.38,-1.69,3.75,63.68,2.82
23.00,0.00,217.56,11.38,-127.62,3.00,4.69,-0.06,64.08,2.84
23.00,1.00,244.50,-5.06,-58.00,-5.31,2.06,0.06,64.08,2.84
23.00,2.00,301.25,-15.00,22.12,-5.62,-1.94,4.19,64.08,2.84
23.00,0.00,217.31,11.44,-127.69,2.69,5.69,1.06,64.49,2.86
23.00,1.00,244.50,-5.06,-57.94,-4.75,1.94,0.12,64.49,2.86
23.00,2.00,301.19,-15.00,22.19,-5.94,-2.94,4.06,64.49,2.86
23.00,0.00,217.00,11.50,-127.62,1.12,7.69,-0.44,64.84,2.88
23.00,1.00,244.44,-5.12,-57.81,-4.94,1.19,0.12,64.84,2.88
23.00,2.00,301.06,-14.94,22.31,-6.44,-2.50,3.62,64.84,2.88
23.00,0.00,216.81,11.56,-127.56,-0.75,7.56,-2.19,65.06,2.90
23.00,1.00,244.44,-5.12,-57.75,-4.75,1.19,0.12,65.06,2.90
23.00,2.00,301.00,-14.94,22.38,-5.50,-1.62,2.81,65.06,2.90
23.00,0.00,216.50,11.56,-127.50,-1.75,5.12,-2.94,65.25,2.92
23.00,1.00,244.44,-5.12,-57.62,-5.00,0.31,-0.31,65.25,2.92
23.00,2.00,300.94,-14.94,22.50,-5.62,-1.38,1.81,65.25,2.92
23.00,0.00,216.44,11.62,-127.50,-0.12,0.94,-0.25,65.51,2.94
23.00,1.00,244.44,-5.12,-57.56,-5.19,-0.31,-0.62,65.51,2.94
23.00,2.00,300.88,-14.94,22.62,-5.69,-1.25,0.94,65.51,2.94
23.00,0.00,216.44,11.62,-127.50,0.12,-0.38,1.81,65.80,2.96
23.00,1.00,244.44,-5.12,-57.50,-5.06,-0.62,-0.62,65.80,2.96
23.00,2.00,300.88,-14.94,22.69,-6.06,-0.38,0.19,65.80,2.96
23.00,0.00,216.44,11.62,-127.50,-0.69,-0.62,1.12,66.09,2.98
23.00,1.00,244.50,-5.19,-57.31,-5.31,-1.12,-1.56,66.09,2.98
23.00,2.00,300.81,-14.94,22.88,-6.88,0.31,-0.06,66.09,2.98
23.00,0.00,216.44,11.62,-127.44,-2.06,1.06,-0.44,66.30,3.00
23.00,1.00,244.50,-5.19,-57.25,-5.06,-1.69,-1.81,66.30,3.00
23.00,2.00,300.81,-14.94,23.06,-6.62,-1.00,-0.69,66.30,3.00
23.00,0.00,216.44,11.62,-127.38,-3.25,1.81,-3.06,66.40,3.02
23.00,1.00,244.62,-5.19,-57.12,-4.25,-2.06,-1.69,66.40,3.02
23.00,2.00,300.81,-14.88,23.19,-5.25,-1.81,-1.12,66.40,3.02
23.00,0.00,216.50,11.56,-127.31,-0.81,0.00,-1.69,66.67,3.04
23.00,1.00,244.62,-5.19,-57.00,-3.62,-2.62,-1.19,66.67,3.04
23.00,2.00,300.81,-14.88,23.38,-6.56,-1.50,-1.12,66.67,3.04
23.00,0.00,216.44,11.62,-127.38,3.19,-0.12,2.38,67.09,3.06
23.00,1.00,244.69,-5.19,-57.00,-3.75,-2.81,-1.38,67.09,3.06
23.00,2.00,300.88,-14.81,23.50,-5.88,-1.81,-1.69,67.09,3.06
23.00,0.00,216.25,11.69,-127.44,3.94,2.81,3.38,67.43,3.08
23.00,1.00,244.81,-5.19,-56.88,-2.50,-3.44,-1.62,67.43,3.08
23.00,2.00,300.88,-14.75,23.69,-3.31,-1.62,-3.19,67.43,3.08
23.00,0.00,216.00,11.75,-127.50,2.00,4.44,2.50,67.63,3.10
23.00,1.00,244.81,-5.19,-56.81,-2.62,-3.50,-1.62,67.63,3.10
23.00,2.00,300.94,-14.75,23.75,-2.12,-1.31,-3.88,67.63,3.10
23.00,0.00,215.75,11.81,-127.50,0.62,3.94,0.31,67.78,3.12
23.00,1.00,244.94,-5.19,-56.75,-2.44,-3.38,-1.25,67.78,3.12
23.00,2.00,301.00,-14.69,23.81,-2.62,-2.44,-3.12,67.78,3.12
23.00,0.00,215.62,11.88,-127.56,3.69,1.50,2.06,68.06,3.14
23.00,1.00,245.00,-5.19,-56.69,-1.50,-3.25,-0.88,68.06,3.14
23.00,2.00,301.06,-14.62,23.88,-2.25,-3.50,-2.56,68.06,3.14
23.00,0.00,215.25,11.94,-127.62,4.50,2.12,4.31,68.35,3.16
23.00,1.00,245.00,-5.19,-56.69,-1.31,-2.50,-0.62,68.35,3.16
23.00,2.00,301.06,-14.50,23.94,-1.69,-3.81,-2.12,68.35,3.16
23.00,0.00,215.06,12.06,-127.69,2.25,2.19,2.75,68.53,3.18
23.00,1.00,245.00,-5.12,-56.62,-0.88,-1.69,0.62,68.53,3.18
23.00,2.00,301.06,-14.44,24.00,-1.62,-3.12,-1.56,68.53,3.18
23.00,0.00,215.00,12.06,-127.75,2.56,0.81,2.69,68.75,3.20
23.00,1.00,245.00,-5.12,-56.62,-1.06,-1.44,0.81,68.75,3.20
23.00,2.00,301.06,-14.38,24.00,-2.12,-3.00,-0.94,68.75,3.20
23.00,0.00,214.81,12.12,-127.81,4.50,0.06,3.94,69.04,3.22
23.00,1.00,245.00,-5.06,-56.62,-0.38,-1.81,0.94,69.04,3.22
23.00,2.00,301.06,-14.31,24.06,-1.69,-2.69,-0.62,69.04,3.22
23.00,0.00,214.69,12.19,-127.94,5.62,-0.75,5.31,69.35,3.24
23.00,1.00,245.00,-5.06,-56.62,-0.38,-1.06,1.06,69.35,3.24
23.00,2.00,301.06,-14.31,24.06,-0.88,-2.00,-0.62,69.35,3.24
23.00,0.00,214.56,12.31,-128.06,2.31,0.62,3.69,69.47,3.26
23.00,1.00,245.00,-5.00,-56.62,-0.38,-0.56,1.31,69.47,3.26
23.00,2.00,301.06,-14.25,24.06,-0.38,-2.56,-0.31,69.47,3.26
23.00,0.00,214.50,12.31,-128.06,-0.38,-0.12,0.81,69.47,3.28
23.00,1.00,244.94,-5.00,-56.62,0.25,0.00,2.50,69.47,3.28
23.00,2.00,301.06,-14.19,24.06,-0.31,-2.81,0.38,69.47,3.28
23.00,0.00,214.56,12.31,-128.06,0.06,-2.06,1.06,69.52,3.30
23.00,1.00,244.88,-4.94,-56.62,0.38,-0.06,2.75,69.52,3.30
23.00,2.00,301.06,-14.12,24.06,-1.06,-2.88,0.88,69.52,3.30
23.00,0.00,214.56,12.31,-128.06,1.69,-2.31,3.19,69.65,3.32
23.00,1.00,244.88,-4.94,-56.62,1.19,0.06,2.75,69.65,3.32
23.00,2.00,301.00,-14.12,24.06,-1.06,-2.69,0.94,69.65,3.32
23.00,0.00,214.50,12.38,-128.12,0.06,1.00,3.69,69.66,3.34
23.00,1.00,244.81,-4.88,-56.62,1.25,-0.56,2.31,69.66,3.34
23.00,2.00,301.00,-14.06,24.06,-0.12,-2.56,0.56,69.66,3.34
23.00,0.00,214.38,12.44,-128.06,-3.38,2.44,0.00,69.48,3.36
23.00,1.00,244.75,-4.81,-56.69,1.00,-0.69,2.12,69.48,3.36
23.00,2.00,301.00,-14.00,24.06,0.50,-1.81,-0.19,69.48,3.36
23.00,0.00,214.38,12.44,-128.00,-2.00,1.50,-0.25,69.37,3.38
23.00,1.00,244.75,-4.81,-56.69,0.88,-0.81,1.62,69.37,3.38
23.00,2.00,301.00,-14.00,24.06,0.25,-2.19,-0.62,69.37,3.38
23.00,0.00,214.31,12.50,-128.00,0.00,1.69,1.38,69.42,3.40
23.00,1.00,244.69,-4.75,-56.69,0.88,-1.06,1.50,69.42,3.40
23.00,2.00,300.94,-13.94,24.06,-0.94,-3.06,0.06,69.42,3.40
23.00,0.00,214.25,12.50,-128.00,0.12,1.50,2.50,69.48,3.42
23.00,1.00,244.69,-4.75,-56.75,0.75,-1.69,1.69,69.48,3.42
23.00,2.00,300.94,-13.88,24.12,-1.25,-2.75,0.00,69.48,3.42
23.00,0.00,214.19,12.56,-127.94,-1.19,1.19,2.38,69.44,3.44
23.00,1.00,244.69,-4.69,-56.75,1.06,-2.12,2.06,69.44,3.44
23.00,2.00,300.94,-13.88,24.12,-0.31,-2.19,-0.94,69.44,3.44
23.00,0.00,214.12,12.62,-127.94,-2.06,1.94,0.75,69.31,3.46
23.00,1.00,244.69,-4.62,-56.75,1.06,-2.25,1.38,69.31,3.46
23.00,2.00,301.00,-13.81,24.12,0.81,-2.06,-1.69,69.31,3.46
23.00,0.00,214.06,12.62,-127.88,-1.31,1.06,-0.06,69.17,3.48
23.00,1.00,244.69,-4.56,-56.81,1.06,-2.81,0.81,69.17,3.48
23.00,2.00,301.00,-13.75,24.06,1.56,-2.06,-1.88,69.17,3.48
23.00,0.00,214.12,12.62,-127.88,-0.50,0.06,0.12,69.12,3.50
23.00,1.00,244.69,-4.56,-56.81,1.12,-2.25,0.88,69.12,3.50
23.00,2.00,301.06,-13.69,24.06,0.56,-1.62,-1.75,69.12,3.50
23.00,0.00,213.94,12.62,-127.88,-0.56,-0.56,0.62,69.11,3.52
23.00,1.00,244.69,-4.50,-56.81,1.06,-2.88,1.44,69.11,3.52
23.00,2.00,301.06,-13.62,24.06,-0.38,-1.62,-1.25,69.11,3.52
23.00,0.00,214.00,12.62,-127.88,0.19,-0.94,1.25,69.11,3.54
23.00,1.00,244.69,-4.44,-56.88,0.81,-2.88,1.25,69.11,3.54
23.00,2.00,301.06,-13.62,24.12,0.31,-1.19,-1.56,69.11,3.54
23.00,0.00,213.81,12.69,-127.88,-0.31,0.12,1.69,69.02,3.56
23.00,1.00,244.75,-4.38,-56.88,1.12,-2.94,0.81,69.02,3.56
23.00,2.00,301.12,-13.56,24.06,1.50,-1.31,-1.69,69.02,3.56
23.00,0.00,213.81,12.69,-127.94,-0.56,0.12,1.31,68.92,3.58
23.00,1.00,244.75,-4.38,-56.88,1.12,-2.38,0.38,68.92,3.58
23.00,2.00,301.12,-13.56,24.06,1.50,-0.81,-1.50,68.92,3.58
23.00,0.00,213.81,12.69,-127.94,-0.31,-1.00,1.00,68.85,3.60
23.00,1.00,244.75,-4.31,-56.94,0.88,-1.69,0.75,68.85,3.60
23.00,2.00,301.19,-13.50,24.00,1.19,-0.94,-1.06,68.85,3.60
23.00,0.00,213.56,12.69,-127.94,-0.12,-1.00,1.50,68.84,3.62
23.00,1.00,244.75,-4.31,-56.94,0.69,-1.31,1.00,68.84,3.62
23.00,2.00,301.19,-13.50,24.00,0.19,-1.62,-0.75,68.84,3.62
23.00,0.00,213.56,12.75,-127.94,0.12,-0.62,1.81,68.86,3.64
23.00,1.00,244.75,-4.25,-56.94,0.56,-1.25,1.25,68.86,3.64
23.00,2.00,301.19,-13.44,24.00,-0.25,-2.00,-0.50,68.86,3.64
23.00,0.00,213.50,12.75,-127.94,0.50,1.00,1.81,68.89,3.66
23.00,1.00,244.75,-4.25,-56.94,0.94,-1.06,1.44,68.89,3.66
23.00,2.00,301.19,-13.44,24.00,-0.19,-1.94,-0.44,68.89,3.66
23.00,0.00,213.44,12.81,-127.94,0.50,1.06,1.88,68.89,3.68
23.00,1.00,244.75,-4.19,-57.00,0.75,-1.06,1.44,68.89,3.68
23.00,2.00,301.19,-13.38,24.00,0.44,-1.81,-0.50,68.89,3.68
23.00,0.00,213.38,12.81,-128.00,0.94,0.94,1.75,68.90,3.70
23.00,1.00,244.69,-4.19,-57.00,0.81,-1.00,1.25,68.90,3.70
23.00,2.00,301.12,-13.38,24.00,0.75,-2.06,-0.31,68.90,3.70
23.00,0.00,213.06,12.88,-128.00,0.94,0.94,1.50,68.89,3.72
23.00,1.00,244.69,-4.12,-57.00,1.25,-1.12,1.00,68.89,3.72
23.00,2.00,301.12,-13.31,23.94,1.12,-2.31,-0.25,68.89,3.72
23.00,0.00,213.00,12.88,-128.00,1.31,0.69,1.50,68.92,3.74
23.00,1.00,244.69,-4.12,-57.06,1.19,-1.50,1.25,68.92,3.74
23.00,2.00,301.12,-13.25,23.94,0.75,-2.38,0.06,68.92,3.74
23.00,0.00,212.88,12.94,-128.06,1.69,0.75,1.62,68.97,3.76
23.00,1.00,244.69,-4.06,-57.06,1.12,-1.75,1.06,68.97,3.76
23.00,2.00,301.12,-13.19,23.94,0.50,-2.69,-0.19,68.97,3.76
23.00,0.00,212.75,12.94,-128.12,2.44,0.88,1.69,69.06,3.78
23.00,1.00,244.69,-4.06,-57.06,0.75,-1.62,1.06,69.06,3.78
23.00,2.00,301.12,-13.19,23.94,0.62,-2.56,-0.44,69.06,3.78
23.00,0.00,212.69,13.00,-128.12,2.31,1.06,1.75,69.12,3.80
23.00,1.00,244.69,-4.00,-57.12,1.38,-1.81,1.06,69.12,3.80
23.00,2.00,301.12,-13.12,23.88,0.94,-2.81,-0.44,69.12,3.80
23.00,0.00,212.56,13.06,-128.19,2.06,0.88,1.62,69.18,3.82
23.00,1.00,244.69,-3.94,-57.12,1.25,-2.00,1.25,69.18,3.82
23.00,2.00,301.12,-13.06,23.88,0.88,-2.75,-0.19,69.18,3.82
23.00,0.00,212.44,13.06,-128.25,1.94,0.94,1.88,69.24,3.84
23.00,1.00,244.69,-3.94,-57.12,1.25,-1.94,1.31,69.24,3.84
23.00,2.00,301.12,-13.00,23.88,0.75,-2.81,-0.62,69.24,3.84
23.00,0.00,212.31,13.12,-128.25,2.31,0.88,1.88,69.27,3.86
23.00,1.00,244.69,-3.88,-57.19,1.38,-1.75,1.19,69.27,3.86
23.00,2.00,301.12,-13.00,23.81,1.62,-2.50,-1.00,69.27,3.86
23.00,0.00,212.25,13.12,-128.31,2.75,-0.19,2.31,69.33,3.88
23.00,1.00,244.69,-3.81,-57.19,1.44,-1.69,1.31,69.33,3.88
23.00,2.00,301.12,-12.94,23.81,1.44,-2.56,-0.88,69.33,3.88
23.00,0.00,212.19,13.19,-128.38,3.06,0.44,2.75,69.43,3.90
23.00,1.00,244.69,-3.81,-57.25,1.38,-2.50,1.38,69.43,3.90
23.00,2.00,301.12,-12.88,23.81,0.88,-2.62,-1.06,69.43,3.90
23.00,0.00,212.06,13.25,-128.44,3.06,1.19,2.81,69.54,3.92
23.00,1.00,244.69,-3.75,-57.25,1.19,-2.62,1.12,69.54,3.92
23.00,2.00,301.12,-12.81,23.75,0.81,-2.81,-1.12,69.54,3.92
23.00,0.00,211.88,13.31,-128.50,2.88,1.50,2.88,69.60,3.94
23.00,1.00,244.69,-3.69,-57.25,1.38,-1.88,1.00,69.60,3.94
23.00,2.00,301.19,-12.75,23.75,1.56,-3.44,-1.38,69.60,3.94
23.00,0.00,211.75,13.38,-128.56,2.00,1.06,3.00,69.60,3.96
23.00,1.00,244.69,-3.69,-57.31,1.94,-1.81,1.25,69.60,3.96
23.00,2.00,301.19,-12.69,23.69,1.88,-3.75,-1.12,69.60,3.96
23.00,0.00,211.62,13.44,-128.62,2.31,1.06,3.12,69.63,3.98
23.00,1.00,244.69,-3.62,-57.38,2.06,-2.25,1.44,69.63,3.98
23.00,2.00,301.19,-12.56,23.69,1.69,-3.62,-0.94,69.63,3.98
23.00,0.00,211.50,13.50,-128.69,2.75,1.81,3.06,69.67,4.00
23.00,1.00,244.69,-3.56,-57.38,2.44,-1.94,1.50,69.67,4.00
23.00,2.00,301.19,-12.50,23.62,2.06,-3.50,-0.56,69.67,4.00
23.00,0.00,211.25,13.56,-128.75,3.19,1.81,3.25,69.70,4.02
23.00,1.00,244.69,-3.56,-57.44,2.38,-1.62,1.31,69.70,4.02
23.00,2.00,301.19,-12.44,23.56,2.56,-3.50,-0.62,69.70,4.02
23.00,0.00,211.00,13.62,-128.81,3.38,2.38,3.69,69.80,4.04
23.00,1.00,244.69,-3.50,-57.50,1.88,-1.50,1.38,69.80,4.04
23.00,2.00,301.19,-12.38,23.56,1.06,-4.06,-0.62,69.80,4.04
23.00,0.00,210.81,13.75,-128.88,3.38,2.81,3.88,69.95,4.06
23.00,1.00,244.62,-3.44,-57.56,1.62,-1.56,1.50,69.95,4.06
23.00,2.00,301.19,-12.31,23.56,0.19,-4.44,-0.50,69.95,4.06
23.00,0.00,210.56,13.81,-128.94,3.19,2.75,3.75,70.07,4.08
23.00,1.00,244.62,-3.44,-57.56,1.88,-1.69,1.44,70.07,4.08
23.00,2.00,301.12,-12.25,23.50,0.75,-4.25,-0.06,70.07,4.08
23.00,0.00,210.38,13.94,-129.00,2.69,1.88,3.81,70.08,4.10
23.00,1.00,244.62,-3.38,-57.62,2.25,-1.62,1.44,70.08,4.10
23.00,2.00,301.12,-12.12,23.50,2.38,-4.56,0.12,70.08,4.10
23.00,0.00,210.25,14.00,-129.06,2.12,1.12,3.50,70.02,4.12
23.00,1.00,244.62,-3.31,-57.69,2.56,-1.19,1.81,70.02,4.12
23.00,2.00,301.12,-12.06,23.38,3.56,-4.19,0.00,70.02,4.12
23.00,0.00,210.12,14.06,-129.12,2.31,1.12,3.44,70.03,4.14
23.00,1.00,244.56,-3.31,-57.75,2.31,-0.69,2.12,70.03,4.14
23.00,2.00,301.12,-12.00,23.38,1.94,-4.31,0.50,70.03,4.14
23.00,0.00,209.88,14.12,-129.19,2.75,1.12,3.19,70.12,4.16
23.00,1.00,244.56,-3.25,-57.75,2.06,-0.69,2.25,70.12,4.16
23.00,2.00,301.12,-11.94,23.31,0.88,-4.75,0.56,70.12,4.16
23.00,0.00,209.75,14.19,-129.25,3.75,1.44,3.44,70.24,4.18
23.00,1.00,244.50,-3.19,-57.81,2.25,-0.81,1.69,70.24,4.18
23.00,2.00,301.06,-11.81,23.31,1.31,-3.56,0.38,70.24,4.18
23.00,0.00,209.62,14.25,-129.31,3.81,1.81,3.19,70.34,4.20
23.00,1.00,244.50,-3.19,-57.88,2.44,-1.44,1.38,70.34,4.20
23.00,2.00,301.06,-11.81,23.25,1.56,-3.25,-0.12,70.34,4.20
23.00,0.00,209.44,14.31,-129.38,2.62,1.94,2.56,70.36,4.22
23.00,1.00,244.50,-3.12,-57.88,2.38,-1.94,1.25,70.36,4.22
23.00,2.00,301.06,-11.75,23.19,2.31,-3.31,-0.19,70.36,4.22
23.00,0.00,209.25,14.38,-129.44,2.38,1.69,2.00,70.34,4.24
23.00,1.00,244.50,-3.12,-57.94,2.38,-1.50,1.69,70.34,4.24
23.00,2.00,301.06,-11.69,23.12,2.81,-3.75,-0.06,70.34,4.24
23.00,0.00,209.12,14.38,-129.50,2.44,1.19,2.38,70.31,4.26
23.00,1.00,244.50,-3.06,-58.00,2.38,-0.94,1.56,70.31,4.26
23.00,2.00,301.06,-11.56,23.06,3.06,-4.00,-0.12,70.31,4.26
23.00,0.00,209.19,14.44,-129.50,2.19,1.81,2.12,70.32,4.28
23.00,1.00,244.44,-3.00,-58.06,1.88,-1.00,1.31,70.32,4.28
23.00,2.00,301.00,-11.50,23.06,1.88,-3.62,0.69,70.32,4.28
23.00,0.00,209.06,14.50,-129.56,2.88,1.81,2.62,70.39,4.30
23.00,1.00,244.44,-3.00,-58.06,1.50,-0.81,1.12,70.39,4.30
23.00,2.00,301.00,-11.50,23.00,1.31,-3.44,0.69,70.39,4.30
23.00,0.00,208.88,14.56,-129.62,2.62,2.88,3.38,70.45,4.32
23.00,1.00,244.44,-3.00,-58.12,1.00,-0.56,1.00,70.45,4.32
23.00,2.00,301.00,-11.38,22.94,1.38,-3.69,0.38,70.45,4.32
23.00,0.00,208.62,14.69,-129.69,2.00,2.94,3.06,70.53,4.34
23.00,1.00,244.38,-2.94,-58.12,0.94,-0.69,1.19,70.53,4.34
23.00,2.00,301.00,-11.31,22.94,0.38,-4.19,0.44,70.53,4.34
23.00,0.00,208.50,14.75,-129.69,2.00,2.19,2.88,70.63,4.36
23.00,1.00,244.38,-2.94,-58.19,0.69,-0.56,0.88,70.63,4.36
23.00,2.00,300.94,-11.25,22.94,-0.12,-3.81,0.62,70.63,4.36
23.00,0.00,208.25,14.81,-129.75,2.69,1.44,2.06,70.72,4.38
23.00,1.00,244.38,-2.88,-58.19,1.12,-0.31,0.69,70.72,4.38
23.00,2.00,300.94,-11.19,22.94,0.81,-3.44,0.25,70.72,4.38
23.00,0.00,208.12,14.88,-129.81,2.56,1.75,2.25,70.79,4.40
23.00,1.00,244.38,-2.88,-58.19,1.06,-0.19,0.56,70.79,4.40
23.00,2.00,300.94,-11.12,22.88,1.00,-3.38,0.75,70.79,4.40
23.00,0.00,208.00,14.94,-129.88,2.50,1.75,2.31,70.86,4.42
23.00,1.00,244.38,-2.88,-58.25,1.06,-0.38,0.50,70.86,4.42
23.00,2.00,300.88,-11.12,22.88,1.06,-2.50,1.06,70.86,4.42
23.00,0.00,207.81,15.00,-129.94,1.88,2.12,2.44,70.88,4.44
23.00,1.00,244.38,-2.88,-58.25,0.88,-0.25,0.62,70.88,4.44
23.00,2.00,300.88,-11.06,22.81,1.38,-2.56,1.06,70.88,4.44
23.00,0.00,207.69,15.06,-129.94,2.12,1.75,2.44,70.95,4.46
23.00,1.00,244.38,-2.88,-58.25,0.62,-0.31,0.69,70.95,4.46
23.00,2.00,300.81,-11.06,22.81,0.62,-2.06,0.69,70.95,4.46
23.00,0.00,207.62,15.06,-130.00,2.12,-0.62,1.50,71.03,4.48
23.00,1.00,244.31,-2.88,-58.25,0.44,-0.25,0.62,71.03,4.48
23.00,2.00,300.81,-11.00,22.81,0.44,-2.12,0.38,71.03,4.48
23.00,0.00,207.56,15.06,-130.06,2.06,-1.00,0.94,71.10,4.50
23.00,1.00,244.31,-2.88,-58.25,0.19,-0.50,0.19,71.10,4.50
23.00,2.00,300.81,-10.94,22.81,0.69,-2.31,0.50,71.10,4.50
23.00,0.00,207.56,15.06,-130.06,1.88,-0.81,1.00,71.14,4.52
23.00,1.00,244.31,-2.88,-58.25,0.56,-0.56,0.25,71.14,4.52
23.00,2.00,300.81,-10.94,22.75,0.94,-1.50,-0.31,71.14,4.52
23.00,0.00,207.50,15.12,-130.12,2.06,-0.25,1.06,71.17,4.54
23.00,1.00,244.38,-2.88,-58.31,0.69,-0.69,-0.06,71.17,4.54
23.00,2.00,300.81,-10.94,22.75,1.50,-0.81,-0.38,71.17,4.54
23.00,0.00,207.50,15.12,-130.19,2.06,0.44,1.31,71.19,4.56
23.00,1.00,244.38,-2.88,-58.31,0.56,-1.25,0.12,71.19,4.56
23.00,2.00,300.81,-10.88,22.69,1.50,-1.75,0.19,71.19,4.56
23.00,0.00,207.31,15.12,-130.19,1.50,1.19,1.31,71.20,4.58
23.00,1.00,244.38,-2.81,-58.31,0.25,-1.06,0.19,71.20,4.58
23.00,2.00,300.75,-10.88,22.69,1.31,-2.12,0.44,71.20,4.58
23.00,0.00,207.19,15.19,-130.25,1.25,1.31,1.19,71.23,4.60
23.00,1.00,244.38,-2.81,-58.31,-0.06,-0.25,0.31,71.23,4.60
23.00,2.00,300.75,-10.81,22.69,0.56,-1.62,0.38,71.23,4.60
23.00,0.00,207.12,15.19,-130.25,1.25,1.31,1.06,71.25,4.62
23.00,1.00,244.38,-2.81,-58.31,0.00,0.75,0.56,71.25,4.62
23.00,2.00,300.75,-10.81,22.62,0.94,-1.44,-0.25,71.25,4.62
23.00,0.00,207.06,15.25,-130.25,1.06,1.38,0.69,71.24,4.64
23.00,1.00,244.38,-2.81,-58.31,0.69,0.38,0.75,71.24,4.64
23.00,2.00,300.75,-10.75,22.62,1.25,-1.69,0.31,71.24,4.64
23.00,0.00,206.94,15.25,-130.25,0.31,1.62,0.81,71.22,4.66
23.00,1.00,244.31,-2.81,-58.31,1.25,0.75,1.31,71.22,4.66
23.00,2.00,300.75,-10.75,22.62,0.69,-2.00,1.44,71.22,4.66
23.00,0.00,206.88,15.31,-130.25,0.06,2.88,0.88,71.19,4.68
23.00,1.00,244.31,-2.81,-58.38,1.25,0.62,1.56,71.19,4.68
23.00,2.00,300.69,-10.69,22.56,0.69,-2.31,2.00,71.19,4.68
23.00,0.00,206.75,15.38,-130.25,0.25,2.81,0.94,71.18,4.70
23.00,1.00,244.25,-2.75,-58.38,0.69,1.00,1.94,71.18,4.70
23.00,2.00,300.62,-10.69,22.56,0.44,-2.38,2.00,71.18,4.70
23.00,0.00,206.62,15.44,-130.25,0.56,2.44,0.94,71.20,4.72
23.00,1.00,244.19,-2.75,-58.38,0.25,0.88,1.69,71.20,4.72
23.00,2.00,300.56,-10.69,22.56,0.19,-2.25,2.25,71.20,4.72
23.00,0.00,206.50,15.44,-130.25,0.69,2.19,0.50,71.23,4.74
23.00,1.00,244.19,-2.75,-58.44,0.00,1.12,1.75,71.23,4.74
23.00,2.00,300.56,-10.62,22.56,0.12,-2.50,2.06,71.23,4.74
23.00,0.00,206.38,15.50,-130.25,0.75,2.31,0.12,71.30,4.76
23.00,1.00,244.12,-2.69,-58.44,-0.25,0.69,1.88,71.30,4.76
23.00,2.00,300.50,-10.62,22.56,-0.75,-2.00,2.25,71.30,4.76
23.00,0.00,206.38,15.50,-130.25,0.94,1.81,-0.12,71.37,4.78
23.00,1.00,244.06,-2.69,-58.44,0.06,0.69,1.94,71.37,4.78
23.00,2.00,300.44,-10.56,22.56,-0.62,-1.94,2.19,71.37,4.78
23.00,0.00,206.25,15.50,-130.31,0.75,1.94,-0.31,71.39,4.80
23.00,1.00,244.06,-2.69,-58.44,0.31,0.44,1.44,71.39,4.80
23.00,2.00,300.38,-10.56,22.56,0.44,-1.81,1.94,71.39,4.80
23.00,0.00,206.12,15.56,-130.31,0.44,2.00,-0.19,71.35,4.82
23.00,1.00,244.00,-2.62,-58.44,0.50,0.56,1.00,71.35,4.82
23.00,2.00,300.38,-10.56,22.50,1.12,-1.38,1.81,71.35,4.82
23.00,0.00,206.06,15.56,-130.25,-0.06,1.62,0.12,71.33,4.84
23.00,1.00,244.00,-2.62,-58.44,0.56,1.69,1.25,71.33,4.84
23.00,2.00,300.31,-10.56,22.50,0.50,-1.25,2.00,71.33,4.84
23.00,0.00,206.00,15.62,-130.25,0.25,1.88,0.19,71.35,4.86
23.00,1.00,243.94,-2.62,-58.44,0.94,1.12,0.88,71.35,4.86
23.00,2.00,300.25,-10.56,22.50,-0.25,-1.44,2.56,71.35,4.86
23.00,0.00,205.94,15.62,-130.25,0.44,2.38,0.44,71.35,4.88
23.00,1.00,243.94,-2.62,-58.50,0.62,1.38,0.81,71.35,4.88
23.00,2.00,300.19,-10.56,22.50,0.38,-1.38,2.38,71.35,4.88
23.00,0.00,205.81,15.62,-130.25,0.81,1.75,0.31,71.37,4.90
23.00,1.00,243.88,-2.62,-58.50,0.06,1.38,0.88,71.37,4.90
23.00,2.00,300.19,-10.56,22.44,0.44,-1.25,2.00,71.37,4.90
23.00,0.00,206.00,15.69,-130.25,0.50,1.06,0.25,71.40,4.92
23.00,1.00,243.88,-2.62,-58.50,-0.56,1.44,0.62,71.40,4.92
23.00,2.00,300.12,-10.50,22.44,0.00,-0.88,1.88,71.40,4.92
23.00,0.00,206.00,15.69,-130.25,0.12,-0.25,0.25,71.43,4.94
23.00,1.00,243.81,-2.62,-58.50,-0.56,0.88,0.19,71.43,4.94
23.00,2.00,300.06,-10.50,22.44,-0.56,-0.75,1.44,71.43,4.94
23.00,0.00,206.00,15.69,-130.25,0.19,-1.31,0.19,71.47,4.96
23.00,1.00,243.81,-2.62,-58.50,-1.19,0.81,-0.38,71.47,4.96
23.00,2.00,300.06,-10.56,22.44,-0.62,-0.19,0.94,71.47,4.96
23.00,0.00,206.06,15.62,-130.25,0.38,-1.25,0.19,71.48,4.98
23.00,1.00,243.81,-2.69,-58.50,-0.69,0.81,-0.88,71.48,4.98
23.00,2.00,300.06,-10.56,22.44,0.12,0.31,0.62,71.48,4.98
23.00,0.00,206.06,15.62,-130.25,-0.25,-0.44,0.00,71.44,5.00
23.00,1.00,243.81,-2.69,-58.50,-1.31,0.94,-0.75,71.44,5.00
23.00,2.00,300.06,-10.56,22.44,0.56,0.31,0.62,71.44,5.00
23.00,0.00,206.19,15.62,-130.25,-1.44,0.31,-0.12,71.42,5.02
23.00,1.00,243.81,-2.69,-58.50,-0.94,0.31,-0.06,71.42,5.02
23.00,2.00,300.00,-10.56,22.44,-1.12,-0.25,1.25,71.42,5.02
23.00,0.00,206.19,15.62,-130.19,-1.81,0.38,-0.19,71.38,5.04
23.00,1.00,243.81,-2.69,-58.44,-1.06,0.44,-0.38,71.38,5.04
23.00,2.00,300.00,-10.56,22.50,-0.88,-0.25,1.19,71.38,5.04
23.00,0.00,206.19,15.62,-130.19,-1.44,-0.06,-0.38,71.32,5.06
23.00,1.00,243.81,-2.69,-58.44,-1.25,0.19,-0.19,71.32,5.06
23.00,2.00,300.00,-10.56,22.50,-0.12,-0.25,0.50,71.32,5.06
23.00,0.00,206.19,15.62,-130.19,-0.81,-1.19,-0.75,71.32,5.08
23.00,1.00,243.81,-2.69,-58.38,-1.62,-0.25,-0.06,71.32,5.08
23.00,2.00,300.00,-10.56,22.50,-0.81,-0.25,0.25,71.32,5.08
23.00,0.00,206.25,15.62,-130.19,-0.69,-1.00,-0.88,71.35,5.10
23.00,1.00,243.81,-2.69,-58.38,-1.81,-0.31,-0.19,71.35,5.10
23.00,2.00,300.00,-10.56,22.50,-1.44,0.06,0.38,71.35,5.10
23.00,0.00,206.25,15.56,-130.12,-0.62,0.19,-0.75,71.39,5.12
23.00,1.00,243.81,-2.69,-58.31,-1.19,-0.19,-0.38,71.39,5.12
23.00,2.00,300.00,-10.56,22.56,-1.44,-0.12,0.94,71.39,5.12
23.00,0.00,206.19,15.62,-130.12,-0.69,1.38,-0.38,71.42,5.14
23.00,1.00,243.81,-2.69,-58.31,-1.12,0.06,-0.56,71.42,5.14
23.00,2.00,299.94,-10.56,22.56,-1.25,-0.44,0.81,71.42,5.14
23.00,0.00,206.12,15.62,-130.12,-0.69,2.19,0.06,71.42,5.16
23.00,1.00,243.81,-2.69,-58.31,-1.00,0.06,-0.31,71.42,5.16
23.00,2.00,299.94,-10.56,22.56,-0.62,-0.44,0.94,71.42,5.16
23.00,0.00,206.06,15.62,-130.06,-1.19,2.38,0.25,71.40,5.18
23.00,1.00,243.81,-2.69,-58.31,-1.38,0.12,-0.19,71.40,5.18
23.00,2.00,299.94,-10.56,22.56,-0.88,-0.50,0.69,71.40,5.18
23.00,0.00,206.06,15.69,-130.06,-1.19,1.50,0.44,71.40,5.20
23.00,1.00,243.81,-2.69,-58.25,-1.19,0.38,0.06,71.40,5.20
23.00,2.00,299.94,-10.56,22.62,-1.06,-0.31,0.12,71.40,5.20
23.00,0.00,205.88,15.69,-130.00,-0.81,0.69,0.56,71.42,5.22
23.00,1.00,243.81,-2.69,-58.25,-1.38,0.50,0.25,71.42,5.22
23.00,2.00,299.88,-10.56,22.62,-1.38,-0.62,0.38,71.42,5.22
23.00,0.00,205.88,15.69,-130.00,-0.12,0.12,0.12,71.49,5.24
23.00,1.00,243.81,-2.69,-58.19,-1.00,-0.12,0.06,71.49,5.24
23.00,2.00,299.88,-10.56,22.62,-1.50,-0.25,0.31,71.49,5.24
23.00,0.00,205.88,15.69,-130.00,0.12,-0.25,0.19,71.59,5.26
23.00,1.00,243.81,-2.69,-58.19,-0.69,0.19,-0.19,71.59,5.26
23.00,2.00,299.88,-10.56,22.69,-2.06,0.44,0.25,71.59,5.26
23.00,0.00,205.88,15.69,-130.00,0.62,0.06,0.50,71.69,5.28
23.00,1.00,243.81,-2.69,-58.19,-1.12,0.56,-0.75,71.69,5.28
23.00,2.00,299.88,-10.56,22.75,-1.44,1.06,0.19,71.69,5.28
23.00,0.00,205.88,15.69,-130.00,-0.06,0.69,0.38,71.68,5.30
23.00,1.00,243.88,-2.75,-58.19,-0.38,0.06,-0.94,71.68,5.30
23.00,2.00,299.88,-10.62,22.75,0.06,0.50,0.25,71.68,5.30
23.00,0.00,205.81,15.69,-130.00,-1.12,1.56,0.38,71.58,5.32
23.00,1.00,243.88,-2.75,-58.19,0.06,0.25,-0.31,71.58,5.32
23.00,2.00,299.88,-10.62,22.69,1.06,-0.56,0.25,71.58,5.32
23.00,0.00,205.81,15.75,-129.94,-1.88,1.19,0.69,71.49,5.34
23.00,1.00,243.88,-2.75,-58.19,-0.38,0.81,0.12,71.49,5.34
23.00,2.00,299.88,-10.62,22.69,-0.12,-0.62,1.00,71.49,5.34
23.00,0.00,205.81,15.75,-129.94,-1.31,-1.06,0.25,71.52,5.36
23.00,1.00,243.88,-2.75,-58.19,-0.56,0.94,0.44,71.52,5.36
23.00,2.00,299.88,-10.62,22.75,-1.81,-0.44,1.31,71.52,5.36
23.00,0.00,205.88,15.69,-129.94,0.06,-2.38,1.44,71.60,5.38
23.00,1.00,243.81,-2.75,-58.12,-0.75,1.25,0.25,71.60,5.38
23.00,2.00,299.81,-10.62,22.75,-1.69,0.19,1.31,71.60,5.38
23.00,0.00,205.88,15.69,-129.94,0.31,-0.88,1.12,71.66,5.40
23.00,1.00,243.81,-2.75,-58.12,-0.69,1.12,-0.19,71.66,5.40
23.00,2.00,299.81,-10.62,22.81,-0.94,0.75,0.56,71.66,5.40
23.00,0.00,205.88,15.75,-129.94,-0.31,-1.06,1.38,71.66,5.42
23.00,1.00,243.81,-2.81,-58.12,-0.50,1.12,-0.12,71.66,5.42
23.00,2.00,299.81,-10.62,22.81,-0.38,0.88,0.06,71.66,5.42
23.00,0.00,205.94,15.75,-130.00,-0.56,-1.69,1.25,71.67,5.44
23.00,1.00,243.81,-2.81,-58.12,-0.56,0.75,0.00,71.67,5.44
23.00,2.00,299.81,-10.62,22.81,-0.62,0.69,0.56,71.67,5.44
23.00,0.00,206.00,15.75,-130.00,-1.06,-1.38,1.19,71.64,5.46
23.00,1.00,243.81,-2.81,-58.12,-0.69,1.00,0.19,71.64,5.46
23.00,2.00,299.81,-10.69,22.81,-0.62,-0.38,0.75,71.64,5.46
23.00,0.00,206.00,15.75,-129.94,-1.75,-0.31,0.88,71.61,5.48
23.00,1.00,243.81,-2.81,-58.12,-0.75,0.50,0.31,71.61,5.48
23.00,2.00,299.81,-10.69,22.81,-0.94,-0.31,0.56,71.61,5.48
23.00,0.00,206.06,15.75,-129.94,-1.69,-0.12,1.19,71.57,5.50
23.00,1.00,243.81,-2.81,-58.12,-0.31,0.19,0.31,71.57,5.50
23.00,2.00,299.81,-10.69,22.81,-1.00,0.31,0.44,71.57,5.50
23.00,0.00,206.00,15.75,-129.88,-1.19,0.31,1.31,71.57,5.52
23.00,1.00,243.81,-2.81,-58.12,-0.31,0.75,0.25,71.57,5.52
23.00,2.00,299.81,-10.69,22.88,-1.12,0.81,0.00,71.57,5.52
23.00,0.00,205.94,15.81,-129.88,-1.19,0.88,1.00,71.53,5.54
23.00,1.00,243.81,-2.81,-58.12,-0.19,0.12,0.25,71.53,5.54
23.00,2.00,299.81,-10.69,22.88,-0.31,0.31,-0.38,71.53,5.54
23.00,0.00,205.94,15.81,-129.88,-0.88,1.44,0.56,71.48,5.56
23.00,1.00,243.81,-2.81,-58.12,0.12,0.00,0.19,71.48,5.56
23.00,2.00,299.81,-10.69,22.88,0.12,0.38,-0.38,71.48,5.56
23.00,0.00,205.88,15.81,-129.81,-0.38,2.00,0.50,71.51,5.58
23.00,1.00,243.81,-2.81,-58.12,-0.31,-0.38,0.31,71.51,5.58
23.00,2.00,299.81,-10.69,22.88,-0.88,0.00,-0.19,71.51,5.58
23.00,0.00,205.75,15.88,-129.81,0.31,1.38,0.75,71.57,5.60
23.00,1.00,243.81,-2.81,-58.12,-0.19,-0.56,0.12,71.57,5.60
23.00,2.00,299.81,-10.69,22.88,-1.12,0.25,0.00,71.57,5.60
23.00,0.00,205.75,15.88,-129.81,0.50,0.75,0.44,71.58,5.62
23.00,1.00,243.81,-2.81,-58.12,-0.06,-0.69,-0.38,71.58,5.62
23.00,2.00,299.81,-10.69,22.88,0.44,0.00,-0.44,71.58,5.62
23.00,0.00,205.75,15.88,-129.81,0.62,0.25,0.12,71.57,5.64
23.00,1.00,243.81,-2.81,-58.12,0.12,-0.19,-0.25,71.57,5.64
23.00,2.00,299.81,-10.69,22.88,0.88,0.00,-0.56,71.57,5.64
23.00,0.00,205.69,15.88,-129.88,1.25,0.25,0.06,71.61,5.66
23.00,1.00,243.81,-2.81,-58.12,0.56,-0.25,0.00,71.61,5.66
23.00,2.00,299.81,-10.69,22.88,0.25,-0.19,0.25,71.61,5.66
23.00,0.00,205.69,15.88,-129.88,1.88,-0.50,0.44,71.72,5.68
23.00,1.00,243.81,-2.81,-58.12,0.69,-0.56,0.38,71.72,5.68
23.00,2.00,299.81,-10.69,22.88,-0.50,0.00,0.31,71.72,5.68
23.00,0.00,205.69,15.88,-129.94,2.81,-0.06,0.00,71.84,5.70
23.00,1.00,243.81,-2.81,-58.12,1.00,-0.69,-0.06,71.84,5.70
23.00,2.00,299.81,-10.69,22.94,0.25,-0.06,0.06,71.84,5.70
23.00,0.00,205.62,15.88,-130.00,3.12,0.69,-0.75,71.92,5.72
23.00,1.00,243.81,-2.81,-58.19,1.50,-1.06,-0.06,71.92,5.72
23.00,2.00,299.81,-10.69,22.94,1.44,-0.50,-0.62,71.92,5.72
23.00,0.00,205.62,15.88,-130.06,3.25,0.38,-1.19,72.00,5.74
23.00,1.00,243.81,-2.75,-58.19,1.88,-1.25,-0.12,72.00,5.74
23.00,2.00,299.81,-10.69,22.94,1.62,-0.12,-0.88,72.00,5.74
23.00,0.00,205.56,15.81,-130.06,3.62,0.38,-1.00,72.12,5.76
23.00,1.00,243.88,-2.75,-58.25,2.31,-1.69,-0.12,72.12,5.76
23.00,2.00,299.81,-10.69,22.94,1.00,-0.06,-0.62,72.12,5.76
