Iteration,IMUNo,OrientationX (deg),OrientationY,OrientationZ,GyroX (20rad/sec),GyroY,GyroZ,Elbow_Pos (rad),Time (sec)
26.00,0.00,240.06,3.50,-100.25,-0.75,0.12,-0.38,-0.04,1.02
26.00,1.00,250.06,-2.62,-62.50,-0.25,-0.12,-0.50,-0.04,1.02
26.00,2.00,307.19,-14.62,21.56,0.06,0.06,0.25,-0.04,1.02
26.00,0.00,240.06,3.50,-100.25,-0.62,-0.12,-0.62,-0.05,1.04
26.00,1.00,250.06,-2.62,-62.50,-0.12,0.06,-0.19,-0.05,1.04
26.00,2.00,307.19,-14.69,21.56,-0.31,0.12,0.62,-0.05,1.04
26.00,0.00,240.12,3.44,-100.25,0.69,-1.38,0.19,-0.02,1.06
26.00,1.00,250.06,-2.62,-62.50,0.12,0.00,-0.19,-0.02,1.06
26.00,2.00,307.19,-14.69,21.56,0.00,0.00,-0.12,-0.02,1.06
26.00,0.00,240.12,3.44,-100.25,0.12,-0.56,0.25,-0.03,1.08
26.00,1.00,250.06,-2.62,-62.50,-0.12,-0.38,-0.06,-0.03,1.08
26.00,2.00,307.19,-14.69,21.56,0.38,0.00,-0.31,-0.03,1.08
26.00,0.00,240.12,3.44,-100.25,-0.56,1.12,-0.62,-0.07,1.10
26.00,1.00,250.06,-2.62,-62.50,-0.38,-0.31,0.06,-0.07,1.10
26.00,2.00,307.19,-14.69,21.56,0.19,0.00,0.25,-0.07,1.10
26.00,0.00,240.12,3.44,-100.25,0.00,0.19,-0.62,-0.08,1.12
26.00,1.00,250.06,-2.62,-62.50,0.00,-0.25,-0.25,-0.08,1.12
26.00,2.00,307.19,-14.69,21.56,0.25,0.19,0.56,-0.08,1.12
26.00,0.00,240.12,3.44,-100.25,0.38,-0.88,0.12,-0.06,1.14
26.00,1.00,250.06,-2.62,-62.50,0.38,-0.06,-0.25,-0.06,1.14
26.00,2.00,307.19,-14.69,21.56,-0.06,0.12,0.44,-0.06,1.14
26.00,0.00,240.12,3.44,-100.25,-0.50,-0.06,0.06,-0.07,1.16
26.00,1.00,250.06,-2.62,-62.50,0.00,0.00,0.12,-0.07,1.16
26.00,2.00,307.19,-14.69,21.56,-0.31,0.19,0.19,-0.07,1.16
26.00,0.00,240.12,3.44,-100.25,-0.31,0.19,-0.31,-0.08,1.18
26.00,1.00,250.06,-2.62,-62.50,-0.44,-0.12,0.06,-0.08,1.18
26.00,2.00,307.19,-14.69,21.56,0.00,-0.19,0.00,-0.08,1.18
26.00,0.00,240.12,3.44,-100.25,0.81,-1.38,0.00,-0.08,1.20
26.00,1.00,250.06,-2.62,-62.50,0.19,-0.19,0.19,-0.08,1.20
26.00,2.00,307.19,-14.69,21.56,0.75,-0.25,-0.44,-0.08,1.20
26.00,0.00,240.19,3.44,-100.25,0.06,-0.31,0.06,-0.10,1.22
26.00,1.00,250.06,-2.62,-62.50,0.69,0.19,-0.19,-0.10,1.22
26.00,2.00,307.19,-14.69,21.56,0.56,-0.12,-0.38,-0.10,1.22
26.00,0.00,240.12,3.44,-100.25,-0.94,1.44,-0.12,-0.13,1.24
26.00,1.00,250.06,-2.62,-62.50,-0.56,-0.06,0.06,-0.13,1.24
26.00,2.00,307.19,-14.69,21.56,-0.31,-0.44,0.62,-0.13,1.24
26.00,0.00,240.12,3.44,-100.25,-0.38,1.00,0.12,-0.11,1.26
26.00,1.00,250.06,-2.62,-62.50,-0.06,-0.50,0.12,-0.11,1.26
26.00,2.00,307.19,-14.69,21.56,-0.88,-0.31,0.94,-0.11,1.26
26.00,0.00,240.06,3.44,-100.25,0.81,-0.25,1.00,-0.04,1.28
26.00,1.00,250.06,-2.62,-62.50,0.62,-0.69,-0.31,-0.04,1.28
26.00,2.00,307.19,-14.69,21.56,-0.62,0.31,-0.06,-0.04,1.28
26.00,0.00,240.06,3.50,-100.25,0.06,0.25,0.44,-0.04,1.30
26.00,1.00,250.06,-2.62,-62.50,-0.25,-0.31,-0.50,-0.04,1.30
26.00,2.00,307.19,-14.69,21.56,-0.06,0.44,-0.69,-0.04,1.30
26.00,0.00,240.06,3.50,-100.19,-0.88,1.25,-0.19,-0.10,1.32
26.00,1.00,250.06,-2.62,-62.50,-0.62,0.25,0.00,-0.10,1.32
26.00,2.00,307.19,-14.69,21.56,0.50,-0.81,-0.38,-0.10,1.32
26.00,0.00,240.06,3.50,-100.19,-0.50,-1.44,-0.56,-0.14,1.34
26.00,1.00,250.06,-2.62,-62.50,-0.31,-0.12,0.38,-0.14,1.34
26.00,2.00,307.19,-14.69,21.56,0.38,-0.06,0.06,-0.14,1.34
26.00,0.00,240.12,3.44,-100.19,-0.50,-0.75,-0.50,-0.14,1.36
26.00,1.00,250.06,-2.62,-62.50,0.56,0.38,0.38,-0.14,1.36
26.00,2.00,307.19,-14.69,21.56,-0.50,-0.06,0.38,-0.14,1.36
26.00,0.00,240.12,3.44,-100.19,-0.06,0.44,-0.75,-0.13,1.38
26.00,1.00,250.06,-2.62,-62.50,0.06,-0.31,0.25,-0.13,1.38
26.00,2.00,307.19,-14.69,21.56,-0.25,0.12,0.06,-0.13,1.38
26.00,0.00,240.12,3.44,-100.25,1.06,-0.25,-0.31,-0.11,1.40
26.00,1.00,250.06,-2.62,-62.50,-0.31,-0.62,0.00,-0.11,1.40
26.00,2.00,307.19,-14.69,21.56,0.56,-0.06,-0.06,-0.11,1.40
26.00,0.00,240.12,3.44,-100.25,0.75,0.19,0.69,-0.11,1.42
26.00,1.00,250.06,-2.62,-62.50,0.00,-0.50,-0.50,-0.11,1.42
26.00,2.00,307.19,-14.69,21.56,0.88,-0.25,-0.44,-0.11,1.42
26.00,0.00,240.06,3.50,-100.25,-0.81,1.94,0.50,-0.16,1.44
26.00,1.00,250.06,-2.62,-62.50,-0.06,-0.06,-0.31,-0.16,1.44
26.00,2.00,307.19,-14.69,21.56,0.12,-0.50,0.12,-0.16,1.44
26.00,0.00,240.06,3.50,-100.25,-0.44,1.50,0.06,-0.14,1.46
26.00,1.00,250.06,-2.62,-62.50,-0.38,-0.31,0.00,-0.14,1.46
26.00,2.00,307.12,-14.69,21.56,-0.94,-0.56,1.25,-0.14,1.46
26.00,0.00,240.06,3.50,-100.25,0.44,-0.44,0.25,-0.10,1.48
26.00,1.00,250.06,-2.62,-62.50,-0.19,0.06,0.19,-0.10,1.48
26.00,2.00,307.12,-14.69,21.56,-0.31,-0.44,0.56,-0.10,1.48
26.00,0.00,240.06,3.50,-100.25,0.00,-0.62,0.31,-0.10,1.50
26.00,1.00,250.06,-2.62,-62.50,0.12,-0.06,0.50,-0.10,1.50
26.00,2.00,307.12,-14.69,21.56,0.06,-0.31,-0.38,-0.10,1.50
26.00,0.00,240.06,3.50,-100.19,-1.06,0.56,-0.19,-0.14,1.52
26.00,1.00,250.06,-2.62,-62.50,-0.50,-0.06,0.31,-0.14,1.52
26.00,2.00,307.12,-14.69,21.56,-0.31,-0.19,0.06,-0.14,1.52
26.00,0.00,240.06,3.50,-100.19,-0.62,0.31,-0.25,-0.14,1.54
26.00,1.00,250.06,-2.62,-62.44,-0.44,-0.06,0.19,-0.14,1.54
26.00,2.00,307.12,-14.69,21.56,-0.56,-0.19,0.56,-0.14,1.54
26.00,0.00,240.06,3.50,-100.19,0.06,-1.25,0.25,-0.13,1.56
26.00,1.00,250.06,-2.62,-62.44,-0.25,-0.25,0.12,-0.13,1.56
26.00,2.00,307.12,-14.69,21.56,-0.19,-0.25,0.19,-0.13,1.56
26.00,0.00,240.06,3.50,-100.19,-0.44,0.12,0.19,-0.14,1.58
26.00,1.00,250.06,-2.62,-62.44,-0.19,-0.50,-0.06,-0.14,1.58
26.00,2.00,307.12,-14.69,21.56,-0.12,0.00,-0.25,-0.14,1.58
26.00,0.00,240.06,3.50,-100.19,-0.81,1.19,-0.25,-0.19,1.60
26.00,1.00,250.06,-2.62,-62.44,-0.88,-0.81,-0.25,-0.19,1.60
26.00,2.00,307.12,-14.69,21.56,0.12,-0.19,-0.38,-0.19,1.60
26.00,0.00,240.06,3.50,-100.19,0.44,0.19,-0.12,-0.18,1.62
26.00,1.00,250.12,-2.62,-62.44,-0.44,-0.31,-0.38,-0.18,1.62
26.00,2.00,307.12,-14.69,21.56,0.19,0.06,-0.25,-0.18,1.62
26.00,0.00,240.06,3.50,-100.19,0.88,-0.75,0.75,-0.15,1.64
26.00,1.00,250.12,-2.62,-62.44,-0.50,-0.62,-0.44,-0.15,1.64
26.00,2.00,307.12,-14.69,21.56,0.31,0.19,-0.44,-0.15,1.64
26.00,0.00,240.06,3.50,-100.19,-0.50,1.12,0.56,-0.17,1.66
26.00,1.00,250.12,-2.62,-62.44,-0.69,-0.12,-0.44,-0.17,1.66
26.00,2.00,307.12,-14.69,21.56,-0.06,-0.31,-0.19,-0.17,1.66
26.00,0.00,240.00,3.50,-100.19,-0.19,1.56,0.12,-0.13,1.68
26.00,1.00,250.12,-2.62,-62.44,-1.38,-0.25,-0.44,-0.13,1.68
26.00,2.00,307.12,-14.62,21.62,-1.06,-0.88,0.88,-0.13,1.68
26.00,0.00,239.94,3.50,-100.25,2.25,0.50,1.38,-0.01,1.70
26.00,1.00,250.12,-2.62,-62.38,-1.06,-0.25,-0.50,-0.01,1.70
26.00,2.00,307.12,-14.62,21.62,-0.19,-0.25,0.75,-0.01,1.70
26.00,0.00,239.88,3.62,-100.31,2.69,2.12,2.69,0.09,1.72
26.00,1.00,250.12,-2.62,-62.38,-0.81,0.19,-0.81,0.09,1.72
26.00,2.00,307.06,-14.62,21.62,0.56,0.06,0.81,0.09,1.72
26.00,0.00,239.75,3.62,-100.38,3.12,4.62,3.25,0.19,1.74
26.00,1.00,250.12,-2.69,-62.38,-1.38,-0.06,-1.12,0.19,1.74
26.00,2.00,307.06,-14.62,21.56,0.81,-0.88,1.31,0.19,1.74
26.00,0.00,239.56,3.75,-100.44,4.88,4.19,4.25,0.40,1.76
26.00,1.00,250.19,-2.69,-62.31,-2.12,-0.06,-1.12,0.40,1.76
26.00,2.00,307.00,-14.62,21.56,0.44,-1.44,2.25,0.40,1.76
26.00,0.00,239.38,3.88,-100.56,6.50,4.62,5.81,0.72,1.78
26.00,1.00,250.19,-2.69,-62.25,-1.31,0.44,-1.12,0.72,1.78
26.00,2.00,307.00,-14.62,21.56,-0.31,-1.62,2.62,0.72,1.78
26.00,0.00,239.06,4.00,-100.75,7.12,7.56,5.88,1.13,1.80
26.00,1.00,250.19,-2.75,-62.25,-1.00,0.62,-0.94,1.13,1.80
26.00,2.00,306.94,-14.62,21.56,-1.44,-1.12,2.50,1.13,1.80
26.00,0.00,238.69,4.19,-100.94,9.38,9.69,6.31,1.63,1.82
26.00,1.00,250.19,-2.75,-62.25,-1.81,0.25,-1.00,1.63,1.82
26.00,2.00,306.88,-14.62,21.56,-1.31,-0.62,2.69,1.63,1.82
26.00,0.00,238.25,4.38,-101.12,11.31,11.44,6.62,2.20,1.84
26.00,1.00,250.25,-2.75,-62.19,-1.19,0.06,-1.12,2.20,1.84
26.00,2.00,306.81,-14.62,21.56,-0.75,-0.50,3.50,2.20,1.84
26.00,0.00,237.81,4.56,-101.38,13.38,13.56,7.31,2.85,1.86
26.00,1.00,250.25,-2.75,-62.19,-0.31,0.69,-1.12,2.85,1.86
26.00,2.00,306.69,-14.69,21.56,-0.62,-1.62,4.56,2.85,1.86
26.00,0.00,237.31,4.81,-101.69,16.56,13.31,8.50,3.69,1.88
26.00,1.00,250.25,-2.81,-62.19,-0.81,0.38,-0.56,3.69,1.88
26.00,2.00,306.62,-14.69,21.56,-1.12,-1.12,4.94,3.69,1.88
26.00,0.00,236.81,5.00,-102.00,17.62,13.12,8.81,4.54,1.90
26.00,1.00,250.25,-2.81,-62.19,0.25,0.38,-0.19,4.54,1.90
26.00,2.00,306.50,-14.69,21.50,-0.44,-2.12,4.25,4.54,1.90
26.00,0.00,236.31,5.19,-102.38,18.50,11.88,7.56,5.42,1.92
26.00,1.00,250.25,-2.81,-62.19,-0.25,0.56,-0.25,5.42,1.92
26.00,2.00,306.44,-14.62,21.50,-0.25,-2.31,3.62,5.42,1.92
26.00,0.00,235.88,5.38,-102.75,19.56,11.50,7.75,6.30,1.94
26.00,1.00,250.25,-2.81,-62.19,-0.56,1.00,-0.12,6.30,1.94
26.00,2.00,306.31,-14.62,21.50,0.88,-1.50,3.75,6.30,1.94
26.00,0.00,235.38,5.62,-103.19,21.69,12.25,9.12,7.26,1.96
26.00,1.00,250.25,-2.81,-62.19,-1.06,1.06,-0.31,7.26,1.96
26.00,2.00,306.25,-14.62,21.44,1.31,-2.44,5.44,7.26,1.96
26.00,0.00,234.81,5.81,-103.56,21.81,13.12,9.94,8.28,1.98
26.00,1.00,250.25,-2.81,-62.19,0.06,1.06,-0.69,8.28,1.98
26.00,2.00,306.12,-14.62,21.38,0.06,-3.62,7.12,8.28,1.98
26.00,0.00,234.19,6.12,-104.00,25.62,14.94,14.06,9.56,2.00
26.00,1.00,250.25,-2.88,-62.19,-0.50,2.00,-1.12,9.56,2.00
26.00,2.00,305.94,-14.62,21.38,-1.56,-4.19,8.25,9.56,2.00
26.00,0.00,233.38,6.50,-104.50,28.50,15.62,17.50,10.99,2.02
26.00,1.00,250.19,-2.88,-62.12,-0.69,3.44,-1.06,10.99,2.02
26.00,2.00,305.75,-14.62,21.31,-1.88,-3.50,8.38,10.99,2.02
26.00,0.00,232.56,6.94,-105.06,29.31,16.25,18.44,12.37,2.04
26.00,1.00,250.19,-2.94,-62.12,-0.94,3.56,-1.31,12.37,2.04
26.00,2.00,305.56,-14.56,21.31,-0.12,-5.38,8.62,12.37,2.04
26.00,0.00,231.62,7.38,-105.69,31.88,15.50,19.50,13.79,2.06
26.00,1.00,250.19,-3.00,-62.12,-1.06,3.56,-1.56,13.79,2.06
26.00,2.00,305.38,-14.56,21.25,1.75,-4.44,8.69,13.79,2.06
26.00,0.00,230.75,7.81,-106.31,33.44,14.44,20.38,15.31,2.08
26.00,1.00,250.19,-3.06,-62.12,-0.19,4.00,-1.00,15.31,2.08
26.00,2.00,305.19,-14.56,21.12,1.12,-3.00,9.06,15.31,2.08
26.00,0.00,229.88,8.25,-106.94,34.69,13.38,20.06,17.03,2.10
26.00,1.00,250.12,-3.12,-62.12,0.19,3.69,-0.81,17.03,2.10
26.00,2.00,305.00,-14.56,21.12,-1.94,-5.06,10.00,17.03,2.10
26.00,0.00,229.06,8.69,-107.62,33.62,14.00,16.88,18.77,2.12
26.00,1.00,250.06,-3.12,-62.12,0.12,3.25,-0.50,18.77,2.12
26.00,2.00,304.75,-14.50,21.12,-3.31,-6.38,10.69,18.77,2.12
26.00,0.00,228.25,9.06,-108.25,34.06,14.56,15.56,20.46,2.14
26.00,1.00,250.06,-3.19,-62.12,-0.25,3.12,-0.81,20.46,2.14
26.00,2.00,304.50,-14.50,21.12,-1.75,-5.50,10.31,20.46,2.14
26.00,0.00,227.44,9.38,-108.88,35.62,13.69,16.19,22.19,2.16
26.00,1.00,250.00,-3.19,-62.12,-0.56,3.00,-0.31,22.19,2.16
26.00,2.00,304.31,-14.50,21.06,-1.31,-4.38,9.94,22.19,2.16
26.00,0.00,226.75,9.69,-109.56,36.12,10.81,17.25,24.01,2.18
26.00,1.00,250.00,-3.25,-62.12,-0.50,2.94,0.50,24.01,2.18
26.00,2.00,304.06,-14.44,21.06,-2.50,-5.62,10.19,24.01,2.18
26.00,0.00,226.12,10.00,-110.12,34.06,9.19,14.81,25.75,2.20
26.00,1.00,249.94,-3.25,-62.12,-0.44,3.12,0.88,25.75,2.20
26.00,2.00,303.88,-14.44,21.06,-2.94,-5.38,10.75,25.75,2.20
26.00,0.00,225.44,10.25,-110.75,31.50,9.50,12.31,27.35,2.22
26.00,1.00,249.88,-3.25,-62.12,-0.75,2.81,0.62,27.35,2.22
26.00,2.00,303.62,-14.38,21.06,-2.50,-4.38,9.94,27.35,2.22
26.00,0.00,224.88,10.50,-111.31,29.75,8.69,9.75,28.86,2.24
26.00,1.00,249.88,-3.31,-62.12,-1.25,3.38,0.38,28.86,2.24
26.00,2.00,303.44,-14.38,21.06,-2.31,-4.19,8.62,28.86,2.24
26.00,0.00,224.44,10.62,-111.75,29.44,6.00,9.00,30.37,2.26
26.00,1.00,249.81,-3.31,-62.12,-0.25,3.44,0.06,30.37,2.26
26.00,2.00,303.25,-14.38,21.06,-2.69,-4.12,8.50,30.37,2.26
26.00,0.00,224.06,10.81,-112.25,28.44,4.12,8.50,31.84,2.28
26.00,1.00,249.81,-3.38,-62.12,-0.81,3.06,0.25,31.84,2.28
26.00,2.00,303.06,-14.38,21.06,-2.88,-4.06,8.38,31.84,2.28
26.00,0.00,223.75,10.94,-112.69,26.94,1.69,7.38,33.21,2.30
26.00,1.00,249.75,-3.38,-62.06,-0.75,2.81,-0.25,33.21,2.30
26.00,2.00,302.88,-14.38,21.06,-2.19,-3.75,7.50,33.21,2.30
26.00,0.00,223.38,11.06,-113.19,24.00,2.94,6.75,34.40,2.32
26.00,1.00,249.69,-3.44,-62.06,-1.69,2.81,-0.38,34.40,2.32
26.00,2.00,302.75,-14.31,21.06,-1.25,-2.75,6.88,34.40,2.32
26.00,0.00,223.00,11.19,-113.62,21.50,4.88,5.12,35.48,2.34
26.00,1.00,249.69,-3.44,-62.06,-2.25,2.69,-0.50,35.48,2.34
26.00,2.00,302.62,-14.31,21.06,-1.38,-2.56,6.56,35.48,2.34
26.00,0.00,222.62,11.31,-113.94,19.88,6.25,5.12,36.50,2.36
26.00,1.00,249.69,-3.50,-62.00,-2.12,2.94,-0.75,36.50,2.36
26.00,2.00,302.44,-14.31,21.06,-1.94,-2.25,6.56,36.50,2.36
26.00,0.00,222.25,11.44,-114.25,19.50,5.31,5.88,37.55,2.38
26.00,1.00,249.62,-3.50,-62.00,-1.44,2.50,-0.44,37.55,2.38
26.00,2.00,302.31,-14.38,21.06,-2.81,-2.25,6.31,37.55,2.38
26.00,0.00,221.88,11.62,-114.56,17.50,5.88,6.50,38.51,2.40
26.00,1.00,249.62,-3.50,-61.94,-2.62,2.44,-0.38,38.51,2.40
26.00,2.00,302.19,-14.31,21.06,-2.88,-3.06,6.44,38.51,2.40
26.00,0.00,221.50,11.75,-114.75,14.81,6.75,4.88,39.34,2.42
26.00,1.00,249.56,-3.56,-61.88,-2.19,1.88,-0.44,39.34,2.42
26.00,2.00,302.06,-14.31,21.12,-2.75,-3.81,6.12,39.34,2.42
26.00,0.00,221.19,11.81,-114.94,13.88,6.50,4.38,40.06,2.44
26.00,1.00,249.56,-3.56,-61.81,-2.31,1.88,-0.44,40.06,2.44
26.00,2.00,301.94,-14.31,21.12,-1.50,-2.25,4.94,40.06,2.44
26.00,0.00,220.88,11.94,-115.12,13.38,5.19,4.38,40.76,2.46
26.00,1.00,249.50,-3.56,-61.75,-2.31,1.94,-0.12,40.76,2.46
26.00,2.00,301.81,-14.31,21.12,-1.56,-1.88,4.00,40.76,2.46
26.00,0.00,220.62,12.00,-115.31,12.88,3.62,4.12,41.45,2.48
26.00,1.00,249.50,-3.56,-61.75,-1.94,1.62,-0.12,41.45,2.48
26.00,2.00,301.75,-14.31,21.12,-1.62,-2.31,4.12,41.45,2.48
26.00,0.00,220.44,12.06,-115.56,12.06,3.06,3.50,42.11,2.50
26.00,1.00,249.50,-3.62,-61.75,-1.62,1.38,0.00,42.11,2.50
26.00,2.00,301.62,-14.25,21.12,-2.12,-2.31,3.69,42.11,2.50
26.00,0.00,220.19,12.19,-115.75,10.56,2.88,3.25,42.64,2.52
26.00,1.00,249.50,-3.62,-61.69,-1.94,0.94,-0.25,42.64,2.52
26.00,2.00,301.56,-14.25,21.12,-0.75,-2.25,2.81,42.64,2.52
26.00,0.00,220.06,12.19,-115.88,8.81,2.12,2.44,43.06,2.54
26.00,1.00,249.44,-3.62,-61.69,-1.75,1.31,-0.31,43.06,2.54
26.00,2.00,301.50,-14.25,21.12,-0.06,-2.12,2.56,43.06,2.54
26.00,0.00,219.94,12.25,-116.00,7.44,0.81,1.94,43.45,2.56
26.00,1.00,249.44,-3.62,-61.62,-2.06,1.75,-0.19,43.45,2.56
26.00,2.00,301.44,-14.19,21.12,-0.88,-1.94,3.06,43.45,2.56
26.00,0.00,219.88,12.25,-116.12,8.00,-1.69,2.75,43.93,2.58
26.00,1.00,249.44,-3.62,-61.56,-1.75,1.50,-0.06,43.93,2.58
26.00,2.00,301.38,-14.19,21.12,-2.19,-2.19,3.62,43.93,2.58
26.00,0.00,219.88,12.31,-116.31,6.62,-1.56,3.12,44.34,2.60
26.00,1.00,249.38,-3.69,-61.56,-2.25,1.12,0.19,44.34,2.60
26.00,2.00,301.31,-14.19,21.19,-2.06,-2.75,3.06,44.34,2.60
26.00,0.00,219.81,12.31,-116.38,5.44,-1.62,2.06,44.60,2.62
26.00,1.00,249.38,-3.69,-61.50,-2.12,1.88,-0.44,44.60,2.62
26.00,2.00,301.25,-14.12,21.12,-0.06,-2.06,2.00,44.60,2.62
26.00,0.00,219.81,12.38,-116.50,6.06,-2.69,3.06,44.88,2.64
26.00,1.00,249.38,-3.69,-61.44,-2.19,1.62,-0.38,44.88,2.64
26.00,2.00,301.19,-14.12,21.12,0.19,-1.25,1.94,44.88,2.64
26.00,0.00,219.75,12.44,-116.69,6.44,-2.75,4.25,45.24,2.66
26.00,1.00,249.38,-3.69,-61.44,-2.19,0.81,0.25,45.24,2.66
26.00,2.00,301.12,-14.12,21.12,-1.25,-2.44,2.06,45.24,2.66
26.00,0.00,219.62,12.50,-116.81,6.00,-1.69,4.69,45.61,2.68
26.00,1.00,249.38,-3.69,-61.38,-2.19,0.19,-0.06,45.61,2.68
26.00,2.00,301.06,-14.06,21.19,-1.88,-3.25,2.00,45.61,2.68
26.00,0.00,219.50,12.56,-116.94,5.69,0.88,4.69,45.85,2.70
26.00,1.00,249.38,-3.69,-61.31,-2.94,0.56,-0.81,45.85,2.70
26.00,2.00,301.06,-14.06,21.12,0.62,-3.19,1.19,45.85,2.70
26.00,0.00,219.31,12.62,-117.00,4.44,2.50,2.81,45.97,2.72
26.00,1.00,249.38,-3.75,-61.25,-2.75,1.12,-1.44,45.97,2.72
26.00,2.00,301.00,-14.00,21.12,1.75,-3.44,1.19,45.97,2.72
26.00,0.00,219.19,12.75,-117.12,4.81,1.50,3.50,46.23,2.74
26.00,1.00,249.38,-3.75,-61.25,-1.62,1.06,-0.69,46.23,2.74
26.00,2.00,301.00,-13.94,21.06,-0.56,-4.31,2.00,46.23,2.74
26.00,0.00,219.00,12.81,-117.19,5.56,1.81,4.38,46.55,2.76
26.00,1.00,249.38,-3.75,-61.19,-1.38,0.50,0.25,46.55,2.76
26.00,2.00,300.88,-13.88,21.06,-1.25,-4.50,2.69,46.55,2.76
26.00,0.00,218.75,12.94,-117.38,7.56,2.44,5.50,46.96,2.78
26.00,1.00,249.38,-3.75,-61.19,-1.44,0.38,0.12,46.96,2.78
26.00,2.00,300.81,-13.81,21.12,-1.12,-3.69,2.19,46.96,2.78
26.00,0.00,218.50,13.06,-117.50,7.56,3.62,4.81,47.35,2.80
26.00,1.00,249.38,-3.75,-61.12,-1.50,0.88,0.25,47.35,2.80
26.00,2.00,300.81,-13.75,21.12,-0.81,-3.44,1.88,47.35,2.80
26.00,0.00,218.19,13.19,-117.62,7.75,4.12,4.56,47.75,2.82
26.00,1.00,249.31,-3.81,-61.12,-2.12,0.81,-0.25,47.75,2.82
26.00,2.00,300.75,-13.69,21.12,-0.88,-4.44,2.19,47.75,2.82
26.00,0.00,217.88,13.31,-117.81,7.69,5.06,4.94,48.16,2.84
26.00,1.00,249.31,-3.81,-61.06,-1.94,1.06,-0.25,48.16,2.84
26.00,2.00,300.62,-13.62,21.06,-0.88,-4.88,3.06,48.16,2.84
26.00,0.00,217.56,13.44,-117.94,8.50,4.81,5.56,48.59,2.86
26.00,1.00,249.31,-3.81,-61.06,-1.56,0.88,-0.12,48.59,2.86
26.00,2.00,300.56,-13.56,21.06,-0.75,-5.19,3.75,48.59,2.86
26.00,0.00,217.25,13.56,-118.19,10.56,3.19,6.88,49.12,2.88
26.00,1.00,249.31,-3.81,-61.00,-1.62,1.38,-0.06,49.12,2.88
26.00,2.00,300.50,-13.50,21.06,-0.56,-4.56,3.81,49.12,2.88
26.00,0.00,216.94,13.75,-118.38,10.31,4.12,6.88,49.66,2.90
26.00,1.00,249.31,-3.81,-61.00,-1.56,1.69,0.38,49.66,2.90
26.00,2.00,300.38,-13.44,21.06,-1.19,-4.69,4.00,49.66,2.90
26.00,0.00,216.62,13.88,-118.56,8.62,4.88,4.00,50.08,2.92
26.00,1.00,249.25,-3.88,-61.00,-0.94,1.69,0.12,50.08,2.92
26.00,2.00,300.31,-13.38,21.06,-0.44,-4.19,3.50,50.08,2.92
26.00,0.00,216.38,13.94,-118.69,8.81,2.50,2.50,50.51,2.94
26.00,1.00,249.25,-3.88,-60.94,-1.69,2.44,0.12,50.51,2.94
26.00,2.00,300.19,-13.38,21.00,-0.19,-3.50,3.81,50.51,2.94
26.00,0.00,216.25,13.94,-118.88,9.44,0.69,3.19,50.95,2.96
26.00,1.00,249.19,-3.88,-60.94,-1.44,1.56,0.19,50.95,2.96
26.00,2.00,300.12,-13.31,21.00,0.06,-4.25,4.06,50.95,2.96
26.00,0.00,216.12,14.00,-119.12,10.81,-1.69,4.25,51.44,2.98
26.00,1.00,249.19,-3.88,-60.88,-1.56,1.31,0.19,51.44,2.98
26.00,2.00,300.00,-13.25,20.94,0.31,-3.81,3.75,51.44,2.98
26.00,0.00,215.94,14.12,-119.38,12.25,-1.31,5.69,51.99,3.00
26.00,1.00,249.19,-3.94,-60.88,-2.06,1.44,0.19,51.99,3.00
26.00,2.00,299.94,-13.25,20.94,0.50,-3.12,3.56,51.99,3.00
26.00,0.00,215.69,14.19,-119.62,12.25,1.25,5.88,52.57,3.02
26.00,1.00,249.12,-3.94,-60.81,-1.88,2.06,0.31,52.57,3.02
26.00,2.00,299.88,-13.19,20.94,-0.06,-2.81,3.81,52.57,3.02
26.00,0.00,215.44,14.31,-119.81,9.81,3.75,4.38,53.09,3.04
26.00,1.00,249.12,-3.94,-60.81,-1.81,1.75,-0.19,53.09,3.04
26.00,2.00,299.75,-13.19,20.94,-1.25,-2.69,4.25,53.09,3.04
26.00,0.00,215.12,14.38,-120.00,9.31,3.81,2.31,53.60,3.06
26.00,1.00,249.12,-3.94,-60.75,-2.25,2.00,-0.44,53.60,3.06
26.00,2.00,299.69,-13.19,20.94,-1.50,-2.56,4.25,53.60,3.06
26.00,0.00,214.94,14.44,-120.19,11.94,0.88,3.81,54.17,3.08
26.00,1.00,249.06,-4.00,-60.69,-2.19,2.19,-0.69,54.17,3.08
26.00,2.00,299.56,-13.12,20.94,-0.19,-2.38,3.38,54.17,3.08
26.00,0.00,214.75,14.56,-120.44,12.31,-0.94,5.69,54.76,3.10
26.00,1.00,249.06,-4.00,-60.69,-2.25,2.69,-0.12,54.76,3.10
26.00,2.00,299.50,-13.12,20.88,-0.19,-2.56,3.50,54.76,3.10
26.00,0.00,214.56,14.62,-120.62,9.38,-0.12,3.19,55.25,3.12
26.00,1.00,249.00,-4.06,-60.62,-1.94,2.50,0.00,55.25,3.12
26.00,2.00,299.44,-13.06,20.88,-1.06,-3.25,3.94,55.25,3.12
26.00,0.00,214.44,14.62,-120.81,9.44,0.81,2.06,55.71,3.14
26.00,1.00,249.00,-4.06,-60.56,-2.44,2.00,0.06,55.71,3.14
26.00,2.00,299.31,-13.06,20.88,-0.19,-3.06,3.75,55.71,3.14
26.00,0.00,214.25,14.69,-121.00,9.50,1.50,2.56,56.16,3.16
26.00,1.00,249.00,-4.06,-60.56,-2.25,1.88,-0.19,56.16,3.16
26.00,2.00,299.25,-13.00,20.88,-0.25,-3.19,3.31,56.16,3.16
26.00,0.00,214.06,14.75,-121.19,8.69,1.31,2.12,56.62,3.18
26.00,1.00,248.94,-4.12,-60.50,-1.62,2.12,0.19,56.62,3.18
26.00,2.00,299.19,-13.00,20.88,-0.94,-3.94,3.81,56.62,3.18
26.00,0.00,213.94,14.81,-121.38,10.00,0.75,3.81,57.18,3.20
26.00,1.00,248.94,-4.12,-60.50,-2.19,1.69,0.31,57.18,3.20
26.00,2.00,299.12,-12.94,20.88,-2.06,-3.31,4.00,57.18,3.20
26.00,0.00,213.69,14.88,-121.50,8.00,3.88,3.62,57.63,3.22
26.00,1.00,248.88,-4.12,-60.44,-2.38,1.88,0.31,57.63,3.22
26.00,2.00,299.00,-12.94,20.88,-1.38,-2.94,3.50,57.63,3.22
26.00,0.00,213.50,14.94,-121.62,6.00,2.94,1.31,57.94,3.24
26.00,1.00,248.88,-4.12,-60.38,-2.19,1.81,0.06,57.94,3.24
26.00,2.00,298.88,-12.88,20.88,-0.75,-3.69,3.38,57.94,3.24
26.00,0.00,213.31,15.00,-121.75,7.25,1.00,2.38,58.35,3.26
26.00,1.00,248.88,-4.19,-60.38,-2.38,2.19,0.19,58.35,3.26
26.00,2.00,298.88,-12.88,20.88,-1.50,-2.69,3.19,58.35,3.26
26.00,0.00,213.19,15.06,-121.88,6.75,1.25,2.62,58.79,3.28
26.00,1.00,248.81,-4.19,-60.31,-2.31,3.00,0.31,58.79,3.28
26.00,2.00,298.75,-12.81,20.94,-2.56,-2.62,3.44,58.79,3.28
26.00,0.00,213.06,15.06,-121.94,5.62,0.81,2.00,59.22,3.30
26.00,1.00,248.81,-4.25,-60.25,-2.62,1.81,0.38,59.22,3.30
26.00,2.00,298.69,-12.81,20.94,-3.44,-3.56,3.69,59.22,3.30
26.00,0.00,213.00,15.12,-122.00,4.50,1.06,1.62,59.57,3.32
26.00,1.00,248.75,-4.25,-60.19,-2.31,0.94,0.31,59.57,3.32
26.00,2.00,298.56,-12.75,21.00,-3.06,-3.19,2.75,59.57,3.32
26.00,0.00,212.88,15.12,-122.12,4.44,0.44,2.06,59.92,3.34
26.00,1.00,248.75,-4.25,-60.19,-2.94,1.50,0.00,59.92,3.34
26.00,2.00,298.50,-12.75,21.06,-2.94,-2.31,2.12,59.92,3.34
26.00,0.00,212.81,15.19,-122.19,4.88,-0.12,3.12,60.30,3.36
26.00,1.00,248.75,-4.25,-60.06,-3.62,1.56,0.12,60.30,3.36
26.00,2.00,298.44,-12.69,21.06,-3.19,-2.19,2.00,60.30,3.36
26.00,0.00,212.75,15.19,-122.25,3.62,0.44,2.56,60.63,3.38
26.00,1.00,248.75,-4.25,-60.06,-2.81,1.31,0.19,60.63,3.38
26.00,2.00,298.38,-12.69,21.19,-3.38,-3.12,2.06,60.63,3.38
26.00,0.00,212.69,15.25,-122.31,4.06,0.31,2.94,60.90,3.40
26.00,1.00,248.69,-4.25,-60.00,-2.81,0.31,0.25,60.90,3.40
26.00,2.00,298.38,-12.62,21.19,-1.69,-2.12,1.19,60.90,3.40
26.00,0.00,212.56,15.31,-122.31,2.50,1.56,1.81,61.11,3.42
26.00,1.00,248.69,-4.25,-59.94,-2.12,0.00,0.12,61.11,3.42
26.00,2.00,298.31,-12.62,21.25,-1.88,-2.25,0.75,61.11,3.42
26.00,0.00,212.50,15.31,-122.38,1.50,1.69,-0.50,61.34,3.44
26.00,1.00,248.69,-4.25,-59.88,-2.81,-0.50,-0.25,61.34,3.44
26.00,2.00,298.31,-12.56,21.38,-3.56,-1.94,0.56,61.34,3.44
26.00,0.00,212.50,15.31,-122.38,2.44,-0.44,-0.31,61.64,3.46
26.00,1.00,248.75,-4.25,-59.88,-2.25,-1.88,-0.44,61.64,3.46
26.00,2.00,298.31,-12.56,21.44,-3.94,-2.12,0.06,61.64,3.46
26.00,0.00,212.50,15.31,-122.44,4.19,-1.56,3.06,61.98,3.48
26.00,1.00,248.75,-4.25,-59.81,-2.06,-2.38,-0.50,61.98,3.48
26.00,2.00,298.31,-12.56,21.56,-2.88,-1.81,-0.81,61.98,3.48
26.00,0.00,212.44,15.38,-122.50,4.31,-0.50,5.06,62.29,3.50
26.00,1.00,248.75,-4.25,-59.75,-2.00,-2.19,-0.50,62.29,3.50
26.00,2.00,298.31,-12.50,21.56,-2.25,-1.88,-1.25,62.29,3.50
26.00,0.00,212.25,15.44,-122.56,3.31,2.31,3.88,62.55,3.52
26.00,1.00,248.81,-4.19,-59.69,-1.81,-2.31,-0.81,62.55,3.52
26.00,2.00,298.31,-12.50,21.69,-2.38,-2.50,-1.12,62.55,3.52
26.00,0.00,212.06,15.50,-122.62,2.75,3.25,2.38,62.81,3.54
26.00,1.00,248.88,-4.19,-59.69,-1.06,-2.62,-0.50,62.81,3.54
26.00,2.00,298.31,-12.44,21.75,-2.69,-2.94,-0.88,62.81,3.54
26.00,0.00,211.88,15.56,-122.69,4.75,1.69,3.38,63.16,3.56
26.00,1.00,248.88,-4.19,-59.69,-0.62,-2.81,-0.31,63.16,3.56
26.00,2.00,298.31,-12.38,21.81,-2.81,-2.75,-1.44,63.16,3.56
26.00,0.00,211.69,15.69,-122.75,5.94,1.44,5.00,63.55,3.58
26.00,1.00,248.94,-4.12,-59.69,-0.38,-2.56,-0.44,63.55,3.58
26.00,2.00,298.31,-12.31,21.88,-2.31,-2.88,-2.12,63.55,3.58
26.00,0.00,211.50,15.75,-122.88,6.06,1.00,5.19,63.91,3.60
26.00,1.00,248.94,-4.12,-59.69,-0.06,-2.62,-0.50,63.91,3.60
26.00,2.00,298.38,-12.31,21.94,-1.62,-2.75,-2.38,63.91,3.60
26.00,0.00,211.31,15.88,-123.00,4.38,1.56,4.19,64.15,3.62
26.00,1.00,249.00,-4.06,-59.69,0.00,-2.94,0.00,64.15,3.62
26.00,2.00,298.44,-12.19,21.94,-0.56,-2.38,-2.75,64.15,3.62
26.00,0.00,211.12,15.94,-123.12,3.62,1.31,3.88,64.33,3.64
26.00,1.00,249.00,-4.06,-59.62,0.19,-3.06,0.31,64.33,3.64
26.00,2.00,298.44,-12.19,21.94,-0.38,-3.06,-2.06,64.33,3.64
26.00,0.00,211.06,16.00,-123.19,3.56,-0.69,4.25,64.51,3.66
26.00,1.00,249.06,-4.06,-59.62,0.56,-2.31,0.50,64.51,3.66
26.00,2.00,298.44,-12.06,22.00,-0.25,-3.62,-1.56,64.51,3.66
26.00,0.00,210.94,16.06,-123.25,4.19,-1.31,4.81,64.73,3.68
26.00,1.00,249.06,-4.00,-59.62,0.31,-2.06,0.31,64.73,3.68
26.00,2.00,298.50,-12.00,22.00,-0.44,-3.19,-1.31,64.73,3.68
26.00,0.00,210.88,16.12,-123.38,4.62,-1.94,5.25,64.95,3.70
26.00,1.00,249.06,-4.00,-59.62,0.88,-1.62,0.19,64.95,3.70
26.00,2.00,298.50,-11.94,22.00,0.00,-3.06,-1.19,64.95,3.70
26.00,0.00,210.69,16.19,-123.50,4.56,-0.19,7.06,65.18,3.72
26.00,1.00,249.06,-4.00,-59.69,1.00,-1.31,0.81,65.18,3.72
26.00,2.00,298.50,-11.88,22.00,-0.25,-3.31,-0.75,65.18,3.72
26.00,0.00,210.50,16.31,-123.62,4.25,0.56,6.88,65.42,3.74
26.00,1.00,249.06,-3.94,-59.69,0.88,-1.00,0.81,65.42,3.74
26.00,2.00,298.50,-11.81,22.00,-0.94,-3.81,-0.56,65.42,3.74
26.00,0.00,210.25,16.44,-123.69,3.75,2.50,6.50,65.64,3.76
26.00,1.00,249.06,-3.94,-59.69,0.62,-0.62,0.94,65.64,3.76
26.00,2.00,298.44,-11.75,22.00,-1.00,-4.44,0.06,65.64,3.76
26.00,0.00,210.06,16.56,-123.75,3.50,2.31,5.31,65.87,3.78
26.00,1.00,249.06,-3.88,-59.69,1.06,-0.69,1.25,65.87,3.78
26.00,2.00,298.44,-11.62,22.00,-1.38,-4.81,-0.06,65.87,3.78
26.00,0.00,209.88,16.69,-123.88,4.00,1.38,5.12,66.10,3.80
26.00,1.00,249.06,-3.88,-59.75,0.69,-1.12,1.44,66.10,3.80
26.00,2.00,298.44,-11.62,22.00,-0.75,-4.06,-0.38,66.10,3.80
26.00,0.00,209.69,16.75,-123.94,3.94,1.06,5.19,66.33,3.82
26.00,1.00,249.00,-3.81,-59.75,0.94,-1.75,1.75,66.33,3.82
26.00,2.00,298.44,-11.50,22.06,-0.94,-3.94,-0.81,66.33,3.82
26.00,0.00,209.50,16.88,-124.00,4.31,1.31,5.12,66.55,3.84
26.00,1.00,249.00,-3.75,-59.75,0.56,-2.00,1.88,66.55,3.84
26.00,2.00,298.44,-11.44,22.06,-0.50,-3.56,-1.12,66.55,3.84
26.00,0.00,209.31,16.94,-124.12,4.25,2.38,4.62,66.77,3.86
26.00,1.00,249.00,-3.75,-59.75,0.94,-2.44,1.31,66.77,3.86
26.00,2.00,298.44,-11.38,22.06,-0.38,-4.00,-1.06,66.77,3.86
26.00,0.00,209.12,17.00,-124.19,2.62,3.12,2.75,66.93,3.88
26.00,1.00,249.00,-3.69,-59.75,0.69,-3.12,1.50,66.93,3.88
26.00,2.00,298.44,-11.25,22.06,-0.69,-3.81,-1.00,66.93,3.88
26.00,0.00,208.94,17.06,-124.19,2.75,1.81,2.56,67.10,3.90
26.00,1.00,249.00,-3.62,-59.81,0.62,-3.06,1.50,67.10,3.90
26.00,2.00,298.44,-11.25,22.06,-0.94,-3.44,-1.25,67.10,3.90
26.00,0.00,208.81,17.12,-124.25,2.94,1.25,2.75,67.27,3.92
26.00,1.00,249.06,-3.56,-59.81,0.12,-2.62,1.06,67.27,3.92
26.00,2.00,298.44,-11.12,22.12,-0.75,-3.31,-1.19,67.27,3.92
26.00,0.00,208.69,17.19,-124.38,4.06,0.56,3.38,67.47,3.94
26.00,1.00,249.06,-3.56,-59.75,0.44,-2.44,1.19,67.47,3.94
26.00,2.00,298.44,-11.12,22.12,-0.12,-3.81,-0.69,67.47,3.94
26.00,0.00,208.56,17.25,-124.44,3.62,1.50,3.31,67.67,3.96
26.00,1.00,249.06,-3.50,-59.81,0.94,-3.12,1.81,67.67,3.96
26.00,2.00,298.44,-11.00,22.12,-0.69,-4.06,-1.00,67.67,3.96
26.00,0.00,208.38,17.38,-124.50,3.50,2.50,3.31,67.90,3.98
26.00,1.00,249.06,-3.44,-59.81,0.62,-2.75,1.38,67.90,3.98
26.00,2.00,298.44,-10.88,22.12,-1.31,-4.00,-1.12,67.90,3.98
26.00,0.00,208.19,17.44,-124.56,4.44,2.81,3.69,68.12,4.00
26.00,1.00,249.06,-3.38,-59.81,0.19,-2.44,1.00,68.12,4.00
26.00,2.00,298.50,-10.88,22.12,-0.38,-3.25,-1.56,68.12,4.00
26.00,0.00,207.88,17.50,-124.69,6.31,2.44,4.81,68.39,4.02
26.00,1.00,249.06,-3.38,-59.81,1.00,-1.56,1.00,68.39,4.02
26.00,2.00,298.50,-10.75,22.12,0.75,-4.25,-1.19,68.39,4.02
26.00,0.00,207.62,17.62,-124.81,5.19,3.25,5.69,68.62,4.04
26.00,1.00,249.06,-3.31,-59.81,1.38,-2.19,1.75,68.62,4.04
26.00,2.00,298.50,-10.69,22.12,0.31,-5.06,-0.88,68.62,4.04
26.00,0.00,207.38,17.75,-124.88,2.81,4.06,3.12,68.71,4.06
26.00,1.00,249.06,-3.25,-59.88,1.56,-2.00,2.00,68.71,4.06
26.00,2.00,298.50,-10.56,22.12,0.75,-5.31,-0.62,68.71,4.06
26.00,0.00,207.19,17.81,-124.94,3.62,2.50,2.69,68.80,4.08
26.00,1.00,249.00,-3.19,-59.88,1.81,-1.81,2.12,68.80,4.08
26.00,2.00,298.50,-10.50,22.06,1.69,-4.50,-0.56,68.80,4.08
26.00,0.00,207.00,17.94,-125.06,6.25,1.00,5.00,68.99,4.10
26.00,1.00,249.00,-3.12,-59.94,1.94,-1.25,2.00,68.99,4.10
26.00,2.00,298.44,-10.44,22.06,2.25,-4.75,-0.62,68.99,4.10
26.00,0.00,206.75,18.06,-125.25,7.75,0.69,7.81,69.26,4.12
26.00,1.00,248.94,-3.12,-60.00,1.75,-0.81,1.81,69.26,4.12
26.00,2.00,298.44,-10.31,22.00,2.06,-4.50,-0.12,69.26,4.12
26.00,0.00,206.38,18.19,-125.38,5.31,3.88,6.50,69.44,4.14
26.00,1.00,248.94,-3.06,-60.00,1.06,-0.56,1.25,69.44,4.14
26.00,2.00,298.44,-10.25,21.94,1.44,-4.75,0.19,69.44,4.14
26.00,0.00,206.12,18.31,-125.44,3.00,4.00,2.31,69.58,4.16
26.00,1.00,248.94,-3.06,-60.06,0.88,-0.81,1.19,69.58,4.16
26.00,2.00,298.38,-10.12,21.94,0.12,-4.50,1.12,69.58,4.16
26.00,0.00,206.00,18.31,-125.50,4.69,0.56,2.12,69.80,4.18
26.00,1.00,248.88,-3.00,-60.06,1.00,-0.38,1.38,69.80,4.18
26.00,2.00,298.38,-10.06,21.94,-0.12,-4.38,1.06,69.80,4.18
26.00,0.00,205.88,18.38,-125.62,6.44,-1.12,4.75,70.15,4.20
26.00,1.00,248.88,-3.00,-60.06,1.25,-0.56,1.75,70.15,4.20
26.00,2.00,298.38,-10.06,21.94,-0.94,-4.12,0.88,70.15,4.20
26.00,0.00,205.69,18.44,-125.75,5.50,0.00,5.31,70.38,4.22
26.00,1.00,248.88,-2.94,-60.12,1.12,-1.00,1.62,70.38,4.22
26.00,2.00,298.31,-9.94,21.94,0.69,-3.25,0.44,70.38,4.22
26.00,0.00,205.56,18.56,-125.88,3.44,1.62,3.62,70.46,4.24
26.00,1.00,248.81,-2.94,-60.12,1.19,-0.31,1.12,70.46,4.24
26.00,2.00,298.31,-9.94,21.88,1.69,-3.12,0.62,70.46,4.24
26.00,0.00,205.38,18.56,-125.88,3.06,1.69,2.38,70.57,4.26
26.00,1.00,248.81,-2.94,-60.12,1.00,-1.50,1.06,70.57,4.26
26.00,2.00,298.31,-9.88,21.88,0.62,-3.62,0.69,70.57,4.26
26.00,0.00,205.25,18.62,-126.00,3.75,0.81,2.50,70.74,4.28
26.00,1.00,248.81,-2.88,-60.19,1.06,-1.94,1.19,70.74,4.28
26.00,2.00,298.25,-9.75,21.88,0.31,-3.94,0.62,70.74,4.28
26.00,0.00,205.12,18.69,-126.06,3.56,1.56,2.56,70.89,4.30
26.00,1.00,248.81,-2.81,-60.19,0.56,-2.06,0.81,70.89,4.30
26.00,2.00,298.25,-9.75,21.88,0.38,-3.56,0.25,70.89,4.30
26.00,0.00,205.06,18.69,-126.06,1.19,2.12,0.12,70.95,4.32
26.00,1.00,248.81,-2.81,-60.19,0.12,-2.69,0.81,70.95,4.32
26.00,2.00,298.25,-9.62,21.88,-0.12,-2.94,-0.56,70.95,4.32
26.00,0.00,205.06,18.69,-126.06,2.25,-0.12,-0.94,71.04,4.34
26.00,1.00,248.81,-2.75,-60.19,0.38,-2.94,0.75,71.04,4.34
26.00,2.00,298.25,-9.62,21.88,0.19,-2.00,-1.38,71.04,4.34
26.00,0.00,204.94,18.69,-126.19,5.31,0.25,1.81,71.24,4.36
26.00,1.00,248.88,-2.75,-60.19,0.56,-3.25,0.31,71.24,4.36
26.00,2.00,298.25,-9.56,21.88,1.12,-2.25,-1.75,71.24,4.36
26.00,0.00,204.75,18.81,-126.25,5.38,2.06,2.88,71.45,4.38
26.00,1.00,248.94,-2.69,-60.19,0.56,-3.06,0.12,71.45,4.38
26.00,2.00,298.25,-9.50,21.88,0.88,-2.31,-0.69,71.45,4.38
26.00,0.00,204.56,18.88,-126.38,4.56,2.06,2.81,71.62,4.40
26.00,1.00,248.94,-2.69,-60.25,0.94,-2.94,0.31,71.62,4.40
26.00,2.00,298.25,-9.50,21.81,0.94,-2.56,-0.69,71.62,4.40
26.00,0.00,204.38,18.94,-126.44,3.44,2.75,1.81,71.70,4.42
26.00,1.00,249.00,-2.62,-60.25,0.88,-2.50,0.06,71.70,4.42
26.00,2.00,298.31,-9.44,21.81,1.75,-3.00,-0.75,71.70,4.42
26.00,0.00,204.19,19.00,-126.50,3.38,2.69,1.25,71.80,4.44
26.00,1.00,249.00,-2.62,-60.25,0.69,-1.81,0.38,71.80,4.44
26.00,2.00,298.31,-9.38,21.81,1.25,-2.88,-0.69,71.80,4.44
26.00,0.00,204.12,19.00,-126.56,3.56,0.56,1.12,71.95,4.46
26.00,1.00,249.00,-2.62,-60.25,0.94,-1.19,0.62,71.95,4.46
26.00,2.00,298.31,-9.31,21.75,0.50,-3.56,-0.44,71.95,4.46
26.00,0.00,204.00,19.00,-126.69,4.38,-0.06,2.38,72.11,4.48
26.00,1.00,249.00,-2.56,-60.31,1.19,-1.19,0.75,72.11,4.48
26.00,2.00,298.25,-9.25,21.75,0.88,-3.56,-0.38,72.11,4.48
26.00,0.00,203.88,19.06,-126.75,4.75,1.12,3.56,72.30,4.50
26.00,1.00,249.00,-2.56,-60.31,1.19,-1.12,0.75,72.30,4.50
26.00,2.00,298.25,-9.19,21.75,0.81,-2.88,-0.44,72.30,4.50
26.00,0.00,203.62,19.19,-126.88,4.25,1.88,3.81,72.44,4.52
26.00,1.00,249.00,-2.56,-60.31,0.81,-1.00,0.69,72.44,4.52
26.00,2.00,298.25,-9.12,21.69,1.31,-2.75,-0.19,72.44,4.52
26.00,0.00,203.44,19.25,-126.94,4.19,1.38,3.38,72.58,4.54
26.00,1.00,249.00,-2.50,-60.38,1.00,-0.44,0.81,72.58,4.54
26.00,2.00,298.25,-9.06,21.69,1.12,-3.06,0.12,72.58,4.54
26.00,0.00,203.31,19.31,-127.06,4.12,0.56,3.12,72.72,4.56
26.00,1.00,249.00,-2.50,-60.38,1.19,-0.56,1.00,72.72,4.56
26.00,2.00,298.25,-9.00,21.69,1.06,-3.38,0.00,72.72,4.56
26.00,0.00,203.25,19.31,-127.12,3.94,-0.50,2.62,72.86,4.58
26.00,1.00,249.00,-2.50,-60.44,1.00,-0.44,0.88,72.86,4.58
26.00,2.00,298.25,-8.94,21.62,1.06,-2.94,0.06,72.86,4.58
26.00,0.00,203.12,19.38,-127.25,4.50,-0.62,2.88,73.02,4.60
26.00,1.00,248.94,-2.44,-60.44,1.00,-0.50,1.00,73.02,4.60
26.00,2.00,298.19,-8.94,21.62,1.00,-2.81,0.38,73.02,4.60
26.00,0.00,203.00,19.44,-127.31,4.69,-0.12,3.50,73.20,4.62
26.00,1.00,248.94,-2.44,-60.50,1.06,-0.94,1.25,73.20,4.62
26.00,2.00,298.19,-8.88,21.56,1.00,-3.19,0.19,73.20,4.62
26.00,0.00,202.81,19.50,-127.44,4.19,0.94,3.25,73.37,4.64
26.00,1.00,248.94,-2.38,-60.50,1.38,-1.31,1.62,73.37,4.64
26.00,2.00,298.19,-8.81,21.56,0.44,-2.75,0.06,73.37,4.64
26.00,0.00,202.69,19.56,-127.50,4.12,1.44,3.25,73.54,4.66
26.00,1.00,248.94,-2.38,-60.56,0.75,-1.31,1.00,73.54,4.66
26.00,2.00,298.19,-8.75,21.56,0.62,-2.56,0.00,73.54,4.66
26.00,0.00,202.50,19.62,-127.62,3.50,1.38,2.50,73.65,4.68
26.00,1.00,248.94,-2.38,-60.56,0.50,-0.50,0.94,73.65,4.68
26.00,2.00,298.19,-8.69,21.56,1.12,-3.12,-0.19,73.65,4.68
26.00,0.00,202.38,19.62,-127.69,3.12,0.88,2.19,73.72,4.70
26.00,1.00,248.88,-2.31,-60.56,0.94,-1.00,1.44,73.72,4.70
26.00,2.00,298.19,-8.62,21.50,1.62,-3.44,-0.06,73.72,4.70
26.00,0.00,202.31,19.69,-127.75,2.50,0.56,2.25,73.79,4.72
26.00,1.00,248.88,-2.31,-60.62,1.31,-1.00,1.88,73.79,4.72
26.00,2.00,298.12,-8.56,21.50,1.06,-3.12,0.50,73.79,4.72
26.00,0.00,202.12,19.75,-127.75,2.31,1.44,2.56,73.87,4.74
26.00,1.00,248.88,-2.25,-60.62,1.25,-1.06,1.94,73.87,4.74
26.00,2.00,298.12,-8.56,21.44,0.56,-3.81,0.88,73.87,4.74
26.00,0.00,201.94,19.81,-127.81,2.81,3.19,3.00,73.96,4.76
26.00,1.00,248.81,-2.19,-60.62,1.50,-1.25,1.75,73.96,4.76
26.00,2.00,298.12,-8.44,21.44,1.00,-3.69,0.44,73.96,4.76
26.00,0.00,201.69,19.94,-127.88,2.94,3.88,2.88,74.03,4.78
26.00,1.00,248.81,-2.19,-60.69,1.50,-0.88,1.50,74.03,4.78
26.00,2.00,298.12,-8.38,21.44,1.44,-3.44,0.00,74.03,4.78
26.00,0.00,201.50,20.00,-127.94,3.38,3.25,3.19,74.11,4.80
26.00,1.00,248.81,-2.12,-60.75,1.50,-0.81,1.44,74.11,4.80
26.00,2.00,298.06,-8.31,21.38,1.62,-3.56,-0.19,74.11,4.80
26.00,0.00,201.25,20.12,-128.00,3.06,3.31,3.31,74.22,4.82
26.00,1.00,248.75,-2.12,-60.75,0.56,-0.81,1.38,74.22,4.82
26.00,2.00,298.06,-8.25,21.38,0.62,-3.50,0.81,74.22,4.82
26.00,0.00,201.00,20.19,-128.06,3.62,1.88,4.00,74.35,4.84
26.00,1.00,248.75,-2.06,-60.75,0.38,-0.06,1.12,74.35,4.84
26.00,2.00,298.06,-8.19,21.38,0.88,-3.44,1.31,74.35,4.84
26.00,0.00,200.81,20.25,-128.19,3.31,2.56,4.25,74.44,4.86
26.00,1.00,248.69,-2.06,-60.75,0.81,-0.38,1.31,74.44,4.86
26.00,2.00,298.00,-8.19,21.31,1.38,-3.56,1.06,74.44,4.86
26.00,0.00,200.62,20.38,-128.19,2.06,2.12,3.44,74.48,4.88
26.00,1.00,248.69,-2.00,-60.75,0.69,0.06,1.38,74.48,4.88
26.00,2.00,297.94,-8.06,21.25,1.38,-3.00,1.25,74.48,4.88
26.00,0.00,200.50,20.44,-128.25,2.25,1.25,2.88,74.53,4.90
26.00,1.00,248.69,-2.00,-60.81,0.69,0.19,1.44,74.53,4.90
26.00,2.00,297.94,-8.06,21.25,1.19,-2.06,1.75,74.53,4.90
26.00,0.00,200.31,20.50,-128.31,2.88,1.12,3.00,74.60,4.92
26.00,1.00,248.62,-2.00,-60.81,0.31,1.38,0.81,74.60,4.92
26.00,2.00,297.88,-8.06,21.25,1.25,-2.31,1.75,74.60,4.92
26.00,0.00,200.19,20.56,-128.38,3.00,1.12,2.94,74.68,4.94
26.00,1.00,248.62,-2.00,-60.81,-0.12,0.69,0.38,74.68,4.94
26.00,2.00,297.88,-8.00,21.19,1.31,-2.56,2.00,74.68,4.94
26.00,0.00,200.06,20.62,-128.44,2.44,1.50,2.81,74.75,4.96
26.00,1.00,248.62,-2.00,-60.81,-0.12,0.69,0.38,74.75,4.96
26.00,2.00,297.81,-8.00,21.12,1.00,-3.06,2.31,74.75,4.96
26.00,0.00,199.88,20.69,-128.50,1.88,1.75,2.44,74.78,4.98
26.00,1.00,248.62,-2.00,-60.81,0.38,0.50,0.38,74.78,4.98
26.00,2.00,297.75,-7.94,21.12,1.12,-2.38,2.00,74.78,4.98
26.00,0.00,199.81,20.69,-128.56,2.56,0.56,2.19,74.85,5.00
26.00,1.00,248.56,-2.00,-60.81,-0.06,0.62,0.38,74.85,5.00
26.00,2.00,297.69,-7.94,21.12,1.12,-1.81,1.62,74.85,5.00
26.00,0.00,199.69,20.75,-128.62,3.12,0.31,1.81,74.97,5.02
26.00,1.00,248.56,-2.00,-60.81,-0.44,0.69,0.25,74.97,5.02
26.00,2.00,297.69,-7.88,21.06,0.62,-1.81,1.81,74.97,5.02
26.00,0.00,199.62,20.75,-128.69,2.69,0.88,1.50,75.05,5.04
26.00,1.00,248.56,-2.00,-60.88,-0.12,1.00,0.06,75.05,5.04
26.00,2.00,297.62,-7.88,21.06,0.88,-2.50,1.88,75.05,5.04
26.00,0.00,199.50,20.81,-128.75,2.38,1.75,1.56,75.11,5.06
26.00,1.00,248.56,-2.00,-60.88,-0.19,0.44,0.19,75.11,5.06
26.00,2.00,297.56,-7.81,21.00,1.19,-2.06,2.00,75.11,5.06
26.00,0.00,199.38,20.88,-128.75,2.25,1.56,1.50,75.14,5.08
26.00,1.00,248.56,-2.00,-60.88,0.00,0.62,0.12,75.14,5.08
26.00,2.00,297.56,-7.81,21.00,1.56,-1.62,2.00,75.14,5.08
26.00,0.00,199.31,20.88,-128.81,2.00,1.38,1.62,75.15,5.10
26.00,1.00,248.56,-2.00,-60.88,-0.25,0.88,0.00,75.15,5.10
26.00,2.00,297.50,-7.81,20.94,1.88,-1.75,2.44,75.15,5.10
26.00,0.00,199.12,20.94,-128.88,2.06,1.31,1.38,75.15,5.12
26.00,1.00,248.50,-2.00,-60.88,-0.31,1.69,0.12,75.15,5.12
26.00,2.00,297.44,-7.81,20.94,2.12,-1.25,2.75,75.15,5.12
26.00,0.00,199.06,20.94,-128.88,2.12,1.81,1.00,75.17,5.14
26.00,1.00,248.50,-2.06,-60.88,-0.69,2.25,0.31,75.17,5.14
26.00,2.00,297.38,-7.81,20.81,1.69,-1.31,2.81,75.17,5.14
26.00,0.00,198.94,21.00,-128.88,2.25,2.38,1.00,75.22,5.16
26.00,1.00,248.44,-2.06,-60.88,-0.50,2.62,0.88,75.22,5.16
26.00,2.00,297.31,-7.81,20.81,1.06,-1.19,3.38,75.22,5.16
26.00,0.00,198.81,21.06,-128.94,2.12,2.94,1.06,75.31,5.18
26.00,1.00,248.38,-2.06,-60.88,-0.81,2.75,1.06,75.31,5.18
26.00,2.00,297.19,-7.81,20.81,0.19,-1.56,3.94,75.31,5.18
26.00,0.00,198.62,21.06,-128.94,1.94,3.19,0.88,75.36,5.20
26.00,1.00,248.38,-2.06,-60.81,-1.12,2.75,0.81,75.36,5.20
26.00,2.00,297.19,-7.81,20.81,0.88,-1.19,3.94,75.36,5.20
26.00,0.00,198.50,21.12,-129.00,1.44,2.44,0.88,75.38,5.22
26.00,1.00,248.31,-2.06,-60.81,-1.06,3.31,0.56,75.38,5.22
26.00,2.00,297.06,-7.81,20.75,1.12,-0.88,3.75,75.38,5.22
26.00,0.00,198.38,21.19,-129.00,1.19,1.81,0.50,75.36,5.24
26.00,1.00,248.25,-2.12,-60.81,-1.31,3.25,0.69,75.36,5.24
26.00,2.00,297.00,-7.81,20.75,1.56,-0.06,3.69,75.36,5.24
26.00,0.00,198.31,21.19,-129.00,1.38,0.81,0.06,75.36,5.26
26.00,1.00,248.25,-2.12,-60.75,-1.31,4.06,0.19,75.36,5.26
26.00,2.00,296.94,-7.81,20.69,1.31,0.25,3.44,75.36,5.26
26.00,0.00,198.25,21.19,-129.06,1.44,-0.31,-0.50,75.43,5.28
26.00,1.00,248.19,-2.19,-60.75,-1.44,3.62,0.06,75.43,5.28
26.00,2.00,296.81,-7.88,20.69,0.12,-0.06,3.75,75.43,5.28
26.00,0.00,198.31,21.19,-129.06,1.44,-0.75,-0.62,75.51,5.30
26.00,1.00,248.12,-2.19,-60.75,-1.56,2.62,0.19,75.51,5.30
26.00,2.00,296.81,-7.88,20.69,-0.38,0.12,3.31,75.51,5.30
26.00,0.00,198.31,21.19,-129.12,1.62,-0.94,-0.44,75.60,5.32
26.00,1.00,248.12,-2.25,-60.69,-1.56,2.75,-0.12,75.60,5.32
26.00,2.00,296.75,-7.94,20.69,-0.38,1.12,3.06,75.60,5.32
26.00,0.00,198.31,21.12,-129.12,1.31,-0.88,-1.00,75.68,5.34
26.00,1.00,248.06,-2.25,-60.62,-2.50,3.31,-0.62,75.68,5.34
26.00,2.00,296.69,-8.00,20.62,-0.31,1.56,2.94,75.68,5.34
26.00,0.00,198.38,21.12,-129.12,0.75,-0.88,-1.44,75.74,5.36
26.00,1.00,248.06,-2.31,-60.62,-2.38,3.06,-0.81,75.74,5.36
26.00,2.00,296.62,-8.00,20.62,-0.44,1.06,3.31,75.74,5.36
26.00,0.00,198.44,21.06,-129.12,0.94,-0.50,-1.81,75.77,5.38
26.00,1.00,248.06,-2.38,-60.56,-0.94,2.75,-0.69,75.77,5.38
26.00,2.00,296.56,-8.06,20.62,0.31,0.94,3.12,75.77,5.38
26.00,0.00,198.50,21.06,-129.12,0.69,-0.19,-1.94,75.78,5.40
26.00,1.00,248.00,-2.38,-60.56,-0.56,2.38,-0.75,75.78,5.40
26.00,2.00,296.50,-8.06,20.62,0.38,1.06,3.06,75.78,5.40
26.00,0.00,198.50,21.00,-129.12,1.50,0.81,-1.81,75.85,5.42
26.00,1.00,248.00,-2.44,-60.56,-0.81,2.19,-0.69,75.85,5.42
26.00,2.00,296.44,-8.12,20.62,0.06,0.62,2.81,75.85,5.42
26.00,0.00,198.50,21.00,-129.12,1.19,1.44,-1.62,75.93,5.44
26.00,1.00,248.00,-2.44,-60.56,-1.06,1.81,-0.56,75.93,5.44
26.00,2.00,296.38,-8.12,20.62,-0.44,0.12,2.88,75.93,5.44
26.00,0.00,198.44,21.00,-129.12,1.00,1.94,-1.50,76.00,5.46
26.00,1.00,248.00,-2.50,-60.50,-1.06,1.69,-1.19,76.00,5.46
26.00,2.00,296.38,-8.12,20.62,-0.56,0.25,2.88,76.00,5.46
26.00,0.00,198.38,21.00,-129.19,0.88,1.50,-1.25,76.05,5.48
26.00,1.00,248.00,-2.50,-60.50,-1.44,1.94,-1.38,76.05,5.48
26.00,2.00,296.31,-8.19,20.62,-0.19,1.62,2.25,76.05,5.48
26.00,0.00,198.38,21.00,-129.19,0.31,-0.88,-1.56,76.06,5.50
26.00,1.00,248.00,-2.56,-60.50,-1.31,1.88,-1.25,76.06,5.50
26.00,2.00,296.25,-8.25,20.62,0.00,1.94,2.12,76.06,5.50
26.00,0.00,198.50,20.94,-129.19,0.31,-2.19,-1.69,76.08,5.52
26.00,1.00,248.00,-2.56,-60.44,-0.69,1.81,-1.06,76.08,5.52
26.00,2.00,296.25,-8.25,20.62,-0.12,0.94,1.69,76.08,5.52
26.00,0.00,198.62,20.88,-129.19,0.00,-2.06,-1.44,76.07,5.54
26.00,1.00,248.00,-2.62,-60.44,-0.62,1.56,-0.94,76.07,5.54
26.00,2.00,296.19,-8.31,20.62,0.31,0.69,1.44,76.07,5.54
26.00,0.00,198.69,20.81,-129.19,-0.06,-0.94,-1.12,76.07,5.56
26.00,1.00,248.00,-2.62,-60.44,-0.62,1.44,-0.81,76.07,5.56
26.00,2.00,296.19,-8.31,20.62,-0.06,0.62,1.06,76.07,5.56
26.00,0.00,198.69,20.81,-129.19,-0.44,0.62,-0.50,76.06,5.58
26.00,1.00,248.00,-2.69,-60.44,-0.75,1.56,-0.75,76.06,5.58
26.00,2.00,296.12,-8.31,20.62,-0.31,0.06,1.06,76.06,5.58
26.00,0.00,198.62,20.88,-129.12,-0.88,2.25,-0.12,76.01,5.60
26.00,1.00,248.00,-2.69,-60.44,-0.69,1.31,-0.75,76.01,5.60
26.00,2.00,296.12,-8.31,20.62,0.19,-0.31,1.25,76.01,5.60
26.00,0.00,198.56,20.88,-129.12,-1.75,2.31,0.06,75.92,5.62
26.00,1.00,248.00,-2.75,-60.38,-1.00,1.44,-0.81,75.92,5.62
26.00,2.00,296.12,-8.38,20.56,0.31,0.81,1.56,75.92,5.62
26.00,0.00,198.56,20.94,-129.06,-1.75,1.38,0.38,75.83,5.64
26.00,1.00,248.00,-2.75,-60.38,-0.62,1.25,-1.06,75.83,5.64
26.00,2.00,296.06,-8.38,20.56,0.00,1.31,1.62,75.83,5.64
26.00,0.00,198.56,20.94,-129.00,-1.62,0.19,0.56,75.75,5.66
26.00,1.00,248.00,-2.81,-60.38,-0.44,2.50,-1.50,75.75,5.66
26.00,2.00,296.06,-8.44,20.56,0.06,1.50,1.44,75.75,5.66
26.00,0.00,198.56,20.94,-129.00,-1.38,-1.06,0.31,75.64,5.68
26.00,1.00,248.00,-2.88,-60.38,-0.69,2.25,-1.50,75.64,5.68
26.00,2.00,296.00,-8.50,20.56,1.06,2.00,1.19,75.64,5.68
26.00,0.00,198.69,20.88,-129.00,-1.44,-2.25,0.50,75.52,5.70
26.00,1.00,248.00,-2.88,-60.38,-0.88,2.69,-1.38,75.52,5.70
26.00,2.00,296.00,-8.50,20.56,1.12,1.94,1.06,75.52,5.70
26.00,0.00,198.75,20.88,-129.00,-1.12,-2.56,0.56,75.50,5.72
26.00,1.00,247.94,-2.94,-60.31,-0.69,2.88,-0.56,75.50,5.72
26.00,2.00,296.00,-8.56,20.56,-0.62,1.31,1.19,75.50,5.72
26.00,0.00,198.88,20.81,-129.00,-0.69,-2.69,-0.25,75.53,5.74
26.00,1.00,247.94,-2.94,-60.31,-0.69,2.31,0.00,75.53,5.74
26.00,2.00,295.94,-8.56,20.56,-1.44,0.94,1.44,75.53,5.74
26.00,0.00,199.00,20.81,-129.00,-0.31,-2.38,-0.94,75.58,5.76
26.00,1.00,247.94,-3.00,-60.31,-0.81,2.00,-0.19,75.58,5.76
26.00,2.00,295.94,-8.56,20.56,-1.25,0.94,1.44,75.58,5.76
26.00,0.00,199.06,20.75,-129.00,-0.50,-2.06,-0.56,75.57,5.78
26.00,1.00,247.88,-3.00,-60.31,-0.44,1.62,-0.31,75.57,5.78
26.00,2.00,295.94,-8.62,20.62,-0.38,0.81,1.25,75.57,5.78
26.00,0.00,199.12,20.75,-129.00,-0.88,-1.25,-0.38,75.51,5.80
26.00,1.00,247.88,-3.00,-60.31,-0.56,1.25,-0.31,75.51,5.80
26.00,2.00,295.88,-8.62,20.62,0.38,0.44,1.19,75.51,5.80
26.00,0.00,199.19,20.75,-129.00,-1.06,-1.62,0.00,75.44,5.82
26.00,1.00,247.88,-3.00,-60.31,-0.75,1.06,-0.31,75.44,5.82
26.00,2.00,295.88,-8.62,20.56,0.44,-0.12,2.00,75.44,5.82
26.00,0.00,199.25,20.69,-129.00,-0.69,-1.56,0.69,75.46,5.84
26.00,1.00,247.88,-3.00,-60.31,-1.19,1.69,-0.12,75.46,5.84
26.00,2.00,295.81,-8.69,20.56,-1.06,-0.44,2.38,75.46,5.84
26.00,0.00,199.25,20.69,-129.00,-0.50,-0.69,0.31,75.54,5.86
26.00,1.00,247.81,-3.06,-60.25,-1.50,1.75,0.19,75.54,5.86
26.00,2.00,295.81,-8.69,20.56,-2.31,-0.50,1.81,75.54,5.86
26.00,0.00,199.31,20.69,-129.00,-0.06,-0.81,0.12,75.64,5.88
26.00,1.00,247.81,-3.06,-60.25,-1.56,1.06,0.38,75.64,5.88
26.00,2.00,295.75,-8.69,20.62,-2.19,-0.50,0.69,75.64,5.88
26.00,0.00,199.31,20.69,-129.00,-0.06,-0.44,0.12,75.72,5.90
26.00,1.00,247.81,-3.06,-60.19,-1.44,0.75,-0.12,75.72,5.90
26.00,2.00,295.75,-8.69,20.69,-1.69,-0.25,0.06,75.72,5.90
26.00,0.00,199.31,20.69,-129.00,-0.12,-0.38,0.38,75.78,5.92
26.00,1.00,247.81,-3.06,-60.19,-1.56,0.44,-0.19,75.78,5.92
26.00,2.00,295.75,-8.69,20.69,-1.31,-0.19,-0.06,75.78,5.92
26.00,0.00,199.31,20.69,-129.00,-0.31,-0.50,0.56,75.83,5.94
26.00,1.00,247.81,-3.06,-60.12,-1.56,-0.56,0.44,75.83,5.94
26.00,2.00,295.75,-8.69,20.75,-1.50,-0.44,0.06,75.83,5.94
26.00,0.00,199.31,20.69,-129.00,-0.81,-0.44,0.88,75.88,5.96
26.00,1.00,247.81,-3.06,-60.12,-1.44,-1.38,-0.06,75.88,5.96
26.00,2.00,295.75,-8.69,20.75,-1.94,-0.75,-1.00,75.88,5.96
26.00,0.00,199.31,20.69,-128.94,-1.38,-0.12,0.75,75.83,5.98
26.00,1.00,247.81,-3.06,-60.06,-1.94,-1.62,-0.44,75.83,5.98
26.00,2.00,295.75,-8.62,20.81,-0.31,0.25,-1.50,75.83,5.98
26.00,0.00,199.38,20.69,-128.94,-1.19,-0.44,0.44,75.80,6.00
26.00,1.00,247.88,-3.00,-60.06,-1.94,-0.88,-0.19,75.80,6.00
26.00,2.00,295.81,-8.62,20.81,-0.50,0.12,-1.50,75.80,6.00
26.00,0.00,199.44,20.69,-128.94,-1.19,-1.31,0.50,75.81,6.02
26.00,1.00,247.88,-3.00,-60.00,-1.38,-1.19,-0.12,75.81,6.02
26.00,2.00,295.81,-8.62,20.81,-1.31,-0.31,-0.88,75.81,6.02
26.00,0.00,199.44,20.69,-128.94,-1.12,-0.62,0.75,75.79,6.04
26.00,1.00,247.88,-3.00,-60.00,-1.12,-1.12,0.19,75.79,6.04
26.00,2.00,295.81,-8.62,20.88,-0.81,0.06,-0.81,75.79,6.04
26.00,0.00,199.50,20.69,-128.88,-0.94,0.56,0.19,75.79,6.06
26.00,1.00,247.88,-3.00,-59.94,-0.75,-1.06,0.19,75.79,6.06
26.00,2.00,295.81,-8.62,20.88,-0.81,0.19,-0.69,75.79,6.06
26.00,0.00,199.50,20.69,-128.88,-0.19,-0.12,0.06,75.84,6.08
26.00,1.00,247.88,-3.00,-59.94,-1.00,-0.75,-0.19,75.84,6.08
26.00,2.00,295.81,-8.62,20.88,-1.38,0.19,-0.50,75.84,6.08
26.00,0.00,199.50,20.69,-128.88,0.25,-0.62,0.19,75.92,6.10
26.00,1.00,247.88,-3.00,-59.94,-1.00,-0.56,-0.31,75.92,6.10
26.00,2.00,295.81,-8.62,20.94,-1.31,-0.06,-0.44,75.92,6.10
26.00,0.00,199.56,20.69,-128.88,0.06,-1.19,0.25,75.96,6.12
26.00,1.00,247.88,-3.00,-59.94,-0.44,-0.44,-0.12,75.96,6.12
26.00,2.00,295.81,-8.62,20.94,-0.94,-0.38,-0.06,75.96,6.12
26.00,0.00,199.56,20.62,-128.88,0.75,-0.75,0.31,76.08,6.14
26.00,1.00,247.94,-2.94,-59.94,-0.44,-1.12,0.00,76.08,6.14
26.00,2.00,295.81,-8.62,20.94,-1.62,-0.06,0.12,76.08,6.14
26.00,0.00,199.56,20.62,-128.94,1.44,0.31,0.19,76.24,6.16
26.00,1.00,247.94,-2.94,-59.94,-0.31,-1.31,0.00,76.24,6.16
26.00,2.00,295.81,-8.62,21.00,-2.00,0.00,0.00,76.24,6.16
26.00,0.00,199.50,20.62,-128.94,1.69,0.75,-0.25,76.40,6.18
26.00,1.00,247.94,-2.94,-59.94,0.50,-1.94,0.06,76.40,6.18
26.00,2.00,295.81,-8.62,21.06,-1.75,0.19,-0.69,76.40,6.18
26.00,0.00,199.44,20.69,-128.94,2.44,1.44,-0.88,76.56,6.20
26.00,1.00,248.00,-2.94,-59.94,1.50,-3.38,-0.38,76.56,6.20
26.00,2.00,295.88,-8.62,21.19,-1.06,0.06,-1.19,76.56,6.20
26.00,0.00,199.38,20.69,-128.94,2.56,1.69,-0.56,76.72,6.22
26.00,1.00,248.00,-2.88,-59.94,1.38,-3.00,-0.44,76.72,6.22
26.00,2.00,295.88,-8.62,21.19,-0.88,-0.06,-1.81,76.72,6.22
26.00,0.00,199.25,20.69,-128.94,2.81,2.56,-0.31,76.93,6.24
26.00,1.00,248.06,-2.88,-60.00,1.38,-3.19,-0.94,76.93,6.24
26.00,2.00,295.94,-8.62,21.25,-1.50,0.25,-2.19,76.93,6.24
26.00,0.00,199.12,20.75,-128.94,2.38,3.19,-0.25,77.09,6.26
26.00,1.00,248.12,-2.81,-60.00,1.38,-4.12,-0.75,77.09,6.26
26.00,2.00,296.00,-8.62,21.31,-1.06,0.56,-3.12,77.09,6.26
