Iteration,IMUNo,OrientationX (deg),OrientationY,OrientationZ,GyroX (20rad/sec),GyroY,GyroZ,Elbow_Pos (rad),Time (sec)
32.00,0.00,241.44,5.06,-99.50,0.44,-0.12,0.06,0.01,1.02
32.00,1.00,260.75,-3.06,-63.25,-0.25,-0.31,0.25,0.01,1.02
32.00,2.00,299.62,-14.69,23.88,0.12,0.12,-0.44,0.01,1.02
32.00,0.00,241.38,5.06,-99.50,-0.12,0.69,0.81,0.01,1.04
32.00,1.00,260.75,-3.06,-63.25,-0.56,-0.06,-0.19,0.01,1.04
32.00,2.00,299.62,-14.69,23.88,0.00,-0.06,0.00,0.01,1.04
32.00,0.00,241.31,5.12,-99.50,-0.25,1.56,0.62,0.03,1.06
32.00,1.00,260.75,-3.06,-63.25,-0.31,0.06,0.06,0.03,1.06
32.00,2.00,299.62,-14.69,23.88,-0.81,-0.44,0.94,0.03,1.06
32.00,0.00,241.31,5.12,-99.50,-0.69,1.12,0.25,0.05,1.08
32.00,1.00,260.75,-3.06,-63.25,0.00,0.62,0.25,0.05,1.08
32.00,2.00,299.56,-14.69,23.94,-1.06,-0.44,1.12,0.05,1.08
32.00,0.00,241.31,5.12,-99.50,-0.50,0.75,-0.06,0.07,1.10
32.00,1.00,260.75,-3.06,-63.25,0.06,0.62,0.50,0.07,1.10
32.00,2.00,299.56,-14.69,23.94,-0.88,-0.50,0.75,0.07,1.10
32.00,0.00,241.31,5.12,-99.50,-0.25,-0.25,-0.06,0.07,1.12
32.00,1.00,260.75,-3.06,-63.25,0.00,0.62,0.44,0.07,1.12
32.00,2.00,299.56,-14.69,23.94,-0.25,0.19,0.31,0.07,1.12
32.00,0.00,241.31,5.12,-99.50,-0.06,-0.62,0.00,0.07,1.14
32.00,1.00,260.75,-3.06,-63.25,0.19,0.75,0.06,0.07,1.14
32.00,2.00,299.56,-14.69,23.94,-0.12,-0.12,0.00,0.07,1.14
32.00,0.00,241.31,5.12,-99.50,-0.31,-0.56,-0.44,0.04,1.16
32.00,1.00,260.75,-3.06,-63.25,0.25,-0.25,0.00,0.04,1.16
32.00,2.00,299.56,-14.69,23.94,0.31,0.12,0.00,0.04,1.16
32.00,0.00,241.31,5.12,-99.50,-0.44,-0.12,-0.25,0.01,1.18
32.00,1.00,260.75,-3.06,-63.25,0.19,-0.12,-0.12,0.01,1.18
32.00,2.00,299.56,-14.69,23.94,0.25,0.25,0.00,0.01,1.18
32.00,0.00,241.31,5.12,-99.50,-0.06,0.06,-0.25,0.02,1.20
32.00,1.00,260.75,-3.06,-63.25,0.31,0.12,-0.38,0.02,1.20
32.00,2.00,299.56,-14.69,23.94,-0.19,0.19,0.25,0.02,1.20
32.00,0.00,241.31,5.12,-99.50,0.44,-0.25,-0.12,0.04,1.22
32.00,1.00,260.75,-3.06,-63.25,0.19,0.00,-0.25,0.04,1.22
32.00,2.00,299.56,-14.69,23.94,-0.12,0.44,-0.19,0.04,1.22
32.00,0.00,241.31,5.12,-99.50,0.12,-0.25,0.06,0.03,1.24
32.00,1.00,260.75,-3.06,-63.25,0.44,-0.44,-0.19,0.03,1.24
32.00,2.00,299.56,-14.69,23.94,0.38,0.44,-0.31,0.03,1.24
32.00,0.00,241.31,5.12,-99.50,-0.25,0.25,-0.25,0.00,1.26
32.00,1.00,260.75,-3.06,-63.25,0.06,-0.38,-0.31,0.00,1.26
32.00,2.00,299.56,-14.69,23.94,0.44,0.06,-0.19,0.00,1.26
32.00,0.00,241.31,5.12,-99.44,-0.62,-0.31,-0.12,-0.04,1.28
32.00,1.00,260.75,-3.06,-63.25,0.31,-0.06,-0.31,-0.04,1.28
32.00,2.00,299.56,-14.69,23.94,0.19,-0.25,0.06,-0.04,1.28
32.00,0.00,241.31,5.12,-99.44,-0.19,-1.00,-0.19,-0.02,1.30
32.00,1.00,260.75,-3.06,-63.25,0.31,0.50,-0.06,-0.02,1.30
32.00,2.00,299.56,-14.69,23.94,-0.50,0.06,0.44,-0.02,1.30
32.00,0.00,241.38,5.06,-99.50,-0.12,-1.19,-0.31,-0.01,1.32
32.00,1.00,260.75,-3.06,-63.25,0.38,0.31,0.12,-0.01,1.32
32.00,2.00,299.56,-14.69,23.94,-0.44,0.19,0.12,-0.01,1.32
32.00,0.00,241.38,5.06,-99.50,0.06,-0.75,-0.25,-0.02,1.34
32.00,1.00,260.75,-3.06,-63.25,0.25,-0.12,-0.12,-0.02,1.34
32.00,2.00,299.56,-14.69,23.94,0.31,0.06,-0.12,-0.02,1.34
32.00,0.00,241.38,5.06,-99.50,-0.12,-0.19,-0.25,-0.05,1.36
32.00,1.00,260.75,-3.06,-63.25,0.62,-0.25,-0.19,-0.05,1.36
32.00,2.00,299.56,-14.69,23.94,0.56,0.19,-0.31,-0.05,1.36
32.00,0.00,241.38,5.06,-99.50,0.06,0.00,0.00,-0.07,1.38
32.00,1.00,260.75,-3.06,-63.25,0.38,-0.31,-0.31,-0.07,1.38
32.00,2.00,299.56,-14.69,23.94,0.56,-0.12,-0.12,-0.07,1.38
32.00,0.00,241.38,5.06,-99.50,-0.06,0.25,0.00,-0.08,1.40
32.00,1.00,260.75,-3.06,-63.25,0.19,0.06,-0.19,-0.08,1.40
32.00,2.00,299.56,-14.69,23.94,0.25,0.31,0.12,-0.08,1.40
32.00,0.00,241.38,5.06,-99.50,0.12,-0.19,0.06,-0.06,1.42
32.00,1.00,260.75,-3.06,-63.25,0.19,0.12,0.00,-0.06,1.42
32.00,2.00,299.56,-14.69,23.94,-0.44,0.12,0.19,-0.06,1.42
32.00,0.00,241.38,5.06,-99.50,0.25,-0.31,0.00,-0.05,1.44
32.00,1.00,260.75,-3.06,-63.25,0.19,0.06,0.00,-0.05,1.44
32.00,2.00,299.56,-14.69,23.94,-0.06,-0.19,-0.12,-0.05,1.44
32.00,0.00,241.38,5.06,-99.50,-0.06,-0.56,-0.25,-0.05,1.46
32.00,1.00,260.75,-3.06,-63.25,0.06,0.44,-0.19,-0.05,1.46
32.00,2.00,299.56,-14.69,23.94,0.06,-0.25,-0.25,-0.05,1.46
32.00,0.00,241.38,5.06,-99.50,-0.38,0.19,-0.25,-0.07,1.48
32.00,1.00,260.75,-3.06,-63.25,0.06,0.25,0.12,-0.07,1.48
32.00,2.00,299.56,-14.69,23.94,0.12,-0.06,0.31,-0.07,1.48
32.00,0.00,241.38,5.06,-99.50,-0.25,0.75,0.38,-0.06,1.50
32.00,1.00,260.75,-3.06,-63.25,-0.50,-0.25,0.06,-0.06,1.50
32.00,2.00,299.56,-14.69,23.94,-0.56,-0.12,0.44,-0.06,1.50
32.00,0.00,241.38,5.06,-99.50,0.00,0.69,0.44,-0.01,1.52
32.00,1.00,260.75,-3.06,-63.25,-0.25,0.12,-0.44,-0.01,1.52
32.00,2.00,299.56,-14.69,23.94,-1.12,0.06,0.25,-0.01,1.52
32.00,0.00,241.38,5.12,-99.50,0.06,0.25,0.56,0.02,1.54
32.00,1.00,260.75,-3.06,-63.25,-0.06,0.50,-0.31,0.02,1.54
32.00,2.00,299.56,-14.69,23.94,-0.69,0.31,0.06,0.02,1.54
32.00,0.00,241.38,5.12,-99.50,-0.38,-0.12,0.25,0.00,1.56
32.00,1.00,260.69,-3.06,-63.25,-0.31,0.50,-0.19,0.00,1.56
32.00,2.00,299.56,-14.69,23.94,0.06,-0.38,-0.19,0.00,1.56
32.00,0.00,241.38,5.12,-99.50,-0.56,-0.88,-0.44,-0.03,1.58
32.00,1.00,260.69,-3.06,-63.25,-0.38,-0.06,0.12,-0.03,1.58
32.00,2.00,299.56,-14.69,23.94,0.12,-0.56,-0.12,-0.03,1.58
32.00,0.00,241.38,5.06,-99.50,0.25,-0.62,-0.75,-0.03,1.60
32.00,1.00,260.69,-3.06,-63.25,0.38,-0.06,0.00,-0.03,1.60
32.00,2.00,299.56,-14.69,23.94,0.38,0.00,0.25,-0.03,1.60
32.00,0.00,241.38,5.06,-99.50,0.69,-0.06,-0.44,-0.01,1.62
32.00,1.00,260.69,-3.06,-63.25,0.56,-0.25,0.12,-0.01,1.62
32.00,2.00,299.56,-14.69,23.94,0.06,0.31,-0.06,-0.01,1.62
32.00,0.00,241.38,5.06,-99.50,1.19,0.06,0.19,0.03,1.64
32.00,1.00,260.69,-3.06,-63.25,0.12,-0.19,-0.38,0.03,1.64
32.00,2.00,299.56,-14.69,23.94,0.38,0.56,-0.31,0.03,1.64
32.00,0.00,241.38,5.06,-99.50,0.94,0.25,0.56,0.05,1.66
32.00,1.00,260.75,-3.06,-63.25,-0.12,-0.12,-0.69,0.05,1.66
32.00,2.00,299.56,-14.69,23.94,0.38,0.38,-0.19,0.05,1.66
32.00,0.00,241.38,5.06,-99.50,0.56,0.88,0.81,0.07,1.68
32.00,1.00,260.75,-3.06,-63.25,-0.06,0.12,-0.69,0.07,1.68
32.00,2.00,299.56,-14.69,23.94,0.19,-0.06,0.19,0.07,1.68
32.00,0.00,241.38,5.12,-99.50,0.06,0.94,0.62,0.08,1.70
32.00,1.00,260.75,-3.12,-63.25,0.00,0.38,-0.25,0.08,1.70
32.00,2.00,299.56,-14.69,23.94,-0.25,0.06,0.81,0.08,1.70
32.00,0.00,241.31,5.12,-99.50,-0.12,0.62,0.12,0.09,1.72
32.00,1.00,260.75,-3.12,-63.25,-0.12,0.44,0.00,0.09,1.72
32.00,2.00,299.50,-14.69,23.94,-0.19,-0.12,0.94,0.09,1.72
32.00,0.00,241.31,5.12,-99.50,-0.25,0.12,0.00,0.09,1.74
32.00,1.00,260.75,-3.12,-63.25,0.19,0.88,0.19,0.09,1.74
32.00,2.00,299.50,-14.69,23.94,-0.31,0.12,0.88,0.09,1.74
32.00,0.00,241.31,5.12,-99.50,-0.19,-0.25,-0.12,0.11,1.76
32.00,1.00,260.75,-3.12,-63.25,0.00,0.56,-0.12,0.11,1.76
32.00,2.00,299.50,-14.69,23.94,-0.56,0.19,0.62,0.11,1.76
32.00,0.00,241.31,5.12,-99.50,0.12,-0.69,0.25,0.13,1.78
32.00,1.00,260.75,-3.12,-63.25,0.25,0.62,-0.38,0.13,1.78
32.00,2.00,299.50,-14.69,23.94,-0.31,-0.19,0.69,0.13,1.78
32.00,0.00,241.31,5.12,-99.50,0.12,-0.56,0.19,0.11,1.80
32.00,1.00,260.75,-3.12,-63.25,0.19,0.00,-0.44,0.11,1.80
32.00,2.00,299.50,-14.69,23.94,0.44,0.88,0.69,0.11,1.80
32.00,0.00,241.31,5.12,-99.50,0.50,-0.31,0.00,0.13,1.82
32.00,1.00,260.75,-3.12,-63.25,0.25,0.00,-0.62,0.13,1.82
32.00,2.00,299.50,-14.75,23.94,0.00,1.25,0.62,0.13,1.82
32.00,0.00,241.31,5.12,-99.56,0.88,-0.44,-0.25,0.16,1.84
32.00,1.00,260.75,-3.12,-63.25,0.31,0.25,-0.50,0.16,1.84
32.00,2.00,299.44,-14.75,23.94,0.19,1.00,0.75,0.16,1.84
32.00,0.00,241.31,5.12,-99.56,1.62,-0.75,-0.12,0.22,1.86
32.00,1.00,260.75,-3.12,-63.25,0.25,0.19,-0.62,0.22,1.86
32.00,2.00,299.44,-14.81,23.94,0.44,0.81,0.62,0.22,1.86
32.00,0.00,241.38,5.12,-99.62,1.81,-1.81,0.38,0.25,1.88
32.00,1.00,260.75,-3.12,-63.25,0.25,0.44,-0.75,0.25,1.88
32.00,2.00,299.44,-14.81,23.94,1.12,0.81,0.56,0.25,1.88
32.00,0.00,241.38,5.06,-99.62,1.69,-1.38,0.50,0.30,1.90
32.00,1.00,260.75,-3.12,-63.25,0.25,0.56,-0.44,0.30,1.90
32.00,2.00,299.44,-14.81,23.94,0.44,0.75,0.94,0.30,1.90
32.00,0.00,241.38,5.12,-99.69,2.00,0.00,1.00,0.40,1.92
32.00,1.00,260.75,-3.12,-63.25,-0.06,0.44,-0.50,0.40,1.92
32.00,2.00,299.44,-14.81,23.88,-0.19,0.12,1.94,0.40,1.92
32.00,0.00,241.31,5.12,-99.69,2.12,1.38,1.75,0.52,1.94
32.00,1.00,260.75,-3.12,-63.25,0.12,0.62,-0.44,0.52,1.94
32.00,2.00,299.38,-14.88,23.88,-0.69,-0.88,2.50,0.52,1.94
32.00,0.00,241.25,5.19,-99.75,2.50,2.25,2.56,0.66,1.96
32.00,1.00,260.75,-3.19,-63.25,0.31,0.69,-0.44,0.66,1.96
32.00,2.00,299.31,-14.88,23.88,-0.75,-0.81,2.38,0.66,1.96
32.00,0.00,241.12,5.25,-99.81,3.31,2.19,3.06,0.82,1.98
32.00,1.00,260.75,-3.19,-63.25,0.25,0.88,-0.31,0.82,1.98
32.00,2.00,299.25,-14.88,23.88,-0.31,-0.44,2.06,0.82,1.98
32.00,0.00,241.00,5.31,-99.88,4.56,2.31,3.38,1.02,2.00
32.00,1.00,260.75,-3.19,-63.25,0.44,0.94,-0.25,1.02,2.00
32.00,2.00,299.25,-14.88,23.88,0.12,0.00,2.25,1.02,2.00
32.00,0.00,240.88,5.38,-100.00,5.19,2.19,3.31,1.23,2.02
32.00,1.00,260.69,-3.19,-63.25,0.12,0.88,-0.31,1.23,2.02
32.00,2.00,299.19,-14.88,23.88,0.25,-0.06,2.31,1.23,2.02
32.00,0.00,240.75,5.50,-100.06,5.88,2.00,3.06,1.49,2.04
32.00,1.00,260.69,-3.19,-63.25,-0.19,1.25,-0.31,1.49,2.04
32.00,2.00,299.12,-14.94,23.88,0.12,-0.12,2.50,1.49,2.04
32.00,0.00,240.62,5.56,-100.19,6.50,2.38,3.06,1.79,2.06
32.00,1.00,260.69,-3.19,-63.25,0.06,1.06,-0.12,1.79,2.06
32.00,2.00,299.06,-14.94,23.81,-0.44,0.00,2.94,1.79,2.06
32.00,0.00,240.44,5.62,-100.31,7.25,3.44,2.94,2.14,2.08
32.00,1.00,260.69,-3.19,-63.31,0.19,1.00,-0.31,2.14,2.08
32.00,2.00,299.00,-15.00,23.81,-0.81,-0.12,3.38,2.14,2.08
32.00,0.00,240.25,5.69,-100.50,8.31,4.56,3.25,2.50,2.10
32.00,1.00,260.69,-3.19,-63.31,0.31,1.50,-0.44,2.50,2.10
32.00,2.00,298.94,-15.00,23.81,0.06,0.38,3.00,2.50,2.10
32.00,0.00,240.06,5.75,-100.69,9.56,5.19,3.62,2.90,2.12
32.00,1.00,260.62,-3.25,-63.31,0.31,1.88,-0.50,2.90,2.12
32.00,2.00,298.88,-15.00,23.81,0.50,0.50,3.56,2.90,2.12
32.00,0.00,239.88,5.88,-100.88,11.56,4.31,4.88,3.41,2.14
32.00,1.00,260.62,-3.25,-63.31,-0.25,1.12,-0.44,3.41,2.14
32.00,2.00,298.81,-15.06,23.81,0.06,0.19,3.81,3.41,2.14
32.00,0.00,239.62,6.00,-101.06,11.31,4.75,4.31,3.92,2.16
32.00,1.00,260.62,-3.25,-63.31,0.69,0.75,-0.69,3.92,2.16
32.00,2.00,298.75,-15.06,23.75,-0.50,0.88,3.38,3.92,2.16
32.00,0.00,239.44,6.06,-101.31,11.50,4.62,3.25,4.46,2.18
32.00,1.00,260.62,-3.31,-63.31,-0.19,1.62,-1.38,4.46,2.18
32.00,2.00,298.69,-15.12,23.75,-0.81,0.50,3.44,4.46,2.18
32.00,0.00,239.25,6.12,-101.50,11.94,3.56,3.56,4.95,2.20
32.00,1.00,260.62,-3.31,-63.31,-0.25,1.62,-1.19,4.95,2.20
32.00,2.00,298.62,-15.12,23.75,0.88,0.25,2.88,4.95,2.20
32.00,0.00,239.00,6.25,-101.75,12.06,3.75,4.44,5.44,2.22
32.00,1.00,260.62,-3.38,-63.31,-0.38,1.12,-0.81,5.44,2.22
32.00,2.00,298.56,-15.12,23.75,0.88,-0.94,3.44,5.44,2.22
32.00,0.00,238.81,6.31,-102.00,12.69,3.25,4.62,5.96,2.24
32.00,1.00,260.62,-3.38,-63.31,0.38,1.38,-0.81,5.96,2.24
32.00,2.00,298.50,-15.19,23.69,0.81,-0.69,3.31,5.96,2.24
32.00,0.00,238.62,6.44,-102.25,13.12,2.94,5.25,6.49,2.26
32.00,1.00,260.62,-3.38,-63.31,0.75,1.81,-0.50,6.49,2.26
32.00,2.00,298.44,-15.19,23.62,0.94,0.31,3.38,6.49,2.26
32.00,0.00,238.44,6.56,-102.50,13.69,2.56,5.00,7.04,2.28
32.00,1.00,260.56,-3.44,-63.31,0.12,1.81,-0.50,7.04,2.28
32.00,2.00,298.38,-15.19,23.62,1.25,0.06,3.81,7.04,2.28
32.00,0.00,238.25,6.69,-102.75,14.69,0.81,5.19,7.57,2.30
32.00,1.00,260.56,-3.44,-63.31,-0.19,1.94,-0.69,7.57,2.30
32.00,2.00,298.31,-15.25,23.56,2.56,0.12,3.25,7.57,2.30
32.00,0.00,238.06,6.75,-103.06,13.69,1.19,4.12,8.05,2.32
32.00,1.00,260.56,-3.50,-63.31,0.00,2.31,-0.62,8.05,2.32
32.00,2.00,298.25,-15.25,23.50,2.88,-0.50,2.88,8.05,2.32
32.00,0.00,237.94,6.81,-103.31,14.81,-0.25,4.44,8.59,2.34
32.00,1.00,260.56,-3.50,-63.31,0.06,1.62,-0.38,8.59,2.34
32.00,2.00,298.25,-15.25,23.44,2.50,-0.81,2.19,8.59,2.34
32.00,0.00,237.81,6.94,-103.62,15.06,-0.44,5.50,9.11,2.36
32.00,1.00,260.56,-3.50,-63.31,0.06,1.25,-0.25,9.11,2.36
32.00,2.00,298.19,-15.31,23.38,3.00,-0.50,1.81,9.11,2.36
32.00,0.00,237.69,7.00,-103.94,15.12,0.19,5.75,9.65,2.38
32.00,1.00,260.50,-3.50,-63.31,0.44,0.88,-0.19,9.65,2.38
32.00,2.00,298.19,-15.31,23.31,3.00,-0.81,2.19,9.65,2.38
32.00,0.00,237.50,7.12,-104.19,13.69,2.19,5.75,10.14,2.40
32.00,1.00,260.50,-3.50,-63.31,0.56,1.12,-0.44,10.14,2.40
32.00,2.00,298.12,-15.31,23.19,2.50,-1.38,3.12,10.14,2.40
32.00,0.00,237.25,7.25,-104.44,12.88,2.69,5.12,10.63,2.42
32.00,1.00,260.50,-3.56,-63.31,0.50,1.19,-0.12,10.63,2.42
32.00,2.00,298.06,-15.31,23.12,1.69,-1.50,3.44,10.63,2.42
32.00,0.00,237.06,7.38,-104.75,15.06,2.12,7.44,11.25,2.44
32.00,1.00,260.50,-3.56,-63.31,0.38,0.75,-0.25,11.25,2.44
32.00,2.00,297.94,-15.31,23.12,0.88,-2.31,3.62,11.25,2.44
32.00,0.00,236.75,7.56,-105.00,14.38,2.50,7.88,11.82,2.46
32.00,1.00,260.50,-3.56,-63.31,0.50,0.75,-0.31,11.82,2.46
32.00,2.00,297.88,-15.25,23.06,1.38,-2.31,3.50,11.82,2.46
32.00,0.00,236.50,7.69,-105.25,13.50,2.94,7.56,12.38,2.48
32.00,1.00,260.44,-3.56,-63.38,0.50,0.94,-0.31,12.38,2.48
32.00,2.00,297.81,-15.25,23.00,0.69,-3.06,3.25,12.38,2.48
32.00,0.00,236.25,7.88,-105.50,13.12,2.44,7.94,12.87,2.50
32.00,1.00,260.44,-3.56,-63.38,0.38,0.75,-0.25,12.87,2.50
32.00,2.00,297.75,-15.19,23.00,2.00,-3.81,2.81,12.87,2.50
32.00,0.00,236.00,8.06,-105.81,14.00,1.44,8.75,13.27,2.52
32.00,1.00,260.44,-3.56,-63.38,0.75,0.50,-0.31,13.27,2.52
32.00,2.00,297.69,-15.12,22.88,4.75,-3.94,2.62,13.27,2.52
32.00,0.00,235.69,8.25,-106.06,15.75,1.38,10.44,13.80,2.54
32.00,1.00,260.44,-3.56,-63.38,0.81,0.50,-0.62,13.80,2.54
32.00,2.00,297.62,-15.06,22.75,3.75,-5.88,4.00,13.80,2.54
32.00,0.00,235.38,8.44,-106.44,16.50,2.44,11.19,14.43,2.56
32.00,1.00,260.44,-3.62,-63.38,0.88,0.94,-0.94,14.43,2.56
32.00,2.00,297.50,-15.00,22.69,2.12,-7.94,5.06,14.43,2.56
32.00,0.00,235.00,8.69,-106.75,16.94,3.88,11.19,15.11,2.58
32.00,1.00,260.44,-3.62,-63.38,0.69,1.44,-0.75,15.11,2.58
32.00,2.00,297.38,-14.94,22.62,1.56,-6.69,4.69,15.11,2.58
32.00,0.00,234.56,8.88,-107.06,16.56,4.62,10.56,15.78,2.60
32.00,1.00,260.44,-3.62,-63.38,0.62,1.62,-0.38,15.78,2.60
32.00,2.00,297.25,-14.88,22.56,1.25,-5.44,4.56,15.78,2.60
32.00,0.00,234.19,9.12,-107.44,19.75,3.19,11.94,16.54,2.62
32.00,1.00,260.44,-3.69,-63.38,0.44,1.56,-0.69,16.54,2.62
32.00,2.00,297.19,-14.81,22.50,2.44,-3.94,4.19,16.54,2.62
32.00,0.00,233.81,9.38,-107.88,21.62,0.38,13.31,17.42,2.64
32.00,1.00,260.44,-3.69,-63.38,0.44,1.88,-0.81,17.42,2.64
32.00,2.00,297.06,-14.81,22.44,1.56,-2.06,4.38,17.42,2.64
32.00,0.00,233.50,9.56,-108.25,20.62,-0.25,11.44,18.41,2.66
32.00,1.00,260.44,-3.75,-63.38,0.44,2.31,-0.94,18.41,2.66
32.00,2.00,296.94,-14.75,22.44,-1.94,-3.31,5.25,18.41,2.66
32.00,0.00,233.25,9.75,-108.69,20.44,-0.69,10.06,19.38,2.68
32.00,1.00,260.44,-3.75,-63.44,0.38,1.62,-0.75,19.38,2.68
32.00,2.00,296.81,-14.75,22.44,-1.75,-3.50,5.25,19.38,2.68
32.00,0.00,233.00,9.94,-109.12,20.81,-0.81,9.31,20.26,2.70
32.00,1.00,260.44,-3.81,-63.44,0.25,1.44,-0.69,20.26,2.70
32.00,2.00,296.75,-14.75,22.38,0.69,-1.94,4.62,20.26,2.70
32.00,0.00,232.75,10.06,-109.50,20.88,-1.25,8.25,21.12,2.72
32.00,1.00,260.44,-3.81,-63.44,0.19,1.69,-0.75,21.12,2.72
32.00,2.00,296.62,-14.75,22.31,1.38,-2.81,4.88,21.12,2.72
32.00,0.00,232.50,10.19,-109.94,21.50,-1.56,8.81,22.05,2.74
32.00,1.00,260.38,-3.81,-63.44,0.25,1.56,-0.25,22.05,2.74
32.00,2.00,296.50,-14.75,22.31,0.19,-4.06,5.81,22.05,2.74
32.00,0.00,232.25,10.38,-110.38,21.69,-0.94,8.62,22.98,2.76
32.00,1.00,260.38,-3.88,-63.44,0.19,1.88,-0.62,22.98,2.76
32.00,2.00,296.38,-14.69,22.25,0.56,-3.75,5.81,22.98,2.76
32.00,0.00,232.06,10.50,-110.81,21.38,-0.25,6.81,23.83,2.78
32.00,1.00,260.38,-3.88,-63.44,0.31,2.06,-0.38,23.83,2.78
32.00,2.00,296.25,-14.69,22.19,1.94,-3.69,5.88,23.83,2.78
32.00,0.00,231.88,10.50,-111.19,20.38,0.06,4.56,24.69,2.80
32.00,1.00,260.31,-3.88,-63.44,0.44,1.06,-0.25,24.69,2.80
32.00,2.00,296.12,-14.69,22.12,0.62,-3.56,6.00,24.69,2.80
32.00,0.00,231.75,10.56,-111.62,21.62,-1.06,4.31,25.74,2.82
32.00,1.00,260.31,-3.88,-63.44,0.94,0.50,0.00,25.74,2.82
32.00,2.00,296.00,-14.62,22.12,-2.12,-4.06,6.00,25.74,2.82
32.00,0.00,231.62,10.62,-112.06,22.50,-1.75,3.00,26.76,2.84
32.00,1.00,260.31,-3.88,-63.44,0.56,0.12,0.00,26.76,2.84
32.00,2.00,295.88,-14.62,22.12,-0.75,-3.69,5.62,26.76,2.84
32.00,0.00,231.50,10.62,-112.50,22.88,-1.75,1.56,27.78,2.86
32.00,1.00,260.31,-3.88,-63.44,0.06,0.94,0.00,27.78,2.86
32.00,2.00,295.75,-14.56,22.12,-0.56,-2.88,5.25,27.78,2.86
32.00,0.00,231.44,10.62,-112.88,21.88,-0.62,-0.38,28.77,2.88
32.00,1.00,260.31,-3.88,-63.44,0.12,0.31,-0.06,28.77,2.88
32.00,2.00,295.62,-14.56,22.12,-0.62,-2.81,5.31,28.77,2.88
32.00,0.00,231.38,10.56,-113.31,21.56,-0.44,-1.38,29.67,2.90
32.00,1.00,260.31,-3.88,-63.44,0.56,0.56,-0.19,29.67,2.90
32.00,2.00,295.56,-14.56,22.06,1.00,-1.50,4.56,29.67,2.90
32.00,0.00,231.25,10.56,-113.69,20.69,0.75,-2.12,30.54,2.92
32.00,1.00,260.31,-3.88,-63.44,1.06,1.06,-0.44,30.54,2.92
32.00,2.00,295.44,-14.62,22.00,0.81,-0.94,5.06,30.54,2.92
32.00,0.00,231.19,10.50,-114.12,21.31,0.50,-1.25,31.47,2.94
32.00,1.00,260.31,-3.88,-63.50,0.81,1.12,0.00,31.47,2.94
32.00,2.00,295.31,-14.62,22.00,0.19,-1.69,5.88,31.47,2.94
32.00,0.00,231.00,10.50,-114.50,20.81,1.56,0.06,32.40,2.96
32.00,1.00,260.31,-3.94,-63.50,0.31,1.69,-0.12,32.40,2.96
32.00,2.00,295.19,-14.62,21.94,-0.31,-2.12,5.81,32.40,2.96
32.00,0.00,230.81,10.56,-114.81,17.94,3.25,-0.75,33.22,2.98
32.00,1.00,260.25,-3.94,-63.50,0.88,1.62,-0.44,33.22,2.98
32.00,2.00,295.06,-14.62,21.94,-0.94,-2.19,5.62,33.22,2.98
32.00,0.00,230.62,10.56,-115.12,16.88,3.62,-0.81,34.05,3.00
32.00,1.00,260.25,-3.94,-63.50,0.62,2.06,-0.50,34.05,3.00
32.00,2.00,294.94,-14.62,21.94,-1.94,-2.81,5.88,34.05,3.00
32.00,0.00,230.38,10.62,-115.44,17.69,3.62,0.88,34.86,3.02
32.00,1.00,260.25,-3.94,-63.50,0.00,2.06,-0.31,34.86,3.02
32.00,2.00,294.81,-14.62,21.94,-0.88,-2.44,5.25,34.86,3.02
32.00,0.00,230.12,10.69,-115.81,18.38,3.00,2.50,35.71,3.04
32.00,1.00,260.19,-4.00,-63.50,0.25,2.19,-0.25,35.71,3.04
32.00,2.00,294.69,-14.62,21.94,-0.88,-3.25,5.56,35.71,3.04
32.00,0.00,229.81,10.75,-116.12,17.31,3.50,2.94,36.46,3.06
32.00,1.00,260.19,-4.00,-63.50,0.69,2.44,-0.06,36.46,3.06
32.00,2.00,294.56,-14.56,21.88,0.12,-3.81,5.81,36.46,3.06
32.00,0.00,229.50,10.88,-116.44,16.81,3.56,3.75,37.21,3.08
32.00,1.00,260.12,-4.00,-63.56,0.88,2.56,-0.25,37.21,3.08
32.00,2.00,294.50,-14.56,21.88,-0.38,-4.06,5.00,37.21,3.08
32.00,0.00,229.19,11.00,-116.69,16.38,4.50,4.31,37.91,3.10
32.00,1.00,260.12,-4.06,-63.56,0.69,1.50,-0.19,37.91,3.10
32.00,2.00,294.38,-14.50,21.88,0.50,-4.12,3.62,37.91,3.10
32.00,0.00,228.81,11.12,-117.00,15.69,5.56,4.31,38.55,3.12
32.00,1.00,260.12,-4.06,-63.56,0.56,1.69,-0.44,38.55,3.12
32.00,2.00,294.31,-14.44,21.81,1.12,-4.00,3.31,38.55,3.12
32.00,0.00,228.69,11.19,-117.12,15.44,5.38,4.12,39.18,3.14
32.00,1.00,260.06,-4.06,-63.56,0.56,1.69,-0.44,39.18,3.14
32.00,2.00,294.25,-14.44,21.75,0.94,-3.94,3.06,39.18,3.14
32.00,0.00,228.31,11.31,-117.44,15.88,4.19,5.25,39.85,3.16
32.00,1.00,260.06,-4.06,-63.56,0.00,1.50,-0.31,39.85,3.16
32.00,2.00,294.12,-14.38,21.75,0.75,-4.06,3.38,39.85,3.16
32.00,0.00,228.00,11.44,-117.69,14.94,3.31,5.56,40.45,3.18
32.00,1.00,260.06,-4.12,-63.56,0.06,1.31,0.06,40.45,3.18
32.00,2.00,294.06,-14.31,21.69,1.19,-4.56,3.12,40.45,3.18
32.00,0.00,227.69,11.50,-117.94,12.81,3.56,4.06,40.93,3.20
32.00,1.00,260.06,-4.12,-63.56,0.94,1.44,0.12,40.93,3.20
32.00,2.00,294.00,-14.25,21.62,1.88,-4.81,3.12,40.93,3.20
32.00,0.00,227.44,11.62,-118.19,13.75,1.19,4.00,41.50,3.22
32.00,1.00,260.00,-4.12,-63.56,-0.25,1.56,0.31,41.50,3.22
32.00,2.00,293.94,-14.19,21.62,0.81,-3.81,3.56,41.50,3.22
32.00,0.00,227.25,11.69,-118.50,15.31,-1.00,6.19,42.18,3.24
32.00,1.00,260.00,-4.12,-63.56,-0.25,2.00,0.75,42.18,3.24
32.00,2.00,293.81,-14.19,21.56,-0.19,-4.19,3.75,42.18,3.24
32.00,0.00,227.06,11.75,-118.75,13.56,0.06,5.56,42.76,3.26
32.00,1.00,259.94,-4.12,-63.56,-0.50,1.56,1.12,42.76,3.26
32.00,2.00,293.75,-14.12,21.56,0.25,-4.81,3.94,42.76,3.26
32.00,0.00,226.88,11.88,-119.06,11.75,2.12,4.12,43.21,3.28
32.00,1.00,259.94,-4.12,-63.56,-0.06,1.25,0.75,43.21,3.28
32.00,2.00,293.62,-14.06,21.50,1.38,-4.44,3.50,43.21,3.28
32.00,0.00,226.62,11.94,-119.25,12.06,2.56,4.00,43.71,3.30
32.00,1.00,259.88,-4.12,-63.56,-0.38,1.69,0.69,43.71,3.30
32.00,2.00,293.56,-14.00,21.44,0.81,-4.06,3.88,43.71,3.30
32.00,0.00,226.31,12.06,-119.50,13.56,2.56,6.44,44.29,3.32
32.00,1.00,259.81,-4.12,-63.56,-0.88,1.88,0.94,44.29,3.32
32.00,2.00,293.44,-13.94,21.44,0.25,-4.88,4.62,44.29,3.32
32.00,0.00,226.00,12.19,-119.81,13.75,4.38,6.62,44.86,3.34
32.00,1.00,259.81,-4.12,-63.56,-0.50,2.25,0.38,44.86,3.34
32.00,2.00,293.38,-13.88,21.38,0.69,-5.38,4.50,44.86,3.34
32.00,0.00,225.56,12.38,-120.06,13.81,5.00,6.62,45.43,3.36
32.00,1.00,259.75,-4.12,-63.56,-0.38,2.56,0.31,45.43,3.36
32.00,2.00,293.25,-13.81,21.31,0.94,-5.00,4.12,45.43,3.36
32.00,0.00,225.19,12.56,-120.31,15.19,4.06,7.75,46.03,3.38
32.00,1.00,259.75,-4.19,-63.56,-0.88,2.56,0.62,46.03,3.38
32.00,2.00,293.19,-13.75,21.31,1.44,-4.88,3.88,46.03,3.38
32.00,0.00,224.75,12.69,-120.62,16.00,3.44,8.56,46.70,3.40
32.00,1.00,259.69,-4.19,-63.56,-0.62,3.25,0.81,46.70,3.40
32.00,2.00,293.06,-13.69,21.25,0.81,-5.31,4.44,46.70,3.40
32.00,0.00,224.38,12.88,-120.94,13.25,4.62,6.75,47.26,3.42
32.00,1.00,259.62,-4.19,-63.56,-0.50,2.62,1.19,47.26,3.42
32.00,2.00,292.94,-13.62,21.19,0.50,-5.88,4.75,47.26,3.42
32.00,0.00,224.00,13.00,-121.19,14.31,2.06,6.06,47.86,3.44
32.00,1.00,259.56,-4.19,-63.56,-1.12,1.44,1.19,47.86,3.44
32.00,2.00,292.88,-13.56,21.19,0.62,-4.38,4.31,47.86,3.44
32.00,0.00,223.69,13.12,-121.44,15.25,0.62,7.06,48.51,3.46
32.00,1.00,259.56,-4.19,-63.50,-1.25,3.00,1.00,48.51,3.46
32.00,2.00,292.75,-13.56,21.12,0.44,-3.62,4.44,48.51,3.46
32.00,0.00,223.44,13.25,-121.81,16.62,-0.38,7.88,49.18,3.48
32.00,1.00,259.50,-4.19,-63.50,-1.19,3.50,0.81,49.18,3.48
32.00,2.00,292.69,-13.50,21.12,1.25,-3.31,3.88,49.18,3.48
32.00,0.00,223.12,13.38,-122.12,14.44,0.31,6.00,49.74,3.50
32.00,1.00,259.44,-4.25,-63.50,-1.25,3.25,0.62,49.74,3.50
32.00,2.00,292.56,-13.44,21.06,1.62,-4.12,4.00,49.74,3.50
32.00,0.00,222.94,13.44,-122.38,11.50,0.56,2.81,50.16,3.52
32.00,1.00,259.38,-4.25,-63.50,-1.00,2.38,0.88,50.16,3.52
32.00,2.00,292.50,-13.44,21.00,2.00,-3.75,4.31,50.16,3.52
32.00,0.00,222.81,13.44,-122.56,12.44,-1.62,3.25,50.65,3.54
32.00,1.00,259.31,-4.25,-63.44,-0.69,2.50,1.06,50.65,3.54
32.00,2.00,292.38,-13.38,20.94,1.25,-2.94,4.25,50.65,3.54
32.00,0.00,222.69,13.50,-122.88,15.19,-4.19,5.25,51.30,3.56
32.00,1.00,259.25,-4.25,-63.44,-0.81,2.12,1.12,51.30,3.56
32.00,2.00,292.31,-13.38,20.94,0.25,-2.44,3.81,51.30,3.56
32.00,0.00,222.56,13.56,-123.19,13.56,-3.06,4.81,51.87,3.58
32.00,1.00,259.19,-4.25,-63.44,-0.88,2.56,1.19,51.87,3.58
32.00,2.00,292.25,-13.38,20.88,0.75,-2.81,3.19,51.87,3.58
32.00,0.00,222.50,13.56,-123.38,9.06,-0.69,0.62,52.24,3.60
32.00,1.00,259.19,-4.25,-63.44,-1.38,2.25,1.00,52.24,3.60
32.00,2.00,292.19,-13.31,20.88,0.62,-2.88,3.12,52.24,3.60
32.00,0.00,222.50,13.56,-123.56,8.88,-1.94,-0.94,52.64,3.62
32.00,1.00,259.12,-4.25,-63.38,-1.19,1.69,1.06,52.64,3.62
32.00,2.00,292.12,-13.31,20.81,-0.31,-1.81,3.31,52.64,3.62
32.00,0.00,222.44,13.50,-123.81,12.25,-4.19,3.56,53.22,3.64
32.00,1.00,259.06,-4.25,-63.38,-1.44,1.62,0.88,53.22,3.64
32.00,2.00,292.00,-13.31,20.81,-0.94,-2.75,3.62,53.22,3.66
32.00,0.00,222.38,13.56,-124.06,10.31,-1.56,4.62,53.62,3.66
32.00,1.00,259.06,-4.25,-63.31,-0.62,0.38,0.69,53.62,3.66
32.00,2.00,291.94,-13.25,20.81,1.06,-4.00,2.69,53.62,3.66
32.00,0.00,222.19,13.62,-124.19,5.12,3.31,0.44,53.75,3.68
32.00,1.00,259.06,-4.25,-63.31,-0.50,0.94,0.06,53.75,3.68
32.00,2.00,291.88,-13.19,20.75,2.12,-3.62,2.12,53.75,3.68
32.00,0.00,222.00,13.69,-124.25,5.69,3.44,-0.44,53.99,3.70
32.00,1.00,259.06,-4.25,-63.31,-0.56,1.62,0.38,53.99,3.70
32.00,2.00,291.88,-13.12,20.69,0.25,-3.25,2.38,53.99,3.70
32.00,0.00,221.81,13.75,-124.38,8.62,1.56,3.25,54.43,3.72
32.00,1.00,259.00,-4.25,-63.31,-0.75,1.44,0.94,54.43,3.72
32.00,2.00,291.75,-13.12,20.75,-1.38,-3.38,2.44,54.43,3.72
32.00,0.00,221.56,13.81,-124.56,9.50,2.19,5.00,54.86,3.74
32.00,1.00,258.94,-4.25,-63.31,0.00,0.75,0.88,54.86,3.74
32.00,2.00,291.75,-13.06,20.75,-0.19,-2.69,1.44,54.86,3.74
32.00,0.00,221.25,13.94,-124.69,7.81,4.19,3.75,55.14,3.76
32.00,1.00,258.94,-4.25,-63.25,-0.69,0.25,0.25,55.14,3.76
32.00,2.00,291.69,-13.00,20.69,1.38,-1.94,0.62,55.14,3.76
32.00,0.00,220.94,14.06,-124.81,6.44,5.62,3.00,55.35,3.78
32.00,1.00,258.94,-4.25,-63.25,-0.25,0.00,0.00,55.35,3.78
32.00,2.00,291.69,-13.00,20.69,1.69,-2.00,0.88,55.35,3.78
32.00,0.00,220.69,14.12,-124.94,5.94,4.62,2.88,55.58,3.80
32.00,1.00,258.94,-4.25,-63.25,-0.69,0.56,-0.12,55.58,3.80
32.00,2.00,291.69,-12.94,20.69,0.56,-2.38,1.06,55.58,3.80
32.00,0.00,220.44,14.25,-125.06,6.06,3.25,3.19,55.81,3.82
32.00,1.00,258.94,-4.19,-63.25,-0.56,0.25,0.00,55.81,3.82
32.00,2.00,291.62,-12.94,20.62,0.94,-2.38,1.19,55.81,3.82
32.00,0.00,220.19,14.31,-125.12,6.06,3.56,4.12,56.03,3.84
32.00,1.00,258.94,-4.19,-63.19,-0.56,0.12,-0.19,56.03,3.84
32.00,2.00,291.62,-12.88,20.62,1.06,-2.50,1.31,56.03,3.84
32.00,0.00,219.94,14.44,-125.19,2.06,5.44,1.81,56.08,3.86
32.00,1.00,258.94,-4.19,-63.19,-0.81,0.62,0.06,56.08,3.86
32.00,2.00,291.56,-12.88,20.56,0.94,-3.38,2.12,56.08,3.86
32.00,0.00,219.69,14.50,-125.19,1.62,4.88,0.75,56.11,3.88
32.00,1.00,258.94,-4.19,-63.19,-1.12,1.19,0.12,56.11,3.88
32.00,2.00,291.50,-12.81,20.56,0.88,-3.19,2.25,56.11,3.88
32.00,0.00,219.56,14.56,-125.25,4.75,2.19,2.69,56.32,3.90
32.00,1.00,258.88,-4.19,-63.12,-0.69,1.69,0.62,56.32,3.90
32.00,2.00,291.44,-12.75,20.56,-0.06,-2.50,2.12,56.32,3.90
32.00,0.00,219.38,14.62,-125.38,6.31,1.25,4.19,56.65,3.92
32.00,1.00,258.88,-4.19,-63.12,-0.69,2.06,1.19,56.65,3.92
32.00,2.00,291.44,-12.75,20.56,-1.31,-1.81,2.25,56.65,3.92
32.00,0.00,219.19,14.69,-125.50,5.12,2.56,3.06,56.96,3.94
32.00,1.00,258.81,-4.19,-63.12,-1.00,2.12,1.25,56.96,3.94
32.00,2.00,291.38,-12.75,20.56,-1.75,-1.62,1.94,56.96,3.94
32.00,0.00,219.06,14.75,-125.50,3.44,3.44,0.69,57.16,3.96
32.00,1.00,258.75,-4.19,-63.06,-0.75,2.06,1.06,57.16,3.96
32.00,2.00,291.31,-12.75,20.56,-1.12,-1.38,1.94,57.16,3.96
32.00,0.00,218.94,14.75,-125.56,3.38,1.44,0.12,57.34,3.98
32.00,1.00,258.69,-4.19,-63.06,-1.12,1.56,0.94,57.34,3.98
32.00,2.00,291.25,-12.69,20.62,-0.88,-0.88,1.50,57.34,3.98
32.00,0.00,218.94,14.69,-125.62,4.50,-1.25,0.81,57.62,4.00
32.00,1.00,258.69,-4.19,-63.06,-1.50,1.62,0.94,57.62,4.00
32.00,2.00,291.25,-12.69,20.62,-1.75,-0.75,1.88,57.62,4.00
32.00,0.00,218.94,14.69,-125.75,5.75,-2.31,1.31,57.94,4.02
32.00,1.00,258.62,-4.19,-63.00,-2.31,1.88,1.06,57.94,4.02
32.00,2.00,291.19,-12.69,20.62,-1.75,-0.94,1.38,57.94,4.02
32.00,0.00,219.00,14.69,-125.94,7.12,-4.44,1.88,58.32,4.04
32.00,1.00,258.56,-4.19,-62.94,-1.50,1.81,0.62,58.32,4.04
32.00,2.00,291.19,-12.69,20.69,-1.38,-0.50,1.12,58.32,4.04
32.00,0.00,219.06,14.62,-126.06,5.12,-3.75,0.94,58.64,4.06
32.00,1.00,258.56,-4.19,-62.94,-1.25,0.50,0.75,58.64,4.06
32.00,2.00,291.19,-12.69,20.69,-2.12,0.19,0.38,58.64,4.06
32.00,0.00,219.12,14.62,-126.12,4.19,-3.38,-0.19,58.90,4.08
32.00,1.00,258.56,-4.19,-62.88,-2.00,1.12,0.06,58.90,4.08
32.00,2.00,291.19,-12.69,20.75,-1.94,0.81,0.50,58.90,4.08
32.00,0.00,219.25,14.56,-126.25,5.19,-5.19,-0.81,59.17,4.10
32.00,1.00,258.56,-4.19,-62.81,-2.56,1.56,-0.19,59.17,4.10
32.00,2.00,291.19,-12.75,20.75,-0.94,0.25,0.12,59.17,4.10
32.00,0.00,219.38,14.50,-126.44,8.31,-7.31,1.50,59.57,4.12
32.00,1.00,258.50,-4.19,-62.75,-1.88,1.69,-0.12,59.57,4.12
32.00,2.00,291.19,-12.75,20.81,-0.69,-0.31,0.31,59.57,4.12
32.00,0.00,219.44,14.44,-126.62,8.38,-5.75,3.94,59.98,4.14
32.00,1.00,258.50,-4.19,-62.75,-1.38,0.94,0.38,59.98,4.14
32.00,2.00,291.12,-12.75,20.81,-1.06,0.00,0.75,59.98,4.14
32.00,0.00,219.38,14.50,-126.75,5.88,-1.38,2.38,60.28,4.16
32.00,1.00,258.50,-4.19,-62.69,-1.44,0.88,0.31,60.28,4.16
32.00,2.00,291.12,-12.75,20.81,-0.94,-0.62,0.81,60.28,4.16
32.00,0.00,219.38,14.50,-126.88,3.75,0.31,-0.56,60.48,4.18
32.00,1.00,258.44,-4.25,-62.69,-1.38,0.69,0.12,60.48,4.18
32.00,2.00,291.12,-12.75,20.81,-0.81,-0.44,0.81,60.48,4.18
32.00,0.00,219.38,14.44,-126.94,6.25,-2.69,0.06,60.83,4.20
32.00,1.00,258.44,-4.25,-62.62,-1.31,1.00,0.00,60.83,4.20
32.00,2.00,291.06,-12.75,20.88,-1.69,-0.69,1.25,60.83,4.20
32.00,0.00,219.31,14.44,-127.12,9.12,-3.62,3.94,61.31,4.22
32.00,1.00,258.44,-4.25,-62.62,-1.75,1.25,-0.12,61.31,4.22
32.00,2.00,291.06,-12.75,20.88,-1.88,-0.50,1.06,61.31,4.22
32.00,0.00,219.25,14.50,-127.31,7.31,-2.12,3.50,61.68,4.24
32.00,1.00,258.44,-4.25,-62.56,-1.75,0.75,0.06,61.68,4.24
32.00,2.00,291.06,-12.75,20.94,-1.06,-1.38,1.06,61.68,4.24
32.00,0.00,219.19,14.50,-127.44,4.75,-2.06,1.25,61.90,4.26
32.00,1.00,258.38,-4.25,-62.50,-1.56,0.94,0.19,61.90,4.26
32.00,2.00,291.00,-12.69,20.94,-0.25,-1.19,1.44,61.90,4.26
32.00,0.00,219.25,14.50,-127.56,5.00,-3.94,1.19,62.14,4.28
32.00,1.00,258.38,-4.25,-62.50,-1.88,0.94,0.31,62.14,4.28
32.00,2.00,290.94,-12.69,20.88,-0.50,-1.25,1.88,62.14,4.28
32.00,0.00,219.31,14.44,-127.69,5.44,-4.06,1.69,62.39,4.30
32.00,1.00,258.38,-4.25,-62.44,-1.44,1.25,0.50,62.39,4.30
32.00,2.00,290.94,-12.69,20.88,-0.25,-1.44,1.75,62.39,4.30
32.00,0.00,219.38,14.44,-127.81,4.44,-3.06,0.88,62.60,4.32
32.00,1.00,258.38,-4.25,-62.44,-1.19,1.31,0.50,62.60,4.32
32.00,2.00,290.88,-12.69,20.88,-0.50,-2.56,1.81,62.60,4.32
32.00,0.00,219.44,14.38,-127.88,4.12,-3.19,-0.44,62.84,4.34
32.00,1.00,258.31,-4.25,-62.38,-1.75,1.38,0.62,62.84,4.34
32.00,2.00,290.81,-12.62,20.88,-1.31,-2.06,1.75,62.84,4.34
32.00,0.00,219.44,14.38,-128.00,6.12,-2.75,0.50,63.11,4.36
32.00,1.00,258.31,-4.25,-62.38,-1.69,0.75,0.25,63.11,4.36
32.00,2.00,290.81,-12.62,20.88,0.12,-1.38,1.31,63.11,4.36
32.00,0.00,219.44,14.38,-128.19,7.44,-2.06,1.81,63.41,4.38
32.00,1.00,258.31,-4.25,-62.31,-1.56,0.56,0.12,63.41,4.38
32.00,2.00,290.75,-12.62,20.88,0.50,-2.00,1.81,63.41,4.38
32.00,0.00,219.31,14.38,-128.31,7.12,-0.31,1.62,63.71,4.40
32.00,1.00,258.31,-4.25,-62.31,-1.38,0.31,0.31,63.71,4.40
32.00,2.00,290.69,-12.56,20.88,0.31,-2.62,2.69,63.71,4.40
32.00,0.00,219.19,14.38,-128.44,7.12,0.81,0.94,64.03,4.42
32.00,1.00,258.31,-4.25,-62.25,-1.44,0.31,0.19,64.03,4.42
32.00,2.00,290.62,-12.56,20.88,-0.12,-1.69,2.81,64.03,4.42
32.00,0.00,219.00,14.44,-128.62,9.31,1.69,1.44,64.40,4.44
32.00,1.00,258.31,-4.25,-62.25,-0.94,0.75,0.00,64.40,4.44
32.00,2.00,290.56,-12.56,20.81,0.75,-2.31,2.88,64.40,4.44
32.00,0.00,218.81,14.50,-128.75,6.88,3.56,-0.25,64.65,4.46
32.00,1.00,258.31,-4.25,-62.25,-0.88,0.81,-0.12,64.65,4.46
32.00,2.00,290.50,-12.50,20.81,1.31,-3.56,3.25,64.65,4.46
32.00,0.00,218.62,14.50,-128.88,6.12,3.25,-2.00,64.94,4.48
32.00,1.00,258.25,-4.31,-62.19,-1.56,1.00,0.25,64.94,4.48
32.00,2.00,290.44,-12.50,20.75,-0.50,-3.62,3.75,64.94,4.48
32.00,0.00,218.44,14.50,-129.00,7.00,3.31,-0.88,65.28,4.50
32.00,1.00,258.25,-4.31,-62.19,-1.56,1.81,0.62,65.28,4.50
32.00,2.00,290.31,-12.44,20.75,-0.88,-3.19,4.00,65.28,4.50
32.00,0.00,218.19,14.56,-129.12,7.19,4.25,-0.56,65.59,4.52
32.00,1.00,258.19,-4.31,-62.12,-1.62,1.50,0.94,65.59,4.52
32.00,2.00,290.25,-12.44,20.75,0.12,-3.62,4.31,65.59,4.52
32.00,0.00,217.94,14.62,-129.25,8.00,3.75,0.62,65.98,4.54
32.00,1.00,258.19,-4.31,-62.12,-1.81,1.69,0.75,65.98,4.54
32.00,2.00,290.12,-12.38,20.75,-0.94,-3.06,4.69,65.98,4.54
32.00,0.00,217.62,14.69,-129.38,8.81,5.69,2.06,66.44,4.56
32.00,1.00,258.12,-4.31,-62.06,-1.44,2.00,1.00,66.44,4.56
32.00,2.00,290.06,-12.38,20.75,-1.69,-2.19,4.06,66.44,4.56
32.00,0.00,217.19,14.81,-129.44,5.50,9.38,-0.50,66.77,4.58
32.00,1.00,258.06,-4.31,-62.06,-1.81,2.19,1.12,66.77,4.58
32.00,2.00,289.94,-12.38,20.75,-1.94,-2.75,3.62,66.77,4.58
32.00,0.00,216.88,14.88,-129.50,3.94,7.69,-4.44,67.02,4.60
32.00,1.00,258.00,-4.31,-62.00,-2.06,2.06,0.88,67.02,4.60
32.00,2.00,289.88,-12.31,20.75,-1.75,-2.56,3.62,67.02,4.60
32.00,0.00,216.69,14.88,-129.56,6.00,3.81,-2.75,67.36,4.62
32.00,1.00,258.00,-4.31,-61.94,-2.38,1.62,0.94,67.36,4.62
32.00,2.00,289.81,-12.31,20.81,-1.75,-2.06,3.81,67.36,4.62
32.00,0.00,216.50,14.94,-129.62,5.88,3.62,-0.56,67.68,4.64
32.00,1.00,257.94,-4.31,-61.94,-2.25,1.62,0.69,67.68,4.64
32.00,2.00,289.69,-12.31,20.81,-1.38,-2.44,3.69,67.68,4.64
32.00,0.00,216.31,15.00,-129.75,4.94,3.94,0.50,67.88,4.66
32.00,1.00,257.88,-4.31,-61.88,-1.94,2.25,0.75,67.88,4.66
32.00,2.00,289.69,-12.31,20.81,0.25,-1.81,3.81,67.88,4.66
32.00,0.00,216.06,15.06,-129.75,1.56,5.69,-1.12,67.94,4.68
32.00,1.00,257.88,-4.31,-61.81,-2.12,1.75,0.62,67.94,4.68
32.00,2.00,289.56,-12.31,20.75,0.12,-2.06,3.75,67.94,4.68
32.00,0.00,215.88,15.06,-129.75,-0.38,5.56,-3.00,68.01,4.70
32.00,1.00,257.81,-4.31,-61.81,-2.38,1.88,0.81,68.01,4.70
32.00,2.00,289.44,-12.25,20.75,-1.94,-1.88,3.56,68.01,4.70
32.00,0.00,215.81,15.06,-129.75,2.31,3.44,-2.25,68.24,4.72
32.00,1.00,257.81,-4.31,-61.75,-2.69,2.06,0.56,68.24,4.72
32.00,2.00,289.44,-12.25,20.81,-2.75,-1.00,3.06,68.24,4.72
32.00,0.00,215.69,15.06,-129.81,4.69,1.62,0.00,68.55,4.74
32.00,1.00,257.75,-4.31,-61.69,-2.88,3.44,0.75,68.55,4.74
32.00,2.00,289.31,-12.31,20.88,-2.38,-0.88,2.75,68.55,4.74
32.00,0.00,215.56,15.12,-129.88,3.62,1.62,0.56,68.78,4.76
32.00,1.00,257.69,-4.38,-61.62,-2.75,3.00,0.69,68.78,4.76
32.00,2.00,289.31,-12.31,20.88,-1.62,-0.56,2.94,68.78,4.76
32.00,0.00,215.44,15.12,-129.88,1.50,2.81,0.19,68.89,4.78
32.00,1.00,257.69,-4.38,-61.56,-2.69,1.88,0.38,68.89,4.78
32.00,2.00,289.19,-12.31,20.88,-1.06,-0.38,3.06,68.89,4.78
32.00,0.00,215.31,15.19,-129.88,-0.06,3.44,-0.81,68.91,4.80
32.00,1.00,257.62,-4.38,-61.56,-2.38,1.50,0.19,68.91,4.80
32.00,2.00,289.12,-12.38,20.88,-0.69,-0.31,3.00,68.91,4.80
32.00,0.00,215.25,15.19,-129.88,0.12,0.94,-1.19,68.92,4.82
32.00,1.00,257.62,-4.38,-61.50,-2.12,1.69,0.19,68.92,4.82
32.00,2.00,289.12,-12.38,20.88,0.00,-0.31,3.00,68.92,4.82
32.00,0.00,215.31,15.12,-129.88,0.69,-1.69,-0.19,68.99,4.84
32.00,1.00,257.56,-4.38,-61.44,-2.62,2.12,0.19,68.99,4.84
32.00,2.00,289.06,-12.38,20.88,-0.81,-0.69,2.56,68.99,4.84
32.00,0.00,215.38,15.12,-129.88,0.31,-2.62,-0.06,69.05,4.86
32.00,1.00,257.56,-4.44,-61.44,-2.50,2.50,0.50,69.05,4.86
32.00,2.00,289.00,-12.38,20.88,-1.25,-0.81,2.50,69.05,4.86
32.00,0.00,215.50,15.06,-129.88,-0.19,-2.50,-0.56,69.10,4.88
32.00,1.00,257.56,-4.44,-61.38,-2.75,2.00,0.69,69.10,4.88
32.00,2.00,288.94,-12.38,20.94,-1.31,-0.56,2.25,69.10,4.88
32.00,0.00,215.62,15.06,-129.88,-0.06,-3.06,-0.88,69.16,4.90
32.00,1.00,257.50,-4.44,-61.31,-2.56,2.00,0.94,69.16,4.90
32.00,2.00,288.88,-12.44,20.94,-1.38,0.12,2.38,69.16,4.90
32.00,0.00,215.75,15.00,-129.88,0.00,-3.00,-0.56,69.27,4.92
32.00,1.00,257.44,-4.44,-61.25,-2.56,1.88,0.88,69.27,4.92
32.00,2.00,288.88,-12.44,20.94,-2.38,0.69,2.00,69.27,4.92
32.00,0.00,215.88,14.94,-129.88,-0.25,-2.06,-0.44,69.31,4.94
32.00,1.00,257.44,-4.44,-61.19,-2.56,1.56,-0.06,69.31,4.94
32.00,2.00,288.81,-12.44,21.00,-1.25,1.00,2.06,69.31,4.94
32.00,0.00,215.94,14.94,-129.88,-1.25,-1.38,-0.56,69.25,4.96
32.00,1.00,257.44,-4.50,-61.19,-2.19,1.88,-0.19,69.25,4.96
32.00,2.00,288.81,-12.50,21.00,0.19,0.75,2.19,69.25,4.96
32.00,0.00,216.00,14.94,-129.88,-3.56,-0.75,-1.19,69.07,4.98
32.00,1.00,257.38,-4.50,-61.12,-1.94,1.50,0.06,69.07,4.98
32.00,2.00,288.69,-12.50,20.94,0.44,0.25,2.50,69.07,4.98
32.00,0.00,216.12,14.88,-129.81,-3.00,-1.69,-0.88,68.99,5.00
32.00,1.00,257.38,-4.50,-61.06,-2.56,2.19,0.44,68.99,5.00
32.00,2.00,288.69,-12.50,20.94,-1.12,-0.25,2.94,68.99,5.00
32.00,0.00,216.25,14.88,-129.75,-2.69,-0.56,-0.19,68.93,5.02
32.00,1.00,257.31,-4.56,-61.06,-2.50,2.06,0.31,68.93,5.02
32.00,2.00,288.62,-12.56,20.94,-1.31,-0.25,2.94,68.93,5.02
32.00,0.00,216.25,14.88,-129.69,-3.06,0.38,-0.81,68.85,5.04
32.00,1.00,257.31,-4.56,-61.00,-2.44,2.19,0.19,68.85,5.04
32.00,2.00,288.56,-12.56,21.00,-1.25,0.00,2.62,68.85,5.04
32.00,0.00,216.31,14.88,-129.62,-2.81,0.19,-0.94,68.79,5.06
32.00,1.00,257.31,-4.56,-60.94,-2.50,2.50,-0.12,68.79,5.06
32.00,2.00,288.50,-12.56,21.00,-1.56,0.25,2.25,68.79,5.06
32.00,0.00,216.31,14.88,-129.56,-2.25,1.56,-0.62,68.74,5.08
32.00,1.00,257.25,-4.62,-60.88,-2.75,2.62,-0.06,68.74,5.08
32.00,2.00,288.44,-12.62,21.00,-1.06,-0.12,2.38,68.74,5.08
32.00,0.00,216.31,14.88,-129.50,-2.06,3.19,-0.56,68.71,5.10
32.00,1.00,257.25,-4.62,-60.88,-2.06,2.75,-0.06,68.71,5.10
32.00,2.00,288.38,-12.62,21.06,-1.31,-0.44,2.50,68.71,5.10
32.00,0.00,216.19,14.94,-129.44,-1.81,3.44,-0.81,68.71,5.12
32.00,1.00,257.19,-4.62,-60.81,-2.69,2.50,0.00,68.71,5.12
32.00,2.00,288.38,-12.62,21.06,-1.88,-0.69,2.56,68.71,5.12
32.00,0.00,216.19,14.94,-129.38,-2.31,2.88,-1.12,68.72,5.14
32.00,1.00,257.19,-4.69,-60.75,-2.50,2.00,0.19,68.72,5.14
32.00,2.00,288.25,-12.62,21.06,-2.44,-0.75,2.44,68.72,5.14
32.00,0.00,216.12,14.94,-129.31,-2.12,3.38,-1.25,68.70,5.16
32.00,1.00,257.12,-4.69,-60.69,-2.38,1.81,-0.19,68.70,5.16
32.00,2.00,288.25,-12.62,21.12,-1.62,-0.44,2.06,68.70,5.16
32.00,0.00,216.06,14.94,-129.25,-1.25,2.19,-1.81,68.70,5.18
32.00,1.00,257.12,-4.69,-60.69,-2.19,1.44,-0.31,68.70,5.18
32.00,2.00,288.19,-12.69,21.12,-1.31,0.31,1.94,68.70,5.18
32.00,0.00,216.06,14.94,-129.25,-0.75,1.19,-1.94,68.74,5.20
32.00,1.00,257.12,-4.69,-60.62,-2.25,1.19,-0.25,68.74,5.20
32.00,2.00,288.12,-12.69,21.19,-1.75,0.38,1.69,68.74,5.20
32.00,0.00,216.06,14.94,-129.19,-0.56,0.88,-1.94,68.78,5.22
32.00,1.00,257.06,-4.75,-60.56,-2.25,1.12,-0.50,68.78,5.22
32.00,2.00,288.12,-12.69,21.19,-1.44,0.69,1.38,68.78,5.22
32.00,0.00,216.06,14.88,-129.19,-0.31,1.31,-2.25,68.83,5.24
32.00,1.00,257.06,-4.75,-60.56,-2.38,0.81,-0.56,68.83,5.24
32.00,2.00,288.06,-12.69,21.19,-1.38,0.69,1.69,68.83,5.24
32.00,0.00,216.06,14.88,-129.19,-0.19,0.56,-2.38,68.89,5.26
32.00,1.00,257.06,-4.75,-60.50,-2.50,1.00,-0.38,68.89,5.26
32.00,2.00,288.06,-12.69,21.25,-1.62,0.69,1.25,68.89,5.26
32.00,0.00,216.12,14.81,-129.19,-0.88,-0.12,-2.38,68.92,5.28
32.00,1.00,257.06,-4.75,-60.44,-2.31,1.00,-0.31,68.92,5.28
32.00,2.00,288.00,-12.75,21.25,-1.56,0.56,1.50,68.92,5.28
32.00,0.00,216.19,14.81,-129.12,-1.06,0.31,-1.94,68.93,5.30
32.00,1.00,257.06,-4.75,-60.44,-2.50,1.25,-0.44,68.93,5.30
32.00,2.00,288.00,-12.75,21.25,-1.25,0.62,1.75,68.93,5.30
32.00,0.00,216.19,14.81,-129.12,-1.19,1.25,-1.62,68.92,5.32
32.00,1.00,257.00,-4.75,-60.38,-2.31,1.50,-0.56,68.92,5.32
32.00,2.00,288.00,-12.75,21.31,-1.06,0.44,2.06,68.92,5.32
32.00,0.00,216.19,14.81,-129.06,-1.94,1.25,-1.50,68.92,5.34
32.00,1.00,257.00,-4.81,-60.31,-2.06,1.19,-0.31,68.92,5.34
32.00,2.00,287.94,-12.81,21.31,-1.88,0.50,1.69,68.92,5.34
32.00,0.00,216.19,14.75,-129.00,-2.06,1.12,-1.25,68.91,5.36
32.00,1.00,257.00,-4.81,-60.25,-2.44,2.00,-0.25,68.91,5.36
32.00,2.00,287.88,-12.81,21.31,-1.75,0.56,1.56,68.91,5.36
32.00,0.00,216.19,14.75,-128.94,-2.12,1.50,-0.94,68.90,5.38
32.00,1.00,256.94,-4.81,-60.25,-2.62,2.94,0.00,68.90,5.38
32.00,2.00,287.88,-12.81,21.38,-2.06,0.25,1.81,68.90,5.38
32.00,0.00,216.19,14.75,-128.88,-1.75,1.50,-1.12,68.93,5.40
32.00,1.00,256.94,-4.88,-60.19,-2.31,2.69,0.19,68.93,5.40
32.00,2.00,287.81,-12.81,21.44,-2.25,-0.69,2.12,68.93,5.40
32.00,0.00,216.19,14.75,-128.81,-1.81,1.25,-1.31,68.96,5.42
32.00,1.00,256.88,-4.88,-60.12,-2.31,1.62,0.50,68.96,5.42
32.00,2.00,287.75,-12.81,21.44,-2.56,-0.25,2.00,68.96,5.42
32.00,0.00,216.25,14.75,-128.81,-2.19,1.31,-1.38,68.95,5.44
32.00,1.00,256.88,-4.88,-60.12,-2.06,1.75,0.19,68.95,5.44
32.00,2.00,287.69,-12.88,21.50,-2.00,0.44,2.06,68.95,5.44
32.00,0.00,216.19,14.75,-128.75,-1.88,1.81,-1.31,68.93,5.46
32.00,1.00,256.81,-4.94,-60.06,-1.81,1.56,0.00,68.93,5.46
32.00,2.00,287.69,-12.88,21.50,-1.38,0.38,2.38,68.93,5.46
32.00,0.00,216.19,14.75,-128.69,-1.88,1.69,-1.31,68.91,5.48
32.00,1.00,256.81,-4.94,-60.06,-1.75,1.94,-0.12,68.91,5.48
32.00,2.00,287.62,-12.88,21.50,-1.44,0.12,2.12,68.91,5.48
32.00,0.00,216.19,14.75,-128.62,-1.75,1.44,-1.00,68.93,5.50
32.00,1.00,256.81,-4.94,-60.00,-2.31,1.94,0.00,68.93,5.50
32.00,2.00,287.56,-12.94,21.56,-2.12,-0.12,1.94,68.93,5.50
32.00,0.00,216.19,14.75,-128.62,-2.12,1.38,-1.00,68.94,5.52
32.00,1.00,256.75,-4.94,-59.94,-2.25,2.00,0.06,68.94,5.52
32.00,2.00,287.56,-12.94,21.56,-2.38,-0.50,1.94,68.94,5.52
32.00,0.00,216.19,14.75,-128.56,-2.06,1.44,-1.19,68.94,5.54
32.00,1.00,256.75,-5.00,-59.94,-2.25,1.81,-0.12,68.94,5.54
32.00,2.00,287.50,-12.94,21.62,-2.19,-0.69,2.19,68.94,5.54
32.00,0.00,216.19,14.75,-128.50,-1.88,0.81,-1.44,68.95,5.56
32.00,1.00,256.75,-5.00,-59.88,-1.81,1.69,0.19,68.95,5.56
32.00,2.00,287.44,-12.94,21.62,-2.00,-0.38,1.81,68.95,5.56
32.00,0.00,216.25,14.75,-128.44,-1.50,0.12,-1.19,68.98,5.58
32.00,1.00,256.69,-5.00,-59.88,-1.88,1.44,0.12,68.98,5.58
32.00,2.00,287.38,-12.94,21.69,-2.25,0.19,1.44,68.98,5.58
32.00,0.00,216.25,14.75,-128.44,-1.00,0.56,-0.94,69.00,5.60
32.00,1.00,256.69,-5.00,-59.81,-2.00,1.25,-0.06,69.00,5.60
32.00,2.00,287.38,-12.94,21.75,-1.38,0.25,1.06,69.00,5.60
32.00,0.00,216.25,14.75,-128.38,-0.75,1.19,-1.12,69.02,5.62
32.00,1.00,256.69,-5.06,-59.81,-1.69,1.19,-0.38,69.02,5.62
32.00,2.00,287.38,-13.00,21.75,-1.31,-0.44,1.38,69.02,5.62
32.00,0.00,216.25,14.75,-128.38,-1.00,1.19,-1.12,69.06,5.64
32.00,1.00,256.69,-5.06,-59.75,-1.88,0.81,0.12,69.06,5.64
32.00,2.00,287.31,-13.00,21.75,-1.94,-0.38,1.38,69.06,5.64
32.00,0.00,216.25,14.75,-128.38,-1.25,1.19,-1.00,69.10,5.66
32.00,1.00,256.69,-5.06,-59.69,-1.75,0.56,0.12,69.10,5.66
32.00,2.00,287.31,-13.00,21.81,-2.12,-0.38,1.25,69.10,5.66
32.00,0.00,216.25,14.75,-128.31,-1.12,1.62,-0.94,69.11,5.68
32.00,1.00,256.62,-5.06,-59.69,-1.69,1.06,-0.38,69.11,5.68
32.00,2.00,287.25,-13.00,21.81,-1.25,0.31,1.12,69.11,5.68
32.00,0.00,216.19,14.75,-128.31,-0.88,0.88,-0.81,69.10,5.70
32.00,1.00,256.62,-5.06,-59.69,-1.50,1.12,-0.38,69.10,5.70
32.00,2.00,287.25,-13.00,21.88,-0.81,0.31,1.00,69.10,5.70
32.00,0.00,216.19,14.75,-128.25,-1.25,0.69,-0.44,69.10,5.72
32.00,1.00,256.62,-5.06,-59.62,-1.56,1.31,-0.44,69.10,5.72
32.00,2.00,287.25,-13.00,21.88,-1.25,0.38,0.81,69.10,5.72
32.00,0.00,216.19,14.75,-128.25,-1.31,0.88,-0.44,69.12,5.74
32.00,1.00,256.62,-5.12,-59.62,-1.88,0.75,-0.69,69.12,5.74
32.00,2.00,287.19,-13.00,21.88,-1.56,0.62,0.94,69.12,5.74
32.00,0.00,216.19,14.75,-128.19,-1.31,0.44,-0.44,69.11,5.76
32.00,1.00,256.62,-5.12,-59.56,-1.69,1.00,-0.69,69.11,5.76
32.00,2.00,287.19,-13.00,21.88,-1.19,0.25,0.88,69.11,5.76
32.00,0.00,216.25,14.75,-128.19,-1.25,-0.50,-0.56,69.12,5.78
32.00,1.00,256.62,-5.12,-59.56,-1.56,1.12,-0.56,69.12,5.78
32.00,2.00,287.19,-13.06,21.94,-1.38,0.69,0.50,69.12,5.78
32.00,0.00,216.31,14.69,-128.12,-1.75,-1.50,-0.69,69.11,5.80
32.00,1.00,256.62,-5.12,-59.50,-1.94,0.94,-0.62,69.11,5.80
32.00,2.00,287.19,-13.06,22.00,-1.56,0.94,0.75,69.11,5.80
32.00,0.00,216.44,14.69,-128.12,-1.56,-1.31,-0.88,69.08,5.82
32.00,1.00,256.62,-5.19,-59.50,-1.62,0.94,-0.50,69.08,5.82
32.00,2.00,287.19,-13.06,22.00,-1.00,0.75,0.81,69.08,5.82
32.00,0.00,216.50,14.62,-128.06,-1.75,-1.25,-1.06,69.04,5.84
32.00,1.00,256.56,-5.19,-59.44,-1.69,1.25,-0.56,69.04,5.84
32.00,2.00,287.12,-13.06,22.00,-0.69,0.62,0.56,69.04,5.84
32.00,0.00,216.56,14.62,-128.06,-1.31,-1.06,-0.75,69.03,5.86
32.00,1.00,256.56,-5.19,-59.38,-1.81,0.94,-0.62,69.03,5.86
32.00,2.00,287.12,-13.12,22.00,-1.25,1.06,0.62,69.03,5.86
32.00,0.00,216.62,14.62,-128.00,-1.62,-0.19,-0.38,69.05,5.88
32.00,1.00,256.56,-5.19,-59.38,-1.88,0.62,-0.62,69.05,5.88
32.00,2.00,287.12,-13.12,22.06,-2.06,0.50,0.50,69.05,5.88
32.00,0.00,216.62,14.62,-127.94,-1.94,0.81,-0.06,69.05,5.90
32.00,1.00,256.56,-5.19,-59.31,-1.75,0.50,-0.50,69.05,5.90
32.00,2.00,287.12,-13.12,22.12,-1.88,-0.06,0.94,69.05,5.90
32.00,0.00,216.56,14.62,-127.94,-2.19,1.00,0.00,69.02,5.92
32.00,1.00,256.56,-5.25,-59.31,-1.81,0.81,-0.50,69.02,5.92
32.00,2.00,287.12,-13.12,22.12,-1.62,-0.19,0.88,69.02,5.92
32.00,0.00,216.56,14.62,-127.88,-2.50,0.69,0.00,69.01,5.94
32.00,1.00,256.56,-5.25,-59.25,-1.94,1.00,-0.12,69.01,5.94
32.00,2.00,287.06,-13.12,22.19,-2.06,-0.12,0.50,69.01,5.94
32.00,0.00,216.56,14.69,-127.81,-2.38,0.75,-0.38,69.01,5.96
32.00,1.00,256.56,-5.25,-59.25,-1.75,1.12,-0.19,69.01,5.96
32.00,2.00,287.06,-13.12,22.19,-2.38,0.19,0.12,69.01,5.96
32.00,0.00,216.56,14.69,-127.75,-2.25,1.00,-0.81,68.97,5.98
32.00,1.00,256.56,-5.25,-59.19,-1.38,0.94,-0.38,68.97,5.98
32.00,2.00,287.06,-13.12,22.25,-1.50,0.06,0.38,68.97,5.98
32.00,0.00,216.56,14.69,-127.75,-2.12,0.62,-1.00,68.94,6.00
32.00,1.00,256.56,-5.25,-59.19,-1.06,-0.25,-0.25,68.94,6.00
32.00,2.00,287.06,-13.12,22.25,-1.44,0.50,0.44,68.94,6.00
32.00,0.00,216.62,14.69,-127.69,-1.88,0.75,-0.44,68.93,6.02
32.00,1.00,256.56,-5.25,-59.12,-1.44,0.00,-0.75,68.93,6.02
32.00,2.00,287.06,-13.12,22.31,-1.69,0.56,0.38,68.93,6.02
32.00,0.00,216.62,14.69,-127.62,-1.25,0.56,-0.19,68.92,6.04
32.00,1.00,256.56,-5.31,-59.12,-1.44,1.31,-0.69,68.92,6.04
32.00,2.00,287.06,-13.12,22.31,-1.00,1.56,0.19,68.92,6.04
32.00,0.00,216.62,14.69,-127.62,-1.00,0.06,-0.81,68.92,6.06
32.00,1.00,256.56,-5.31,-59.12,-1.31,1.06,-0.81,68.92,6.06
32.00,2.00,287.06,-13.19,22.31,-0.88,0.81,0.62,68.92,6.06
32.00,0.00,216.69,14.62,-127.62,-0.94,-0.75,-1.06,68.93,6.08
32.00,1.00,256.56,-5.31,-59.06,-0.62,0.12,-0.44,68.93,6.08
32.00,2.00,287.06,-13.19,22.38,-1.25,0.19,0.88,68.93,6.08
32.00,0.00,216.69,14.62,-127.62,-0.44,-0.25,-1.06,68.95,6.10
32.00,1.00,256.56,-5.31,-59.06,-0.56,0.25,-0.25,68.95,6.10
32.00,2.00,287.06,-13.19,22.38,-0.88,0.25,0.81,68.95,6.10
32.00,0.00,216.69,14.62,-127.62,0.12,-0.19,-0.56,68.97,6.12
32.00,1.00,256.56,-5.31,-59.06,-0.06,0.06,-0.44,68.97,6.12
32.00,2.00,287.00,-13.19,22.38,-0.25,0.19,0.88,68.97,6.12
32.00,0.00,216.69,14.62,-127.62,0.19,-0.31,-0.38,68.98,6.14
32.00,1.00,256.56,-5.31,-59.06,0.12,0.50,-0.19,68.98,6.14
32.00,2.00,287.00,-13.19,22.38,-0.12,-0.56,0.75,68.98,6.14
32.00,0.00,216.69,14.62,-127.62,0.19,0.50,0.00,69.04,6.16
32.00,1.00,256.56,-5.31,-59.00,-0.31,0.75,0.25,69.04,6.16
32.00,2.00,287.00,-13.19,22.38,-1.06,-1.06,1.00,69.04,6.16
32.00,0.00,216.69,14.62,-127.62,-0.50,0.81,0.25,69.07,6.18
32.00,1.00,256.56,-5.31,-59.00,-0.69,0.62,0.62,69.07,6.18
32.00,2.00,287.00,-13.19,22.38,-1.19,-1.31,0.94,69.07,6.18
32.00,0.00,216.62,14.62,-127.62,-0.19,1.00,0.38,69.11,6.20
32.00,1.00,256.50,-5.31,-59.00,-0.94,0.62,0.44,69.11,6.20
32.00,2.00,286.94,-13.19,22.44,-1.19,-1.69,1.50,69.11,6.20
32.00,0.00,216.56,14.62,-127.56,-0.25,1.31,0.38,69.11,6.22
32.00,1.00,256.50,-5.31,-59.00,-0.25,0.81,0.25,69.11,6.22
32.00,2.00,286.88,-13.19,22.44,-0.19,-1.06,1.12,69.11,6.22
32.00,0.00,216.50,14.69,-127.56,-0.12,1.62,0.31,69.09,6.24
32.00,1.00,256.50,-5.31,-58.94,0.00,1.44,0.19,69.09,6.24
32.00,2.00,286.88,-13.19,22.44,0.31,-0.50,1.12,69.09,6.24
32.00,0.00,216.50,14.69,-127.56,0.12,1.12,0.44,69.11,6.26
32.00,1.00,256.44,-5.31,-58.94,0.06,1.81,0.56,69.11,6.26
32.00,2.00,286.81,-13.19,22.44,-0.44,-0.38,1.81,69.11,6.26
32.00,0.00,216.44,14.69,-127.56,0.56,1.12,0.12,69.19,6.28
32.00,1.00,256.44,-5.31,-58.94,0.38,1.81,0.81,69.19,6.28
32.00,2.00,286.81,-13.19,22.44,-1.19,-0.88,2.12,69.19,6.28
32.00,0.00,216.38,14.69,-127.56,1.12,1.25,-0.38,69.22,6.30
32.00,1.00,256.38,-5.31,-58.94,0.62,1.25,0.62,69.22,6.30
32.00,2.00,286.75,-13.19,22.44,0.50,-0.69,1.69,69.22,6.30
32.00,0.00,216.38,14.69,-127.62,0.81,1.19,-1.06,69.23,6.32
32.00,1.00,256.38,-5.31,-58.94,0.38,1.12,0.62,69.23,6.32
32.00,2.00,286.75,-13.19,22.44,0.56,-0.44,1.50,69.23,6.32
32.00,0.00,216.31,14.75,-127.62,0.25,1.62,-1.06,69.23,6.34
32.00,1.00,256.38,-5.31,-58.94,0.25,1.25,0.62,69.23,6.34
32.00,2.00,286.69,-13.19,22.38,0.19,-0.81,2.19,69.23,6.34
32.00,0.00,216.31,14.69,-127.56,-0.50,0.75,-1.50,69.21,6.36
32.00,1.00,256.31,-5.38,-58.94,0.19,1.19,0.38,69.21,6.36
32.00,2.00,286.62,-13.19,22.38,0.00,-0.75,2.56,69.21,6.36
32.00,0.00,216.38,14.69,-127.56,-0.12,-1.94,-0.50,69.20,6.38
32.00,1.00,256.31,-5.38,-58.94,-0.06,1.50,0.44,69.20,6.38
32.00,2.00,286.56,-13.19,22.38,0.12,-0.25,2.31,69.20,6.38
32.00,0.00,216.44,14.62,-127.56,-0.38,-2.19,-0.75,69.18,6.40
32.00,1.00,256.31,-5.38,-58.94,-0.25,1.50,0.44,69.18,6.40
32.00,2.00,286.56,-13.25,22.38,-0.06,0.12,1.75,69.18,6.40
32.00,0.00,216.56,14.62,-127.56,-0.56,-1.69,-1.00,69.17,6.42
32.00,1.00,256.31,-5.38,-58.94,-0.44,1.44,-0.12,69.17,6.42
32.00,2.00,286.50,-13.25,22.38,-0.25,0.50,1.50,69.17,6.42
32.00,0.00,216.62,14.56,-127.56,-0.38,-1.31,-0.88,69.16,6.44
32.00,1.00,256.25,-5.38,-58.94,-0.12,1.75,-0.12,69.16,6.44
32.00,2.00,286.50,-13.25,22.38,-0.12,1.06,1.31,69.16,6.44
32.00,0.00,216.69,14.56,-127.56,-0.81,-1.25,-0.75,69.13,6.46
32.00,1.00,256.25,-5.44,-58.94,-0.38,1.19,-0.44,69.13,6.46
32.00,2.00,286.50,-13.31,22.38,-0.06,1.25,1.06,69.13,6.46
32.00,0.00,216.75,14.56,-127.50,-1.06,-0.94,-0.62,69.09,6.48
32.00,1.00,256.25,-5.44,-58.88,0.12,1.06,-0.12,69.09,6.48
32.00,2.00,286.44,-13.31,22.38,-0.19,0.75,1.00,69.09,6.48
32.00,0.00,216.81,14.50,-127.50,-0.12,-1.06,0.12,69.09,6.50
32.00,1.00,256.25,-5.44,-58.88,0.00,1.00,-0.44,69.09,6.50
32.00,2.00,286.44,-13.31,22.38,-0.25,1.31,0.56,69.09,6.50
32.00,0.00,216.81,14.50,-127.50,-0.12,-0.81,0.31,69.06,6.52
32.00,1.00,256.25,-5.44,-58.88,0.06,0.94,-0.69,69.06,6.52
32.00,2.00,286.44,-13.38,22.38,0.69,1.12,0.12,69.06,6.52
32.00,0.00,216.88,14.50,-127.50,-0.19,-0.62,0.00,69.04,6.54
32.00,1.00,256.19,-5.44,-58.88,0.12,0.88,-0.56,69.04,6.54
32.00,2.00,286.44,-13.38,22.31,0.25,1.00,0.31,69.04,6.54
32.00,0.00,216.88,14.50,-127.50,0.25,-0.06,0.12,69.07,6.56
32.00,1.00,256.19,-5.44,-58.88,-0.12,1.19,-0.56,69.07,6.56
32.00,2.00,286.44,-13.38,22.31,-0.50,0.69,0.12,69.07,6.56
32.00,0.00,216.81,14.50,-127.50,1.00,0.69,0.62,69.13,6.58
32.00,1.00,256.19,-5.50,-58.88,-0.12,0.56,-0.31,69.13,6.58
32.00,2.00,286.44,-13.38,22.31,-0.44,0.19,-0.19,69.13,6.58
32.00,0.00,216.81,14.50,-127.50,1.12,0.69,0.00,69.17,6.60
32.00,1.00,256.19,-5.50,-58.88,0.00,0.19,-0.50,69.17,6.60
32.00,2.00,286.44,-13.38,22.31,0.31,-0.06,-0.19,69.17,6.60
32.00,0.00,216.81,14.50,-127.56,1.25,0.25,-0.56,69.20,6.62
32.00,1.00,256.19,-5.50,-58.81,0.38,-0.06,-0.62,69.20,6.62
32.00,2.00,286.44,-13.38,22.31,0.50,0.06,-0.19,69.20,6.62
32.00,0.00,216.75,14.50,-127.56,1.69,0.06,-0.38,69.27,6.64
32.00,1.00,256.19,-5.50,-58.81,0.44,0.00,-0.12,69.27,6.64
32.00,2.00,286.44,-13.38,22.31,0.25,-0.12,0.31,69.27,6.64
32.00,0.00,216.75,14.50,-127.56,1.88,0.06,-0.19,69.32,6.66
32.00,1.00,256.19,-5.44,-58.81,0.56,-1.25,-0.25,69.32,6.66
32.00,2.00,286.44,-13.38,22.31,0.56,-0.38,-0.19,69.32,6.66
32.00,0.00,216.75,14.50,-127.62,2.25,0.44,-0.50,69.41,6.68
32.00,1.00,256.25,-5.44,-58.81,0.69,-0.81,-0.44,69.41,6.68
32.00,2.00,286.50,-13.38,22.31,0.38,-0.25,-0.69,69.41,6.68
32.00,0.00,216.69,14.50,-127.62,3.12,0.88,-0.75,69.56,6.70
32.00,1.00,256.25,-5.44,-58.75,0.00,-0.94,-0.50,69.56,6.70
32.00,2.00,286.50,-13.38,22.31,-0.44,0.81,-1.25,69.56,6.70
32.00,0.00,216.62,14.50,-127.69,3.56,1.62,-0.75,69.73,6.72
32.00,1.00,256.25,-5.44,-58.75,0.44,-0.81,-0.31,69.73,6.72
32.00,2.00,286.50,-13.38,22.38,-0.25,0.88,-1.06,69.73,6.72
32.00,0.00,216.56,14.50,-127.69,3.50,1.50,-0.94,69.81,6.74
32.00,1.00,256.25,-5.44,-58.75,2.50,-2.12,-0.38,69.81,6.74
32.00,2.00,286.56,-13.38,22.44,1.56,0.19,-1.88,69.81,6.74
