Iteration,IMUNo,OrientationX (deg),OrientationY,OrientationZ,GyroX (20rad/sec),GyroY,GyroZ,Elbow_Pos (rad),Time (sec)
37.00,0.00,245.62,5.19,-94.81,0.12,-0.06,0.25,-0.01,1.02
37.00,1.00,258.12,-2.75,-61.38,0.06,-0.12,0.12,-0.01,1.02
37.00,2.00,291.38,-14.00,23.31,0.44,-0.69,-0.12,-0.01,1.02
37.00,0.00,245.62,5.19,-94.81,-0.12,0.56,0.38,-0.03,1.04
37.00,1.00,258.12,-2.75,-61.38,-0.06,0.12,-0.06,-0.03,1.04
37.00,2.00,291.38,-13.94,23.31,0.31,-0.50,0.06,-0.03,1.04
37.00,0.00,245.62,5.19,-94.81,0.00,0.38,0.44,-0.04,1.06
37.00,1.00,258.12,-2.75,-61.38,0.19,0.56,0.31,-0.04,1.06
37.00,2.00,291.38,-13.94,23.31,0.25,-0.50,0.31,-0.04,1.06
37.00,0.00,245.62,5.19,-94.81,-0.12,-0.06,0.56,-0.02,1.08
37.00,1.00,258.12,-2.75,-61.38,-0.56,-0.44,0.44,-0.02,1.08
37.00,2.00,291.31,-13.94,23.31,-0.62,-0.94,0.50,-0.02,1.08
37.00,0.00,245.62,5.19,-94.81,0.25,0.69,0.56,0.04,1.10
37.00,1.00,258.12,-2.75,-61.38,-0.25,-0.50,0.38,0.04,1.10
37.00,2.00,291.31,-13.94,23.38,-1.19,-0.88,0.19,0.04,1.10
37.00,0.00,245.56,5.19,-94.81,0.00,1.06,0.50,0.09,1.12
37.00,1.00,258.12,-2.75,-61.38,0.12,0.62,0.12,0.09,1.12
37.00,2.00,291.31,-13.94,23.38,-1.06,-0.31,0.56,0.09,1.12
37.00,0.00,245.56,5.19,-94.75,-0.12,1.06,0.94,0.10,1.14
37.00,1.00,258.12,-2.75,-61.38,-0.44,0.94,0.00,0.10,1.14
37.00,2.00,291.31,-13.94,23.38,-0.31,-0.19,0.31,0.10,1.14
37.00,0.00,245.50,5.25,-94.75,-0.94,0.12,0.62,0.05,1.16
37.00,1.00,258.06,-2.75,-61.38,-0.56,0.62,0.50,0.05,1.16
37.00,2.00,291.31,-13.94,23.38,0.19,-1.12,0.31,0.05,1.16
37.00,0.00,245.50,5.25,-94.75,-1.25,-0.25,-0.06,-0.03,1.18
37.00,1.00,258.06,-2.75,-61.38,0.12,0.81,0.75,-0.03,1.18
37.00,2.00,291.31,-13.88,23.38,0.44,-0.75,0.31,-0.03,1.18
37.00,0.00,245.56,5.25,-94.75,-0.19,-0.50,-0.38,-0.03,1.20
37.00,1.00,258.06,-2.75,-61.38,0.56,0.44,0.56,-0.03,1.20
37.00,2.00,291.31,-13.88,23.38,-0.12,-0.12,0.31,-0.03,1.20
37.00,0.00,245.56,5.25,-94.75,0.81,-0.69,0.00,0.03,1.22
37.00,1.00,258.06,-2.75,-61.38,0.06,0.31,0.00,0.03,1.22
37.00,2.00,291.31,-13.88,23.38,-0.62,0.00,-0.19,0.03,1.22
37.00,0.00,245.56,5.25,-94.75,1.00,-0.38,0.19,0.06,1.24
37.00,1.00,258.06,-2.75,-61.38,-0.44,-0.25,-0.25,0.06,1.24
37.00,2.00,291.31,-13.88,23.38,0.38,0.19,-0.62,0.06,1.24
37.00,0.00,245.56,5.25,-94.81,0.69,0.62,0.38,0.06,1.26
37.00,1.00,258.06,-2.75,-61.38,-0.19,0.19,-0.50,0.06,1.26
37.00,2.00,291.31,-13.88,23.38,0.81,-0.19,-0.38,0.06,1.26
37.00,0.00,245.50,5.25,-94.81,-0.06,1.38,0.12,0.05,1.28
37.00,1.00,258.06,-2.75,-61.38,-0.19,0.50,-0.19,0.05,1.28
37.00,2.00,291.31,-13.88,23.38,0.12,0.12,0.62,0.05,1.28
37.00,0.00,245.50,5.25,-94.81,-0.56,1.12,-0.06,0.07,1.30
37.00,1.00,258.06,-2.75,-61.38,-0.19,0.88,0.38,0.07,1.30
37.00,2.00,291.31,-13.88,23.38,-1.00,-0.19,1.00,0.07,1.30
37.00,0.00,245.50,5.25,-94.81,-0.50,0.44,-0.31,0.10,1.32
37.00,1.00,258.06,-2.81,-61.38,0.00,0.75,0.38,0.10,1.32
37.00,2.00,291.31,-13.94,23.38,-1.25,0.12,0.81,0.10,1.32
37.00,0.00,245.50,5.25,-94.81,-0.25,-0.69,-0.25,0.10,1.34
37.00,1.00,258.00,-2.81,-61.38,-0.25,0.75,0.19,0.10,1.34
37.00,2.00,291.31,-13.94,23.38,-0.25,0.38,-0.19,0.10,1.34
37.00,0.00,245.50,5.25,-94.81,-0.25,-1.25,-0.38,0.07,1.36
37.00,1.00,258.00,-2.81,-61.38,-0.31,0.31,0.00,0.07,1.36
37.00,2.00,291.31,-13.94,23.44,0.38,0.25,-0.50,0.07,1.36
37.00,0.00,245.56,5.19,-94.81,-0.56,-1.31,-0.56,0.03,1.38
37.00,1.00,258.00,-2.81,-61.38,0.12,0.19,-0.31,0.03,1.38
37.00,2.00,291.31,-13.94,23.44,0.44,0.19,-0.12,0.03,1.38
37.00,0.00,245.56,5.19,-94.81,-0.31,-1.12,-0.12,0.01,1.40
37.00,1.00,258.00,-2.81,-61.38,0.06,-0.06,-0.19,0.01,1.40
37.00,2.00,291.31,-13.94,23.44,0.06,0.56,0.06,0.01,1.40
37.00,0.00,245.56,5.19,-94.81,-0.12,-0.62,0.00,0.01,1.42
37.00,1.00,258.00,-2.81,-61.38,0.06,0.06,-0.31,0.01,1.42
37.00,2.00,291.31,-13.94,23.44,0.00,0.56,-0.25,0.01,1.42
37.00,0.00,245.62,5.19,-94.81,0.50,-0.69,0.06,0.03,1.44
37.00,1.00,258.00,-2.81,-61.38,-0.12,-0.19,-0.50,0.03,1.44
37.00,2.00,291.31,-13.94,23.44,0.06,0.81,-0.81,0.03,1.44
37.00,0.00,245.62,5.19,-94.81,0.25,-0.75,-0.12,0.04,1.46
37.00,1.00,258.06,-2.81,-61.38,-0.25,-0.25,-0.88,0.04,1.46
37.00,2.00,291.31,-13.94,23.44,-0.06,0.50,-0.88,0.04,1.46
37.00,0.00,245.62,5.19,-94.81,0.25,0.00,-0.56,0.05,1.48
37.00,1.00,258.06,-2.81,-61.38,-0.25,-0.25,-0.88,0.05,1.48
37.00,2.00,291.31,-13.94,23.44,0.00,0.56,-0.19,0.05,1.48
37.00,0.00,245.62,5.19,-94.81,-0.31,-0.25,-0.44,0.05,1.50
37.00,1.00,258.06,-2.81,-61.38,0.06,0.00,-0.50,0.05,1.50
37.00,2.00,291.31,-13.94,23.44,-0.25,0.44,0.12,0.05,1.50
37.00,0.00,245.62,5.19,-94.81,-0.38,-0.69,-0.19,0.04,1.52
37.00,1.00,258.06,-2.81,-61.38,-0.06,0.31,-0.62,0.04,1.52
37.00,2.00,291.31,-13.94,23.44,-0.31,0.50,0.44,0.04,1.52
37.00,0.00,245.62,5.19,-94.81,-0.06,-0.56,-0.12,0.06,1.54
37.00,1.00,258.06,-2.81,-61.38,0.44,0.06,-0.38,0.06,1.54
37.00,2.00,291.31,-13.94,23.44,-0.38,0.56,0.12,0.06,1.54
37.00,0.00,245.62,5.19,-94.81,0.12,-1.38,-0.19,0.08,1.56
37.00,1.00,258.06,-2.81,-61.38,0.12,-0.12,-0.19,0.08,1.56
37.00,2.00,291.31,-13.94,23.44,-0.31,0.56,-0.19,0.08,1.56
37.00,0.00,245.69,5.19,-94.81,0.38,-1.00,-0.44,0.10,1.58
37.00,1.00,258.06,-2.81,-61.38,0.00,-0.12,-0.38,0.10,1.58
37.00,2.00,291.31,-13.94,23.44,-0.12,0.31,-0.31,0.10,1.58
37.00,0.00,245.69,5.19,-94.81,0.25,-1.06,-0.50,0.11,1.60
37.00,1.00,258.06,-2.81,-61.38,0.00,-0.19,-0.44,0.11,1.60
37.00,2.00,291.31,-13.94,23.44,0.12,0.44,-0.62,0.11,1.60
37.00,0.00,245.69,5.19,-94.81,0.19,-0.75,-0.50,0.10,1.62
37.00,1.00,258.06,-2.81,-61.38,-0.12,0.38,-0.62,0.10,1.62
37.00,2.00,291.31,-13.94,23.44,0.25,0.94,-0.50,0.10,1.62
37.00,0.00,245.69,5.19,-94.81,0.00,-0.38,-0.31,0.12,1.64
37.00,1.00,258.06,-2.81,-61.38,-0.31,0.50,0.00,0.12,1.64
37.00,2.00,291.31,-13.94,23.44,-0.38,0.31,0.31,0.12,1.64
37.00,0.00,245.69,5.19,-94.81,0.06,-0.12,-0.31,0.15,1.66
37.00,1.00,258.06,-2.81,-61.38,0.19,-0.38,0.06,0.15,1.66
37.00,2.00,291.31,-13.94,23.44,-0.69,0.25,0.31,0.15,1.66
37.00,0.00,245.69,5.19,-94.81,0.56,0.12,0.19,0.24,1.68
37.00,1.00,258.06,-2.81,-61.38,0.19,0.38,-0.56,0.24,1.68
37.00,2.00,291.31,-13.94,23.44,-1.44,0.44,0.69,0.24,1.68
37.00,0.00,245.69,5.19,-94.81,0.62,0.12,0.62,0.32,1.70
37.00,1.00,258.06,-2.81,-61.38,-0.06,1.00,-0.25,0.32,1.70
37.00,2.00,291.31,-14.00,23.50,-1.00,0.81,0.62,0.32,1.70
37.00,0.00,245.69,5.25,-94.81,0.62,0.00,0.75,0.36,1.72
37.00,1.00,258.06,-2.88,-61.38,-0.56,0.88,0.12,0.36,1.72
37.00,2.00,291.31,-14.00,23.50,-0.38,0.25,0.69,0.36,1.72
37.00,0.00,245.69,5.25,-94.81,0.94,-1.44,0.50,0.43,1.74
37.00,1.00,258.06,-2.88,-61.38,-0.25,0.56,0.56,0.43,1.74
37.00,2.00,291.31,-14.00,23.50,-0.50,0.44,1.06,0.43,1.74
37.00,0.00,245.75,5.25,-94.88,2.00,-2.00,0.69,0.55,1.76
37.00,1.00,258.06,-2.88,-61.38,0.25,0.75,0.69,0.55,1.76
37.00,2.00,291.25,-14.00,23.50,-0.75,0.19,1.44,0.55,1.76
37.00,0.00,245.75,5.25,-94.94,3.06,-2.00,0.94,0.69,1.78
37.00,1.00,258.06,-2.88,-61.38,0.62,0.56,0.38,0.69,1.78
37.00,2.00,291.25,-14.00,23.50,-0.06,0.50,1.56,0.69,1.78
37.00,0.00,245.75,5.25,-95.00,3.88,-2.31,1.94,0.80,1.80
37.00,1.00,258.06,-2.88,-61.38,0.12,0.31,-0.06,0.80,1.80
37.00,2.00,291.19,-14.00,23.44,1.38,0.50,1.19,0.80,1.80
37.00,0.00,245.69,5.31,-95.06,4.19,-0.56,3.06,0.91,1.82
37.00,1.00,258.06,-2.88,-61.38,0.19,0.94,-0.31,0.91,1.82
37.00,2.00,291.19,-14.06,23.44,1.75,-0.56,1.69,0.91,1.82
37.00,0.00,245.56,5.44,-95.19,4.12,1.56,3.75,1.07,1.84
37.00,1.00,258.00,-2.88,-61.38,0.38,1.06,0.25,1.07,1.84
37.00,2.00,291.12,-14.06,23.38,0.62,-1.00,2.69,1.07,1.84
37.00,0.00,245.44,5.50,-95.25,4.44,3.81,4.50,1.30,1.86
37.00,1.00,258.00,-2.88,-61.38,0.25,1.75,0.56,1.30,1.86
37.00,2.00,291.06,-14.06,23.38,-0.75,-1.50,3.81,1.30,1.86
37.00,0.00,245.19,5.62,-95.38,3.94,5.75,4.38,1.49,1.88
37.00,1.00,258.00,-2.88,-61.38,0.50,1.62,0.81,1.49,1.88
37.00,2.00,291.00,-14.06,23.38,-0.44,-2.19,4.25,1.49,1.88
37.00,0.00,245.00,5.75,-95.44,4.06,5.69,4.31,1.68,1.90
37.00,1.00,257.94,-2.88,-61.38,0.62,1.56,0.75,1.68,1.90
37.00,2.00,290.88,-14.06,23.31,-0.12,-1.69,4.62,1.68,1.90
37.00,0.00,244.75,5.81,-95.50,4.50,5.19,4.19,1.91,1.92
37.00,1.00,257.94,-2.88,-61.38,0.50,2.12,0.69,1.91,1.92
37.00,2.00,290.75,-14.06,23.31,-0.62,-1.31,4.50,1.91,1.92
37.00,0.00,244.62,5.88,-95.62,5.06,3.81,3.44,2.17,1.94
37.00,1.00,257.88,-2.88,-61.44,0.75,2.44,0.94,2.17,1.94
37.00,2.00,290.69,-14.06,23.31,-0.69,-1.81,4.62,2.17,1.94
37.00,0.00,244.50,5.94,-95.75,6.50,1.81,3.00,2.46,1.96
37.00,1.00,257.81,-2.88,-61.44,0.31,2.12,0.94,2.46,1.96
37.00,2.00,290.62,-14.06,23.25,-0.06,-0.94,3.81,2.46,1.96
37.00,0.00,244.38,6.00,-95.81,4.88,3.25,1.19,2.68,1.98
37.00,1.00,257.81,-2.88,-61.44,0.06,1.75,0.69,2.68,1.98
37.00,2.00,290.50,-14.06,23.25,0.06,-1.12,3.75,2.68,1.98
37.00,0.00,244.31,6.00,-95.88,5.06,3.25,-0.56,2.91,2.00
37.00,1.00,257.75,-2.88,-61.44,0.38,1.75,0.75,2.91,2.00
37.00,2.00,290.44,-14.06,23.25,-0.25,-0.50,3.88,2.91,2.00
37.00,0.00,244.31,5.94,-96.00,7.06,1.25,0.19,3.24,2.02
37.00,1.00,257.69,-2.94,-61.44,-0.25,1.75,0.81,3.24,2.02
37.00,2.00,290.38,-14.12,23.25,-0.25,0.06,3.62,3.24,2.02
37.00,0.00,244.25,5.94,-96.19,7.12,1.25,-0.06,3.57,2.04
37.00,1.00,257.69,-2.94,-61.44,0.12,1.81,0.75,3.57,2.04
37.00,2.00,290.31,-14.12,23.19,-0.25,-0.12,3.25,3.57,2.04
37.00,0.00,244.19,5.94,-96.31,6.12,2.88,-1.44,3.86,2.06
37.00,1.00,257.62,-2.94,-61.44,-0.25,1.88,0.56,3.86,2.06
37.00,2.00,290.25,-14.19,23.19,-0.25,0.00,3.06,3.86,2.06
37.00,0.00,244.19,5.94,-96.44,7.31,3.12,-1.25,4.19,2.08
37.00,1.00,257.62,-2.94,-61.44,-1.00,1.38,0.25,4.19,2.08
37.00,2.00,290.19,-14.19,23.19,-0.06,-0.25,3.12,4.19,2.08
37.00,0.00,244.12,5.94,-96.62,9.75,0.25,0.00,4.62,2.10
37.00,1.00,257.62,-2.94,-61.38,-0.44,1.00,-0.06,4.62,2.10
37.00,2.00,290.12,-14.19,23.19,0.00,-0.44,2.88,4.62,2.10
37.00,0.00,244.12,5.94,-96.69,11.00,-1.50,1.06,5.11,2.12
37.00,1.00,257.62,-2.94,-61.38,-0.06,1.00,-0.38,5.11,2.12
37.00,2.00,290.06,-14.25,23.19,0.19,0.38,2.31,5.11,2.12
37.00,0.00,244.06,5.94,-97.00,10.00,1.62,0.44,5.58,2.14
37.00,1.00,257.62,-3.00,-61.38,-0.50,0.81,-0.31,5.58,2.14
37.00,2.00,290.06,-14.25,23.12,-0.62,-0.25,2.25,5.58,2.14
37.00,0.00,243.94,5.94,-97.19,10.00,5.12,0.19,6.02,2.16
37.00,1.00,257.62,-3.00,-61.38,-0.94,0.12,-0.44,6.02,2.16
37.00,2.00,290.00,-14.25,23.12,0.25,-0.62,1.75,6.02,2.16
37.00,0.00,243.75,6.00,-97.44,11.25,6.44,0.88,6.51,2.18
37.00,1.00,257.62,-3.00,-61.38,-0.44,0.19,-0.56,6.51,2.18
37.00,2.00,289.94,-14.25,23.12,0.25,-0.56,2.06,6.51,2.18
37.00,0.00,243.50,6.06,-97.62,12.75,7.62,2.56,7.12,2.20
37.00,1.00,257.62,-3.00,-61.38,-0.25,0.38,-0.50,7.12,2.20
37.00,2.00,289.94,-14.31,23.12,-0.75,-0.44,2.56,7.12,2.20
37.00,0.00,243.38,6.12,-97.75,12.62,10.62,3.38,7.77,2.22
37.00,1.00,257.62,-3.00,-61.38,-0.38,0.31,0.19,7.77,2.22
37.00,2.00,289.81,-14.31,23.12,-1.88,-1.12,3.50,7.77,2.22
37.00,0.00,243.00,6.19,-98.00,13.50,12.38,3.69,8.42,2.24
37.00,1.00,257.62,-2.94,-61.38,-0.94,-0.75,0.12,8.42,2.24
37.00,2.00,289.75,-14.31,23.12,-1.12,-0.88,3.69,8.42,2.24
37.00,0.00,242.62,6.31,-98.25,13.81,11.69,4.06,9.08,2.26
37.00,1.00,257.62,-2.94,-61.31,-0.69,0.19,-0.12,9.08,2.26
37.00,2.00,289.69,-14.31,23.12,-0.88,-0.56,4.19,9.08,2.26
37.00,0.00,242.25,6.44,-98.50,14.06,11.38,4.00,9.74,2.28
37.00,1.00,257.62,-3.00,-61.31,-0.38,1.19,0.25,9.74,2.28
37.00,2.00,289.56,-14.38,23.12,-0.69,-1.06,4.19,9.74,2.28
37.00,0.00,241.88,6.50,-98.75,11.88,12.69,2.31,10.31,2.30
37.00,1.00,257.56,-3.00,-61.31,-0.50,2.38,0.81,10.31,2.30
37.00,2.00,289.50,-14.31,23.12,-0.88,-2.62,4.94,10.31,2.30
37.00,0.00,241.56,6.62,-98.94,12.38,12.38,2.38,10.88,2.32
37.00,1.00,257.50,-3.00,-61.31,-0.62,1.69,1.00,10.88,2.32
37.00,2.00,289.38,-14.31,23.12,-0.50,-2.50,5.50,10.88,2.32
37.00,0.00,241.19,6.69,-99.19,14.81,8.81,3.94,11.59,2.34
37.00,1.00,257.50,-3.00,-61.31,-0.56,1.69,1.62,11.59,2.34
37.00,2.00,289.25,-14.31,23.06,-0.88,-2.50,6.12,11.59,2.34
37.00,0.00,240.88,6.81,-99.44,14.50,8.94,3.56,12.32,2.36
37.00,1.00,257.44,-2.94,-61.31,-0.19,1.75,1.62,12.32,2.36
37.00,2.00,289.06,-14.31,23.06,-1.88,-2.88,6.75,12.32,2.36
37.00,0.00,240.62,6.88,-99.69,12.12,11.19,1.19,12.95,2.38
37.00,1.00,257.38,-2.94,-61.31,0.06,1.69,1.50,12.95,2.38
37.00,2.00,288.94,-14.38,23.06,-1.88,-1.88,6.44,12.95,2.38
37.00,0.00,240.25,6.94,-99.88,12.00,12.25,0.94,13.55,2.40
37.00,1.00,257.31,-2.94,-61.31,-0.50,1.69,1.50,13.55,2.40
37.00,2.00,288.81,-14.38,23.06,-1.44,-0.62,6.06,13.55,2.40
37.00,0.00,239.94,7.00,-100.12,13.31,11.69,2.19,14.22,2.42
37.00,1.00,257.25,-2.94,-61.31,-0.50,1.69,0.88,14.22,2.42
37.00,2.00,288.69,-14.44,23.06,-1.69,-1.06,6.00,14.22,2.42
37.00,0.00,239.62,7.12,-100.44,17.25,7.12,6.62,15.06,2.44
37.00,1.00,257.25,-2.94,-61.31,-0.44,1.94,0.62,15.06,2.44
37.00,2.00,288.56,-14.44,23.12,-1.62,-1.38,5.56,15.06,2.44
37.00,0.00,239.25,7.25,-100.75,16.38,7.56,6.25,15.86,2.46
37.00,1.00,257.19,-2.94,-61.31,-0.06,1.75,0.69,15.86,2.46
37.00,2.00,288.44,-14.44,23.12,-1.44,-1.69,5.00,15.86,2.46
37.00,0.00,238.94,7.38,-101.00,14.31,7.88,4.00,16.57,2.48
37.00,1.00,257.19,-2.94,-61.31,-0.56,1.12,0.75,16.57,2.48
37.00,2.00,288.38,-14.44,23.12,-1.56,-1.38,4.19,16.57,2.48
37.00,0.00,238.62,7.50,-101.25,15.06,6.00,4.69,17.32,2.50
37.00,1.00,257.19,-2.94,-61.31,-0.94,1.12,0.50,17.32,2.50
37.00,2.00,288.31,-14.44,23.12,-1.75,-1.06,3.50,17.32,2.50
37.00,0.00,238.38,7.62,-101.50,15.50,5.19,5.06,18.06,2.52
37.00,1.00,257.12,-3.00,-61.31,-0.38,0.88,0.12,18.06,2.52
37.00,2.00,288.19,-14.44,23.12,-1.06,-2.56,3.75,18.06,2.52
37.00,0.00,238.06,7.75,-101.81,16.00,4.19,5.69,18.83,2.54
37.00,1.00,257.12,-3.00,-61.31,0.06,0.31,-0.06,18.83,2.54
37.00,2.00,288.12,-14.44,23.12,-1.06,-2.25,3.44,18.83,2.54
37.00,0.00,237.81,7.88,-102.12,14.31,5.81,5.19,19.52,2.56
37.00,1.00,257.12,-3.00,-61.31,-0.25,-0.25,-0.12,19.52,2.56
37.00,2.00,288.06,-14.44,23.12,-1.25,-2.06,2.81,19.52,2.56
37.00,0.00,237.50,8.00,-102.38,14.38,6.62,5.56,20.21,2.58
37.00,1.00,257.12,-3.00,-61.31,-0.69,-0.50,-0.12,20.21,2.58
37.00,2.00,288.00,-14.38,23.12,-0.94,-1.69,1.81,20.21,2.58
37.00,0.00,237.12,8.12,-102.62,15.69,6.06,7.69,20.93,2.60
37.00,1.00,257.12,-3.00,-61.31,-0.81,-0.69,-0.44,20.93,2.60
37.00,2.00,288.00,-14.38,23.12,-0.38,-1.75,1.38,20.93,2.62
37.00,0.00,236.81,8.31,-102.94,16.62,4.38,8.69,21.69,2.62
37.00,1.00,257.19,-3.00,-61.31,0.25,-0.81,-0.69,21.69,2.62
37.00,2.00,287.94,-14.38,23.12,-0.44,-2.25,1.69,21.69,2.62
37.00,0.00,236.50,8.50,-103.25,15.19,5.50,8.56,22.43,2.64
37.00,1.00,257.19,-3.00,-61.31,0.06,-1.00,-0.94,22.43,2.64
37.00,2.00,287.88,-14.31,23.12,-1.25,-3.19,2.25,22.43,2.64
37.00,0.00,236.12,8.69,-103.50,14.62,5.31,7.12,23.12,2.66
37.00,1.00,257.25,-3.00,-61.31,-0.06,-0.62,-0.69,23.12,2.66
37.00,2.00,287.81,-14.25,23.12,-0.81,-3.25,2.19,23.12,2.66
37.00,0.00,235.88,8.81,-103.81,15.88,2.31,7.50,23.86,2.68
37.00,1.00,257.25,-3.00,-61.31,0.00,-0.31,-0.31,23.86,2.68
37.00,2.00,287.75,-14.25,23.12,-0.69,-2.56,1.44,23.86,2.68
37.00,0.00,235.69,8.94,-104.12,18.25,-1.50,9.12,24.72,2.70
37.00,1.00,257.25,-3.00,-61.31,0.00,-0.06,-0.12,24.72,2.70
37.00,2.00,287.75,-14.19,23.12,-1.00,-2.31,1.31,24.72,2.72
37.00,0.00,235.50,9.12,-104.50,17.94,-2.12,9.19,25.59,2.72
37.00,1.00,257.25,-3.00,-61.31,0.06,-0.31,0.19,25.59,2.72
37.00,2.00,287.69,-14.19,23.12,-1.50,-3.06,1.31,25.59,2.72
37.00,0.00,235.31,9.25,-104.81,15.69,-0.12,7.19,26.30,2.74
37.00,1.00,257.25,-3.00,-61.31,-0.25,-1.06,0.06,26.30,2.74
37.00,2.00,287.69,-14.12,23.12,-0.12,-3.19,1.00,26.30,2.74
37.00,0.00,235.12,9.38,-105.12,14.50,0.81,6.06,26.91,2.76
37.00,1.00,257.25,-3.00,-61.31,0.12,-1.19,-0.25,26.91,2.76
37.00,2.00,287.62,-14.06,23.12,0.81,-3.31,1.19,26.91,2.76
37.00,0.00,234.88,9.50,-105.38,14.38,1.12,6.75,27.54,2.78
37.00,1.00,257.25,-2.94,-61.31,0.12,-1.25,-0.56,27.54,2.78
37.00,2.00,287.56,-14.00,23.12,0.31,-3.44,1.69,27.54,2.78
37.00,0.00,234.62,9.62,-105.69,15.38,0.31,8.25,28.27,2.80
37.00,1.00,257.31,-2.94,-61.31,-0.12,-0.69,-0.69,28.27,2.80
37.00,2.00,287.50,-13.94,23.06,-0.81,-3.81,2.06,28.27,2.82
37.00,0.00,234.38,9.81,-106.00,16.69,-0.44,10.50,29.05,2.82
37.00,1.00,257.31,-2.94,-61.25,-0.19,-0.62,-0.62,29.05,2.82
37.00,2.00,287.44,-13.94,23.06,-0.88,-3.38,2.44,29.05,2.82
37.00,0.00,234.12,10.00,-106.31,15.38,0.88,10.00,29.74,2.84
37.00,1.00,257.31,-2.94,-61.25,0.06,-0.75,-1.00,29.74,2.84
37.00,2.00,287.44,-13.88,23.06,-0.06,-3.25,1.88,29.74,2.84
37.00,0.00,233.81,10.19,-106.62,15.06,1.12,8.56,30.38,2.86
37.00,1.00,257.31,-3.00,-61.25,-0.12,0.31,-1.25,30.38,2.86
37.00,2.00,287.38,-13.81,23.06,0.81,-3.25,2.00,30.38,2.86
37.00,0.00,233.62,10.31,-106.94,17.31,-1.81,9.56,31.10,2.88
37.00,1.00,257.31,-3.00,-61.25,-0.12,1.81,-0.38,31.10,2.88
37.00,2.00,287.31,-13.81,23.00,1.25,-3.31,1.56,31.10,2.88
37.00,0.00,233.44,10.50,-107.31,19.06,-4.75,11.56,32.00,2.90
37.00,1.00,257.31,-3.00,-61.25,0.12,1.06,0.38,32.00,2.90
37.00,2.00,287.25,-13.75,23.00,-1.06,-4.31,1.94,32.00,2.92
37.00,0.00,233.25,10.69,-107.69,17.06,-2.50,9.94,32.83,2.92
37.00,1.00,257.31,-3.00,-61.25,0.31,-0.25,0.31,32.83,2.92
37.00,2.00,287.19,-13.62,23.00,-1.38,-4.62,2.50,32.83,2.92
37.00,0.00,233.06,10.81,-107.94,13.12,-0.38,5.69,33.47,2.94
37.00,1.00,257.31,-3.00,-61.25,0.44,-0.81,-0.12,33.47,2.94
37.00,2.00,287.12,-13.62,23.00,-1.31,-3.75,2.25,33.47,2.94
37.00,0.00,232.94,10.88,-108.19,11.69,1.00,3.38,34.04,2.96
37.00,1.00,257.31,-3.00,-61.19,0.56,-0.94,-0.81,34.04,2.96
37.00,2.00,287.06,-13.56,23.06,-1.06,-3.38,1.69,34.04,2.96
37.00,0.00,232.75,10.94,-108.44,14.31,-0.81,4.31,34.70,2.98
37.00,1.00,257.38,-3.00,-61.19,0.62,-1.19,-1.56,34.70,2.98
37.00,2.00,287.06,-13.50,23.00,-0.38,-2.69,0.75,34.70,2.98
37.00,0.00,232.62,11.06,-108.81,18.31,-4.62,8.31,35.51,3.00
37.00,1.00,257.38,-3.00,-61.25,0.81,-0.75,-1.69,35.51,3.00
37.00,2.00,287.06,-13.50,23.00,0.25,-1.31,-0.12,35.51,3.00
37.00,0.00,232.50,11.19,-109.19,17.12,-4.38,8.25,36.27,3.02
37.00,1.00,257.44,-3.00,-61.25,0.44,-0.56,-1.56,36.27,3.02
37.00,2.00,287.06,-13.44,23.00,0.06,-1.62,-0.19,36.27,3.02
37.00,0.00,232.38,11.25,-109.44,12.00,-1.19,3.56,36.83,3.04
37.00,1.00,257.44,-3.06,-61.19,0.19,-0.25,-1.12,36.83,3.04
37.00,2.00,287.06,-13.44,23.00,-0.38,-2.31,0.50,36.83,3.04
37.00,0.00,232.31,11.25,-109.69,11.69,-1.38,1.69,37.38,3.06
37.00,1.00,257.50,-3.06,-61.19,-0.38,-0.38,-0.81,37.38,3.06
37.00,2.00,287.00,-13.38,23.00,-0.62,-1.19,0.81,37.38,3.06
37.00,0.00,232.25,11.31,-110.00,14.56,-4.00,4.38,38.10,3.08
37.00,1.00,257.50,-3.06,-61.19,0.00,0.00,-0.81,38.10,3.08
37.00,2.00,287.00,-13.38,23.06,-1.56,-1.56,1.31,38.10,3.08
37.00,0.00,232.19,11.38,-110.31,14.69,-4.44,5.38,38.85,3.10
37.00,1.00,257.50,-3.06,-61.19,0.31,0.12,-1.00,38.85,3.10
37.00,2.00,286.94,-13.38,23.06,-2.19,-1.69,1.88,38.85,3.12
37.00,0.00,232.12,11.44,-110.56,11.44,-1.44,3.38,39.42,3.12
37.00,1.00,257.50,-3.06,-61.19,0.44,-0.62,-0.94,39.42,3.12
37.00,2.00,286.88,-13.31,23.06,-1.25,-1.38,0.94,39.42,3.12
37.00,0.00,232.00,11.50,-110.69,7.50,2.25,0.44,39.74,3.14
37.00,1.00,257.56,-3.06,-61.19,0.31,-1.00,-1.31,39.74,3.14
37.00,2.00,286.88,-13.31,23.06,0.44,-1.19,0.44,39.74,3.14
37.00,0.00,231.94,11.50,-110.88,8.50,0.19,0.81,40.10,3.16
37.00,1.00,257.56,-3.12,-61.19,0.25,-0.75,-1.56,40.10,3.16
37.00,2.00,286.88,-13.31,23.06,0.38,-0.69,0.38,40.10,3.16
37.00,0.00,231.81,11.56,-111.06,12.00,-2.25,4.69,40.69,3.18
37.00,1.00,257.62,-3.12,-61.19,0.94,-0.12,-1.69,40.69,3.18
37.00,2.00,286.88,-13.31,23.06,-1.19,-0.75,0.81,40.69,3.18
37.00,0.00,231.69,11.62,-111.31,12.38,-1.38,5.69,41.31,3.20
37.00,1.00,257.62,-3.12,-61.19,0.62,-0.12,-1.69,41.31,3.20
37.00,2.00,286.88,-13.31,23.12,-1.50,0.12,0.81,41.31,3.20
37.00,0.00,231.50,11.69,-111.56,9.00,1.12,3.12,41.78,3.22
37.00,1.00,257.69,-3.19,-61.19,0.12,0.00,-1.50,41.78,3.22
37.00,2.00,286.88,-13.31,23.12,-1.44,0.56,0.56,41.78,3.22
37.00,0.00,231.44,11.75,-111.69,7.06,0.56,1.00,42.12,3.24
37.00,1.00,257.69,-3.19,-61.19,-0.19,-0.31,-1.81,42.12,3.24
37.00,2.00,286.88,-13.31,23.12,-0.56,-0.06,0.38,42.12,3.24
37.00,0.00,231.38,11.75,-111.88,9.12,-3.12,2.69,42.52,3.26
37.00,1.00,257.75,-3.19,-61.19,0.31,0.25,-1.94,42.52,3.26
37.00,2.00,286.88,-13.25,23.12,0.19,-1.06,0.50,42.52,3.26
37.00,0.00,231.38,11.81,-112.06,10.62,-5.62,5.00,42.97,3.28
37.00,1.00,257.75,-3.25,-61.19,0.50,0.06,-1.44,42.97,3.28
37.00,2.00,286.81,-13.25,23.12,0.56,-1.31,1.00,42.97,3.28
37.00,0.00,231.44,11.88,-112.31,10.56,-5.94,4.88,43.45,3.30
37.00,1.00,257.81,-3.25,-61.19,0.00,0.25,-1.31,43.45,3.30
37.00,2.00,286.81,-13.25,23.12,-0.25,-1.31,1.19,43.45,3.30
37.00,0.00,231.38,11.88,-112.56,9.25,-3.81,3.56,43.85,3.32
37.00,1.00,257.81,-3.25,-61.19,0.19,0.12,-1.44,43.85,3.32
37.00,2.00,286.81,-13.25,23.12,0.44,-1.19,0.62,43.85,3.32
37.00,0.00,231.38,11.94,-112.75,8.94,-3.75,2.94,44.21,3.34
37.00,1.00,257.88,-3.31,-61.19,0.38,-0.25,-1.69,44.21,3.34
37.00,2.00,286.75,-13.19,23.12,0.94,-1.31,0.62,44.21,3.34
37.00,0.00,231.38,11.94,-112.94,8.19,-4.00,1.75,44.55,3.36
37.00,1.00,257.88,-3.31,-61.19,0.19,0.00,-1.94,44.55,3.36
37.00,2.00,286.75,-13.19,23.12,0.56,-1.75,0.94,44.55,3.36
37.00,0.00,231.44,11.94,-113.12,10.00,-6.25,2.31,44.96,3.38
37.00,1.00,257.94,-3.38,-61.19,0.19,0.50,-2.00,44.96,3.38
37.00,2.00,286.75,-13.19,23.06,0.81,-1.44,1.12,44.96,3.38
37.00,0.00,231.50,11.94,-113.38,13.06,-8.81,5.50,45.50,3.40
37.00,1.00,257.94,-3.38,-61.12,-0.19,0.94,-2.12,45.50,3.40
37.00,2.00,286.69,-13.19,23.06,1.00,-0.38,1.31,45.50,3.40
37.00,0.00,231.56,12.00,-113.69,12.88,-7.25,6.75,46.03,3.42
37.00,1.00,257.94,-3.44,-61.12,0.00,0.81,-2.06,46.03,3.42
37.00,2.00,286.69,-13.19,23.00,0.94,-1.00,1.62,46.03,3.42
37.00,0.00,231.44,12.06,-113.94,11.94,-3.69,5.69,46.53,3.44
37.00,1.00,258.00,-3.44,-61.12,0.19,0.31,-2.00,46.53,3.44
37.00,2.00,286.62,-13.19,23.00,0.75,-1.62,1.88,46.53,3.44
37.00,0.00,231.31,12.19,-114.19,12.06,-0.38,6.38,47.10,3.46
37.00,1.00,258.06,-3.50,-61.12,0.44,1.12,-2.44,47.10,3.46
37.00,2.00,286.56,-13.19,23.00,-0.56,-0.56,2.06,47.10,3.46
37.00,0.00,231.00,12.31,-114.44,12.44,1.94,6.38,47.66,3.48
37.00,1.00,258.06,-3.56,-61.12,0.12,1.50,-1.94,47.66,3.48
37.00,2.00,286.56,-13.19,23.00,-0.19,-1.50,2.50,47.66,3.48
37.00,0.00,230.75,12.44,-114.69,12.06,2.56,5.62,48.23,3.50
37.00,1.00,258.06,-3.56,-61.12,0.69,1.62,-1.50,48.23,3.50
37.00,2.00,286.44,-13.12,22.94,-0.50,-3.88,3.31,48.23,3.50
37.00,0.00,230.50,12.50,-114.94,12.00,2.12,5.00,48.77,3.52
37.00,1.00,258.06,-3.62,-61.19,1.06,1.31,-1.00,48.77,3.52
37.00,2.00,286.38,-13.06,22.94,-0.25,-3.69,3.31,48.77,3.52
37.00,0.00,230.25,12.62,-115.19,13.31,0.75,5.38,49.35,3.54
37.00,1.00,258.06,-3.62,-61.19,0.88,1.50,-0.38,49.35,3.54
37.00,2.00,286.31,-13.06,22.94,0.50,-3.44,3.38,49.35,3.54
37.00,0.00,230.06,12.69,-115.50,14.81,-1.19,5.31,49.97,3.56
37.00,1.00,258.06,-3.62,-61.19,0.25,1.38,-0.56,49.97,3.56
37.00,2.00,286.25,-13.00,22.88,1.00,-3.62,3.81,49.97,3.56
37.00,0.00,229.88,12.81,-115.81,17.12,-1.06,6.38,50.65,3.58
37.00,1.00,258.06,-3.69,-61.19,0.50,1.81,-1.12,50.65,3.58
37.00,2.00,286.12,-13.00,22.81,1.75,-3.00,3.31,50.65,3.58
37.00,0.00,229.62,12.94,-116.12,16.56,0.50,6.25,51.33,3.60
37.00,1.00,258.00,-3.69,-61.19,0.12,1.75,-0.62,51.33,3.60
37.00,2.00,286.06,-12.94,22.81,1.38,-2.69,3.06,51.33,3.60
37.00,0.00,229.38,13.00,-116.44,15.06,2.69,5.50,51.98,3.62
37.00,1.00,258.00,-3.75,-61.19,0.25,1.88,-0.81,51.98,3.62
37.00,2.00,286.00,-12.94,22.75,0.69,-2.62,3.44,51.98,3.62
37.00,0.00,229.06,13.12,-116.69,12.81,4.06,3.62,52.52,3.64
37.00,1.00,258.00,-3.75,-61.19,-0.31,1.88,-0.62,52.52,3.64
37.00,2.00,285.94,-12.94,22.75,0.75,-3.06,4.06,52.52,3.64
37.00,0.00,228.88,13.19,-116.88,11.62,3.06,1.69,53.01,3.66
37.00,1.00,258.00,-3.75,-61.19,-0.50,2.31,-0.62,53.01,3.66
37.00,2.00,285.81,-12.88,22.69,0.56,-4.06,4.62,53.01,3.66
37.00,0.00,228.69,13.25,-117.12,12.00,0.62,2.94,53.48,3.68
37.00,1.00,258.00,-3.81,-61.19,-0.31,2.31,-0.75,53.48,3.68
37.00,2.00,285.69,-12.88,22.62,1.56,-3.94,4.75,53.48,3.68
37.00,0.00,228.56,13.25,-117.31,10.88,0.06,2.38,53.85,3.70
37.00,1.00,257.94,-3.81,-61.19,0.12,3.00,-0.56,53.85,3.70
37.00,2.00,285.62,-12.81,22.56,2.50,-3.56,4.75,53.85,3.70
37.00,0.00,228.44,13.31,-117.56,11.62,-1.44,3.12,54.27,3.72
37.00,1.00,257.94,-3.88,-61.19,-0.50,3.06,-0.44,54.27,3.72
37.00,2.00,285.50,-12.81,22.50,2.44,-3.00,4.81,54.27,3.72
37.00,0.00,228.25,13.38,-117.75,10.25,1.94,3.81,54.64,3.74
37.00,1.00,257.88,-3.88,-61.19,-0.50,3.31,-0.50,54.64,3.74
37.00,2.00,285.44,-12.81,22.44,1.88,-2.31,4.81,54.64,3.74
37.00,0.00,228.00,13.44,-117.88,7.50,5.12,1.19,54.92,3.76
37.00,1.00,257.88,-3.94,-61.19,-0.56,3.00,-0.50,54.92,3.76
37.00,2.00,285.31,-12.75,22.38,1.19,-3.31,4.88,54.92,3.76
37.00,0.00,227.75,13.50,-118.06,9.75,3.62,1.75,55.32,3.78
37.00,1.00,257.81,-3.94,-61.19,-0.56,2.19,-0.81,55.32,3.78
37.00,2.00,285.19,-12.75,22.31,0.88,-2.75,4.25,55.32,3.78
37.00,0.00,227.50,13.62,-118.31,11.75,3.25,4.19,55.80,3.80
37.00,1.00,257.81,-3.94,-61.19,-0.75,1.94,-0.69,55.80,3.80
37.00,2.00,285.12,-12.75,22.31,1.00,-2.12,3.44,55.80,3.80
37.00,0.00,227.38,13.69,-118.38,10.94,3.50,3.88,56.24,3.82
37.00,1.00,257.81,-4.00,-61.19,-0.62,1.69,-0.75,56.24,3.82
37.00,2.00,285.06,-12.69,22.25,1.06,-2.25,2.81,56.24,3.82
37.00,0.00,227.00,13.75,-118.62,7.56,3.81,1.00,56.51,3.84
37.00,1.00,257.81,-4.00,-61.12,-0.69,1.38,-0.88,56.51,3.84
37.00,2.00,285.00,-12.69,22.19,1.56,-2.12,2.56,56.51,3.84
37.00,0.00,226.94,13.75,-118.75,7.62,0.69,-1.06,56.78,3.86
37.00,1.00,257.81,-4.06,-61.12,-0.81,1.19,-0.81,56.78,3.86
37.00,2.00,284.94,-12.69,22.19,1.56,-2.12,2.56,56.78,3.86
37.00,0.00,226.88,13.75,-119.00,11.25,-3.31,2.12,57.20,3.88
37.00,1.00,257.81,-4.06,-61.12,-0.81,1.06,-0.94,57.20,3.88
37.00,2.00,284.94,-12.62,22.12,1.94,-2.69,2.62,57.20,3.88
37.00,0.00,226.81,13.81,-119.25,11.44,-2.81,3.75,57.59,3.90
37.00,1.00,257.81,-4.12,-61.12,-0.31,0.81,-0.69,57.59,3.90
37.00,2.00,284.88,-12.62,22.06,2.81,-2.75,2.31,57.59,3.90
37.00,0.00,226.75,13.81,-119.38,8.12,-0.19,1.25,57.87,3.92
37.00,1.00,257.81,-4.12,-61.12,-0.19,0.69,-0.19,57.87,3.92
37.00,2.00,284.81,-12.56,22.00,1.81,-3.25,2.31,57.87,3.92
37.00,0.00,226.69,13.81,-119.50,8.19,-0.50,0.00,58.16,3.94
37.00,1.00,257.81,-4.12,-61.12,-0.69,0.69,-0.50,58.16,3.94
37.00,2.00,284.75,-12.56,21.94,1.56,-3.19,2.38,58.16,3.94
37.00,0.00,226.62,13.81,-119.69,10.81,-0.94,2.81,58.58,3.96
37.00,1.00,257.81,-4.12,-61.12,-0.50,0.88,0.00,58.58,3.96
37.00,2.00,284.69,-12.50,21.94,1.56,-2.88,2.00,58.58,3.96
37.00,0.00,226.44,13.88,-119.88,11.12,-0.06,3.81,59.03,3.98
37.00,1.00,257.81,-4.12,-61.12,-0.44,1.12,0.06,59.03,3.98
37.00,2.00,284.69,-12.44,21.88,1.12,-3.56,2.00,59.03,3.98
37.00,0.00,226.31,13.94,-120.12,9.19,1.31,3.00,59.37,4.00
37.00,1.00,257.81,-4.12,-61.12,-0.06,0.69,0.31,59.37,4.00
37.00,2.00,284.62,-12.38,21.81,1.56,-3.44,1.56,59.37,4.00
37.00,0.00,226.12,14.00,-120.25,8.44,1.88,2.38,59.71,4.02
37.00,1.00,257.75,-4.12,-61.12,-0.56,1.19,0.88,59.71,4.02
37.00,2.00,284.56,-12.38,21.81,0.75,-3.69,1.75,59.71,4.02
37.00,0.00,225.94,14.06,-120.38,7.50,2.31,1.81,60.01,4.04
37.00,1.00,257.75,-4.12,-61.12,-0.12,-0.06,0.88,60.01,4.04
37.00,2.00,284.50,-12.25,21.75,0.81,-4.75,2.00,60.01,4.04
37.00,0.00,225.75,14.12,-120.50,5.62,3.06,1.06,60.23,4.06
37.00,1.00,257.75,-4.12,-61.12,-0.44,0.25,0.88,60.23,4.06
37.00,2.00,284.50,-12.19,21.75,0.81,-4.06,1.88,60.23,4.06
37.00,0.00,225.62,14.12,-120.62,5.88,2.25,0.88,60.47,4.08
37.00,1.00,257.69,-4.12,-61.12,-0.69,0.75,0.75,60.47,4.08
37.00,2.00,284.44,-12.19,21.75,0.44,-2.81,1.69,60.47,4.08
37.00,0.00,225.50,14.19,-120.75,8.31,1.75,3.44,60.81,4.10
37.00,1.00,257.69,-4.12,-61.12,-0.94,1.75,0.94,60.81,4.10
37.00,2.00,284.38,-12.12,21.69,0.75,-3.19,2.00,60.81,4.10
37.00,0.00,225.25,14.25,-120.88,8.69,2.44,4.44,61.13,4.12
37.00,1.00,257.62,-4.12,-61.06,-0.62,1.56,1.12,61.13,4.12
37.00,2.00,284.31,-12.06,21.69,1.44,-3.81,1.88,61.13,4.12
37.00,0.00,225.00,14.38,-121.00,3.75,5.44,0.62,61.24,4.14
37.00,1.00,257.62,-4.12,-61.12,0.44,0.50,1.31,61.24,4.14
37.00,2.00,284.25,-12.00,21.62,1.44,-3.88,1.94,61.24,4.14
37.00,0.00,224.75,14.44,-121.06,4.38,3.38,-0.25,61.39,4.16
37.00,1.00,257.56,-4.06,-61.12,0.19,0.44,1.31,61.39,4.16
37.00,2.00,284.25,-12.00,21.62,0.94,-3.12,2.12,61.39,4.16
37.00,0.00,224.62,14.44,-121.12,5.69,2.25,0.44,61.61,4.18
37.00,1.00,257.56,-4.06,-61.12,0.31,0.31,1.25,61.61,4.18
37.00,2.00,284.19,-11.94,21.56,0.75,-3.06,2.00,61.61,4.18
37.00,0.00,224.50,14.50,-121.31,8.25,1.50,3.94,61.92,4.20
37.00,1.00,257.50,-4.00,-61.12,0.31,0.38,1.06,61.92,4.20
37.00,2.00,284.12,-11.88,21.50,1.38,-3.31,1.62,61.92,4.20
37.00,0.00,224.25,14.56,-121.44,6.19,3.19,2.75,62.10,4.22
37.00,1.00,257.50,-4.00,-61.12,0.50,0.56,1.31,62.10,4.22
37.00,2.00,284.12,-11.81,21.50,2.12,-3.38,1.25,62.10,4.22
37.00,0.00,224.06,14.62,-121.50,3.50,3.31,-0.38,62.18,4.24
37.00,1.00,257.50,-4.00,-61.12,-0.44,0.00,1.00,62.18,4.24
37.00,2.00,284.06,-11.75,21.44,1.75,-3.94,1.31,62.18,4.24
37.00,0.00,223.94,14.69,-121.56,4.19,2.56,0.06,62.31,4.26
37.00,1.00,257.44,-4.00,-61.12,0.19,0.31,1.06,62.31,4.26
37.00,2.00,284.00,-11.69,21.38,1.25,-4.12,1.62,62.31,4.26
37.00,0.00,223.81,14.69,-121.69,5.81,0.88,1.88,62.51,4.28
37.00,1.00,257.44,-3.94,-61.12,0.06,0.12,1.06,62.51,4.28
37.00,2.00,284.00,-11.62,21.38,1.31,-3.94,1.94,62.51,4.28
37.00,0.00,223.69,14.75,-121.81,7.31,0.94,4.00,62.78,4.30
37.00,1.00,257.44,-3.94,-61.12,-0.06,0.00,1.25,62.78,4.30
37.00,2.00,283.94,-11.62,21.31,1.31,-3.44,1.12,62.78,4.30
37.00,0.00,223.44,14.88,-121.94,5.12,3.94,3.19,62.94,4.32
37.00,1.00,257.38,-3.94,-61.12,-0.06,0.56,1.31,62.94,4.32
37.00,2.00,283.88,-11.56,21.31,1.50,-4.19,1.50,62.94,4.32
37.00,0.00,223.19,14.94,-121.94,2.94,4.75,0.38,63.02,4.34
37.00,1.00,257.38,-3.88,-61.12,-0.12,0.12,1.12,63.02,4.34
37.00,2.00,283.88,-11.50,21.25,1.31,-3.69,1.56,63.02,4.34
37.00,0.00,223.06,15.00,-122.00,4.56,2.56,0.88,63.19,4.36
37.00,1.00,257.31,-3.88,-61.12,0.19,0.44,1.31,63.19,4.36
37.00,2.00,283.81,-11.44,21.25,0.69,-3.56,1.69,63.19,4.36
37.00,0.00,222.88,15.06,-122.12,6.88,0.81,3.38,63.48,4.38
37.00,1.00,257.31,-3.88,-61.12,0.06,0.69,1.50,63.48,4.38
37.00,2.00,283.75,-11.38,21.19,0.44,-3.56,1.81,63.48,4.38
37.00,0.00,222.75,15.12,-122.31,7.06,0.38,4.56,63.74,4.40
37.00,1.00,257.25,-3.81,-61.12,-0.06,0.69,1.50,63.74,4.40
37.00,2.00,283.69,-11.31,21.19,1.19,-2.81,1.56,63.74,4.40
37.00,0.00,222.56,15.19,-122.44,5.50,0.69,3.62,63.94,4.42
37.00,1.00,257.25,-3.81,-61.12,-0.25,0.94,1.25,63.94,4.42
37.00,2.00,283.69,-11.31,21.12,1.12,-2.88,1.19,63.94,4.42
37.00,0.00,222.50,15.19,-122.50,4.56,0.06,2.31,64.11,4.44
37.00,1.00,257.19,-3.81,-61.12,-0.25,0.94,1.00,64.11,4.44
37.00,2.00,283.62,-11.25,21.12,0.56,-3.56,1.50,64.11,4.44
37.00,0.00,222.38,15.25,-122.62,6.19,-1.44,3.25,64.38,4.46
37.00,1.00,257.19,-3.81,-61.12,-0.81,1.00,1.25,64.38,4.46
37.00,2.00,283.62,-11.19,21.12,0.19,-3.50,1.62,64.38,4.46
37.00,0.00,222.31,15.31,-122.81,6.88,-1.12,4.25,64.69,4.48
37.00,1.00,257.12,-3.81,-61.12,-0.75,1.00,1.25,64.69,4.48
37.00,2.00,283.56,-11.12,21.12,0.00,-3.69,1.62,64.69,4.48
37.00,0.00,222.19,15.38,-122.88,4.31,1.00,2.75,64.90,4.50
37.00,1.00,257.12,-3.75,-61.12,-0.19,1.12,1.19,64.90,4.50
37.00,2.00,283.50,-11.06,21.12,-0.25,-3.75,1.81,64.90,4.50
37.00,0.00,222.12,15.38,-122.94,2.69,0.56,0.31,65.02,4.52
37.00,1.00,257.06,-3.75,-61.12,-0.50,1.19,1.50,65.02,4.52
37.00,2.00,283.44,-11.00,21.06,0.00,-3.62,1.94,65.02,4.52
37.00,0.00,222.06,15.38,-123.00,4.56,-1.88,1.94,65.20,4.54
37.00,1.00,257.00,-3.75,-61.06,-0.75,0.81,1.25,65.20,4.54
37.00,2.00,283.44,-10.94,21.06,0.38,-3.56,1.75,65.20,4.54
37.00,0.00,222.00,15.44,-123.19,6.38,-1.06,4.75,65.50,4.56
37.00,1.00,257.00,-3.75,-61.06,-0.62,0.94,1.44,65.50,4.56
37.00,2.00,283.38,-10.94,21.06,-0.25,-3.62,1.69,65.50,4.56
37.00,0.00,221.81,15.50,-123.31,5.75,0.12,4.81,65.76,4.58
37.00,1.00,256.94,-3.69,-61.06,-0.75,0.62,1.38,65.76,4.58
37.00,2.00,283.31,-10.88,21.06,0.00,-3.06,1.44,65.76,4.58
37.00,0.00,221.62,15.62,-123.38,3.88,2.56,3.44,65.94,4.60
37.00,1.00,256.94,-3.69,-61.06,-0.88,0.56,1.56,65.94,4.60
37.00,2.00,283.31,-10.81,21.06,-0.31,-3.25,1.44,65.94,4.60
37.00,0.00,221.50,15.62,-123.38,1.94,2.94,0.25,66.06,4.62
37.00,1.00,256.88,-3.69,-61.06,-1.19,1.25,1.31,66.06,4.62
37.00,2.00,283.25,-10.75,21.06,-0.56,-3.38,1.44,66.06,4.62
37.00,0.00,221.38,15.69,-123.44,4.06,1.50,0.69,66.30,4.64
37.00,1.00,256.81,-3.69,-61.00,-1.12,1.44,1.19,66.30,4.64
37.00,2.00,283.19,-10.69,21.06,-1.31,-3.44,2.12,66.30,4.64
37.00,0.00,221.25,15.75,-123.56,6.38,0.69,3.56,66.66,4.66
37.00,1.00,256.81,-3.62,-61.00,-1.00,0.88,1.56,66.66,4.66
37.00,2.00,283.12,-10.69,21.06,-1.81,-2.69,1.69,66.66,4.66
37.00,0.00,221.00,15.81,-123.69,4.50,3.44,3.81,66.93,4.68
37.00,1.00,256.75,-3.62,-61.00,-1.50,0.00,1.19,66.93,4.68
37.00,2.00,283.12,-10.62,21.06,-1.56,-2.12,1.88,66.93,4.68
37.00,0.00,220.75,15.88,-123.69,2.81,4.62,2.19,67.10,4.70
37.00,1.00,256.75,-3.62,-60.94,-1.69,0.50,0.62,67.10,4.70
37.00,2.00,283.06,-10.62,21.12,-0.88,-1.38,1.75,67.10,4.70
37.00,0.00,220.50,16.00,-123.75,3.31,5.00,2.38,67.30,4.72
37.00,1.00,256.75,-3.62,-60.88,-2.31,1.44,0.06,67.30,4.72
37.00,2.00,283.00,-10.56,21.12,-1.12,-3.94,2.56,67.30,4.72
37.00,0.00,220.25,16.06,-123.81,3.50,5.06,3.12,67.52,4.74
37.00,1.00,256.75,-3.62,-60.88,-1.25,0.75,0.44,67.52,4.74
37.00,2.00,282.94,-10.56,21.12,-1.38,-4.94,3.00,67.52,4.74
37.00,0.00,220.00,16.19,-123.81,3.19,4.81,3.69,67.73,4.76
37.00,1.00,256.69,-3.62,-60.88,0.00,1.06,0.88,67.73,4.76
37.00,2.00,282.88,-10.50,21.19,-1.50,-3.69,1.81,67.73,4.76
37.00,0.00,219.75,16.31,-123.88,3.88,5.00,3.62,67.98,4.78
37.00,1.00,256.69,-3.62,-60.88,-0.50,0.50,1.25,67.98,4.78
37.00,2.00,282.81,-10.44,21.19,-1.75,-3.25,0.94,67.98,4.78
37.00,0.00,219.44,16.44,-124.00,5.56,5.00,3.81,68.32,4.80
37.00,1.00,256.62,-3.56,-60.88,-0.69,0.44,1.00,68.32,4.80
37.00,2.00,282.81,-10.38,21.25,-2.12,-3.12,0.62,68.32,4.80
37.00,0.00,219.12,16.56,-124.06,5.50,5.62,3.75,68.63,4.82
37.00,1.00,256.62,-3.56,-60.88,-0.25,0.00,0.44,68.63,4.82
37.00,2.00,282.75,-10.31,21.25,-1.50,-3.56,0.75,68.63,4.82
37.00,0.00,218.94,16.62,-124.12,4.12,4.75,1.75,68.90,4.84
37.00,1.00,256.62,-3.56,-60.88,-0.50,-0.44,0.50,68.90,4.84
37.00,2.00,282.75,-10.25,21.31,-1.69,-3.56,0.44,68.90,4.84
37.00,0.00,218.81,16.62,-124.19,5.12,1.31,2.12,69.14,4.86
37.00,1.00,256.69,-3.56,-60.81,-0.94,-1.19,0.31,69.14,4.86
37.00,2.00,282.75,-10.25,21.38,-0.25,-3.25,-0.06,69.14,4.86
37.00,0.00,218.69,16.69,-124.38,7.19,-0.44,4.69,69.49,4.88
37.00,1.00,256.69,-3.56,-60.81,-0.75,-1.38,0.19,69.49,4.88
37.00,2.00,282.69,-10.19,21.38,-0.69,-3.38,-0.06,69.49,4.88
37.00,0.00,218.44,16.75,-124.50,5.38,1.12,5.31,69.78,4.90
37.00,1.00,256.69,-3.56,-60.81,-0.62,-1.50,0.38,69.78,4.90
37.00,2.00,282.69,-10.12,21.38,-1.25,-3.75,0.19,69.78,4.90
37.00,0.00,218.31,16.81,-124.56,2.62,2.50,1.31,69.96,4.92
37.00,1.00,256.69,-3.56,-60.81,-0.88,-1.25,0.50,69.96,4.92
37.00,2.00,282.69,-10.06,21.44,-1.38,-3.81,-0.44,69.96,4.92
37.00,0.00,218.25,16.88,-124.62,4.56,-0.25,1.00,70.24,4.94
37.00,1.00,256.75,-3.50,-60.75,-0.94,-0.94,0.25,70.24,4.94
37.00,2.00,282.69,-10.00,21.44,-1.69,-3.56,-0.62,70.24,4.94
37.00,0.00,218.12,16.88,-124.75,5.94,0.25,3.25,70.58,4.96
37.00,1.00,256.75,-3.50,-60.75,-0.38,-1.62,0.19,70.58,4.96
37.00,2.00,282.69,-9.94,21.50,-1.56,-3.50,-0.38,70.58,4.96
37.00,0.00,217.94,16.94,-124.81,5.50,-0.06,3.94,70.88,4.98
37.00,1.00,256.75,-3.50,-60.75,-0.25,-1.88,0.62,70.88,4.98
37.00,2.00,282.69,-9.88,21.50,-1.25,-3.25,-1.00,70.88,4.98
37.00,0.00,217.81,17.06,-124.94,5.19,0.69,4.38,71.14,5.00
37.00,1.00,256.75,-3.50,-60.75,0.31,-2.19,0.44,71.14,5.00
37.00,2.00,282.69,-9.81,21.56,-0.56,-2.50,-1.56,71.14,5.00
37.00,0.00,217.62,17.12,-125.06,5.12,2.00,4.31,71.36,5.02
37.00,1.00,256.81,-3.44,-60.75,-0.12,-2.12,0.31,71.36,5.02
37.00,2.00,282.69,-9.75,21.56,0.25,-2.56,-1.69,71.36,5.02
37.00,0.00,217.38,17.19,-125.19,5.94,1.50,5.06,71.64,5.04
37.00,1.00,256.81,-3.44,-60.75,0.19,-1.69,-0.12,71.64,5.04
37.00,2.00,282.69,-9.69,21.56,-0.50,-3.38,-1.19,71.64,5.04
37.00,0.00,217.12,17.31,-125.25,4.62,2.25,4.88,71.89,5.06
37.00,1.00,256.81,-3.44,-60.75,0.25,-1.81,0.00,71.89,5.06
37.00,2.00,282.69,-9.69,21.56,-0.81,-4.12,-1.31,71.89,5.06
37.00,0.00,217.00,17.38,-125.31,2.31,2.81,3.06,72.03,5.08
37.00,1.00,256.88,-3.38,-60.75,0.44,-1.75,0.50,72.03,5.08
37.00,2.00,282.75,-9.56,21.62,-0.75,-4.00,-1.69,72.03,5.08
37.00,0.00,216.88,17.44,-125.31,1.31,0.25,1.56,72.13,5.10
37.00,1.00,256.88,-3.38,-60.75,0.19,-2.00,0.50,72.13,5.10
37.00,2.00,282.75,-9.50,21.62,-0.94,-3.38,-2.00,72.13,5.10
37.00,0.00,216.88,17.44,-125.38,3.94,-3.00,3.50,72.33,5.12
37.00,1.00,256.88,-3.38,-60.75,0.12,-1.94,0.75,72.33,5.12
37.00,2.00,282.81,-9.44,21.62,-0.56,-2.69,-1.62,72.33,5.12
37.00,0.00,216.75,17.50,-125.56,5.50,-1.44,6.56,72.57,5.14
37.00,1.00,256.94,-3.31,-60.75,0.88,-1.81,0.62,72.57,5.14
37.00,2.00,282.81,-9.38,21.62,0.00,-2.81,-1.31,72.57,5.14
37.00,0.00,216.56,17.62,-125.69,4.69,1.19,6.75,72.76,5.16
37.00,1.00,256.94,-3.31,-60.81,1.00,-1.81,0.56,72.76,5.16
37.00,2.00,282.81,-9.31,21.62,0.44,-3.06,-0.94,72.76,5.16
37.00,0.00,216.31,17.75,-125.75,2.44,2.19,4.38,72.86,5.18
37.00,1.00,256.94,-3.31,-60.81,1.00,-2.12,0.56,72.86,5.18
37.00,2.00,282.81,-9.25,21.62,0.38,-3.44,-1.31,72.86,5.18
37.00,0.00,216.12,17.81,-125.75,2.25,1.81,3.81,72.98,5.20
37.00,1.00,256.94,-3.25,-60.81,1.19,-2.19,1.06,72.98,5.20
37.00,2.00,282.81,-9.19,21.62,-0.56,-3.88,-1.31,72.98,5.20
37.00,0.00,216.06,17.88,-125.88,3.44,-0.38,4.44,73.17,5.22
37.00,1.00,256.94,-3.25,-60.81,1.00,-2.12,0.94,73.17,5.22
37.00,2.00,282.81,-9.12,21.62,-0.75,-4.25,-1.81,73.17,5.22
37.00,0.00,215.94,17.94,-125.94,3.88,-0.62,5.19,73.35,5.24
37.00,1.00,257.00,-3.19,-60.88,1.12,-2.69,1.19,73.35,5.24
37.00,2.00,282.88,-9.06,21.69,-0.12,-3.88,-2.44,73.35,5.24
37.00,0.00,215.75,18.06,-126.06,3.62,0.06,5.69,73.50,5.26
37.00,1.00,257.00,-3.12,-60.88,1.00,-2.44,0.88,73.50,5.26
37.00,2.00,282.88,-8.94,21.69,0.19,-3.62,-2.38,73.50,5.26
37.00,0.00,215.56,18.12,-126.06,2.50,1.62,5.25,73.61,5.28
37.00,1.00,257.00,-3.12,-60.88,1.12,-2.81,1.12,73.61,5.28
37.00,2.00,282.94,-8.88,21.69,0.06,-4.06,-2.56,73.61,5.28
37.00,0.00,215.38,18.25,-126.12,2.75,1.81,4.44,73.75,5.30
37.00,1.00,257.00,-3.06,-60.94,1.50,-3.56,1.25,73.75,5.30
37.00,2.00,282.94,-8.81,21.69,-0.31,-3.81,-2.88,73.75,5.30
37.00,0.00,215.25,18.31,-126.25,3.50,0.25,4.88,73.90,5.32
37.00,1.00,257.06,-3.00,-60.94,1.12,-3.44,0.69,73.90,5.32
37.00,2.00,283.00,-8.69,21.69,0.06,-3.31,-3.50,73.90,5.32
37.00,0.00,215.12,18.38,-126.31,3.56,-0.56,4.69,74.04,5.34
37.00,1.00,257.06,-2.94,-60.94,0.94,-2.56,0.75,74.04,5.34
37.00,2.00,283.06,-8.62,21.69,0.50,-3.19,-3.44,74.04,5.34
37.00,0.00,215.00,18.44,-126.38,3.12,-0.50,4.56,74.13,5.36
37.00,1.00,257.06,-2.94,-61.00,1.62,-3.69,0.94,74.13,5.36
37.00,2.00,283.12,-8.56,21.69,1.12,-3.50,-3.19,74.13,5.36
37.00,0.00,214.88,18.50,-126.44,1.94,0.69,4.12,74.15,5.38
37.00,1.00,257.12,-2.88,-61.00,2.00,-3.81,1.19,74.15,5.38
37.00,2.00,283.19,-8.44,21.69,1.38,-3.56,-2.75,74.15,5.38
37.00,0.00,214.75,18.56,-126.50,1.94,0.81,3.00,74.16,5.40
37.00,1.00,257.12,-2.81,-61.06,2.31,-3.38,1.25,74.16,5.40
37.00,2.00,283.19,-8.38,21.69,1.75,-3.75,-2.19,74.16,5.40
37.00,0.00,214.62,18.62,-126.56,4.56,-0.38,4.06,74.24,5.42
37.00,1.00,257.12,-2.75,-61.12,2.50,-2.50,1.06,74.24,5.42
37.00,2.00,283.25,-8.31,21.62,2.88,-3.00,-1.75,74.24,5.42
37.00,0.00,214.44,18.69,-126.69,4.94,0.94,5.25,74.35,5.44
37.00,1.00,257.12,-2.69,-61.12,1.88,-1.94,1.31,74.35,5.44
37.00,2.00,283.25,-8.25,21.56,2.44,-2.81,-1.19,74.35,5.44
37.00,0.00,214.25,18.81,-126.75,4.31,2.44,4.81,74.47,5.46
37.00,1.00,257.12,-2.69,-61.19,1.31,-1.31,0.94,74.47,5.46
37.00,2.00,283.25,-8.19,21.56,1.69,-3.06,0.12,74.47,5.46
37.00,0.00,214.00,18.94,-126.88,4.19,2.25,3.88,74.58,5.48
37.00,1.00,257.12,-2.62,-61.19,1.75,-0.38,1.31,74.58,5.48
37.00,2.00,283.25,-8.12,21.50,1.56,-3.69,0.44,74.58,5.48
37.00,0.00,213.81,19.00,-126.94,4.25,1.75,3.31,74.69,5.50
37.00,1.00,257.06,-2.62,-61.25,2.44,-0.06,1.75,74.69,5.50
37.00,2.00,283.25,-8.06,21.44,1.88,-3.94,0.56,74.69,5.50
37.00,0.00,213.62,19.06,-127.06,3.88,1.81,3.75,74.81,5.52
37.00,1.00,257.00,-2.56,-61.25,1.69,0.12,2.00,74.81,5.52
37.00,2.00,283.19,-8.00,21.44,1.31,-4.31,1.44,74.81,5.52
37.00,0.00,213.44,19.12,-127.12,3.38,2.50,3.19,74.92,5.54
37.00,1.00,257.00,-2.50,-61.31,1.62,0.06,2.19,74.92,5.54
37.00,2.00,283.19,-7.94,21.38,0.88,-4.19,1.62,74.92,5.54
37.00,0.00,213.19,19.25,-127.19,2.31,3.38,2.44,74.95,5.56
37.00,1.00,256.94,-2.50,-61.31,1.88,0.62,1.94,74.95,5.56
37.00,2.00,283.12,-7.88,21.38,1.50,-4.56,2.06,74.95,5.56
37.00,0.00,213.00,19.31,-127.19,2.25,3.00,2.12,74.94,5.58
37.00,1.00,256.88,-2.44,-61.38,1.94,0.94,2.12,74.94,5.58
37.00,2.00,283.06,-7.75,21.31,2.56,-3.75,2.50,74.94,5.58
37.00,0.00,212.88,19.38,-127.25,2.00,2.19,1.88,74.93,5.60
37.00,1.00,256.81,-2.38,-61.38,1.38,1.56,2.06,74.93,5.60
37.00,2.00,283.00,-7.75,21.25,2.25,-3.12,2.75,74.93,5.60
37.00,0.00,212.81,19.38,-127.25,2.38,1.69,1.31,74.97,5.62
37.00,1.00,256.75,-2.38,-61.44,1.00,2.19,1.75,74.97,5.62
37.00,2.00,282.94,-7.69,21.19,1.44,-2.88,3.12,74.97,5.62
37.00,0.00,212.69,19.44,-127.31,2.31,0.75,0.88,75.02,5.64
37.00,1.00,256.69,-2.38,-61.44,0.88,1.69,1.69,75.02,5.64
37.00,2.00,282.88,-7.69,21.12,1.25,-2.00,3.38,75.02,5.64
37.00,0.00,212.62,19.44,-127.38,2.56,0.56,0.62,75.09,5.66
37.00,1.00,256.62,-2.31,-61.44,0.19,2.50,1.50,75.09,5.66
37.00,2.00,282.81,-7.62,21.06,1.06,-1.31,3.19,75.09,5.66
37.00,0.00,212.56,19.44,-127.44,2.50,0.44,0.44,75.19,5.68
37.00,1.00,256.56,-2.31,-61.44,-0.25,2.50,1.12,75.19,5.68
37.00,2.00,282.75,-7.62,21.06,0.06,-0.69,3.12,75.19,5.68
37.00,0.00,212.56,19.44,-127.44,2.31,0.56,0.06,75.29,5.70
37.00,1.00,256.50,-2.31,-61.44,-0.94,2.19,1.25,75.29,5.70
37.00,2.00,282.69,-7.62,21.06,0.19,-1.44,3.19,75.29,5.70
37.00,0.00,212.50,19.44,-127.50,1.75,0.62,-0.44,75.34,5.72
37.00,1.00,256.44,-2.31,-61.44,-0.75,2.00,0.69,75.34,5.72
37.00,2.00,282.56,-7.62,21.06,0.62,-2.12,3.50,75.34,5.72
37.00,0.00,212.44,19.44,-127.56,1.06,1.19,-0.88,75.34,5.74
37.00,1.00,256.44,-2.31,-61.44,-0.44,2.06,0.62,75.34,5.74
37.00,2.00,282.56,-7.62,21.00,1.12,-2.81,3.88,75.34,5.74
37.00,0.00,212.44,19.44,-127.56,1.06,1.75,-0.44,75.36,5.76
37.00,1.00,256.38,-2.31,-61.44,-0.31,2.38,0.56,75.36,5.76
37.00,2.00,282.44,-7.62,21.00,0.62,-2.19,3.56,75.36,5.76
37.00,0.00,212.31,19.50,-127.56,1.56,2.19,-0.25,75.40,5.78
37.00,1.00,256.38,-2.38,-61.38,-0.94,2.50,0.38,75.40,5.78
37.00,2.00,282.38,-7.62,21.00,0.50,-1.75,3.75,75.40,5.78
37.00,0.00,212.19,19.50,-127.56,2.44,3.69,0.12,75.47,5.80
37.00,1.00,256.31,-2.38,-61.38,-0.25,2.94,0.00,75.47,5.80
37.00,2.00,282.25,-7.56,20.94,0.94,-1.56,4.00,75.47,5.80
37.00,0.00,212.00,19.56,-127.62,2.75,3.81,0.56,75.56,5.82
37.00,1.00,256.25,-2.38,-61.38,-1.12,2.88,0.19,75.56,5.82
37.00,2.00,282.19,-7.56,20.94,0.69,-1.31,3.94,75.56,5.82
37.00,0.00,211.81,19.62,-127.62,2.81,3.19,0.62,75.70,5.84
37.00,1.00,256.25,-2.38,-61.38,-1.50,2.88,-0.06,75.70,5.84
37.00,2.00,282.12,-7.62,20.88,-0.12,-1.00,3.88,75.70,5.84
37.00,0.00,211.69,19.62,-127.69,2.94,1.00,0.56,75.84,5.86
37.00,1.00,256.25,-2.44,-61.31,-1.50,2.69,-0.31,75.84,5.86
37.00,2.00,282.00,-7.62,20.88,-0.25,-1.19,3.25,75.84,5.86
37.00,0.00,211.69,19.62,-127.75,2.88,0.19,0.31,75.93,5.88
37.00,1.00,256.19,-2.44,-61.31,-1.50,3.12,-0.81,75.93,5.88
37.00,2.00,282.00,-7.62,20.88,0.81,-0.94,2.75,75.93,5.88
37.00,0.00,211.69,19.62,-127.81,2.94,-2.12,0.19,76.04,5.90
37.00,1.00,256.12,-2.50,-61.25,-1.19,2.69,-0.38,76.04,5.90
37.00,2.00,281.94,-7.62,20.88,0.50,-0.69,2.81,76.04,5.90
37.00,0.00,211.75,19.56,-127.88,2.56,-2.25,0.25,76.14,5.92
37.00,1.00,256.12,-2.50,-61.25,-1.00,1.75,-0.62,76.14,5.92
37.00,2.00,281.88,-7.62,20.88,0.25,-0.56,2.69,76.14,5.92
37.00,0.00,211.75,19.56,-127.88,2.44,-1.88,0.38,76.24,5.94
37.00,1.00,256.12,-2.50,-61.19,-1.31,2.19,-1.44,76.24,5.94
37.00,2.00,281.81,-7.62,20.88,0.19,0.19,2.25,76.24,5.94
37.00,0.00,211.81,19.56,-127.94,2.06,-1.12,0.50,76.28,5.96
37.00,1.00,256.12,-2.62,-61.19,-1.62,2.81,-1.38,76.28,5.96
37.00,2.00,281.75,-7.69,20.81,1.19,1.12,1.88,76.28,5.96
37.00,0.00,211.81,19.50,-128.00,1.25,-0.94,0.75,76.31,5.98
37.00,1.00,256.12,-2.62,-61.12,-1.56,3.00,-1.12,76.31,5.98
37.00,2.00,281.75,-7.69,20.81,0.62,0.38,1.88,76.31,5.98
37.00,0.00,211.81,19.50,-128.00,0.50,-1.38,0.50,76.32,6.00
37.00,1.00,256.06,-2.69,-61.06,-1.31,2.19,-0.81,76.32,6.00
37.00,2.00,281.69,-7.69,20.81,0.19,0.25,1.69,76.32,6.00
37.00,0.00,211.94,19.50,-127.94,0.00,-2.00,0.00,76.32,6.02
37.00,1.00,256.06,-2.69,-61.06,-1.00,2.31,-0.50,76.32,6.02
37.00,2.00,281.69,-7.75,20.81,0.12,0.19,1.62,76.32,6.02
37.00,0.00,212.00,19.50,-127.94,0.06,-1.62,-0.69,76.33,6.04
37.00,1.00,256.06,-2.69,-61.06,-1.00,2.19,-0.19,76.33,6.04
37.00,2.00,281.69,-7.75,20.81,-0.12,0.00,1.56,76.33,6.04
37.00,0.00,212.06,19.44,-127.94,-0.19,-0.81,-0.62,76.34,6.06
37.00,1.00,256.00,-2.75,-61.00,-0.94,2.12,-0.69,76.34,6.06
37.00,2.00,281.62,-7.75,20.81,-0.38,0.25,1.38,76.34,6.06
37.00,0.00,212.06,19.44,-127.94,-0.62,0.38,-0.31,76.31,6.08
37.00,1.00,256.00,-2.75,-61.00,-1.06,2.50,-1.06,76.31,6.08
37.00,2.00,281.56,-7.75,20.75,-0.06,0.12,1.31,76.31,6.08
37.00,0.00,212.00,19.50,-127.94,-0.75,1.94,-0.31,76.27,6.10
37.00,1.00,256.00,-2.81,-60.94,-1.31,2.19,-1.06,76.27,6.10
37.00,2.00,281.56,-7.75,20.75,0.19,0.50,1.50,76.27,6.10
37.00,0.00,211.94,19.50,-127.88,-0.62,1.75,-0.31,76.25,6.12
37.00,1.00,256.00,-2.81,-60.94,-0.69,2.56,-0.62,76.25,6.12
37.00,2.00,281.56,-7.81,20.75,-0.31,0.75,1.62,76.25,6.12
37.00,0.00,211.94,19.50,-127.88,-0.81,0.88,-0.44,76.27,6.14
37.00,1.00,255.94,-2.88,-60.88,-1.00,1.81,-0.38,76.27,6.14
37.00,2.00,281.50,-7.81,20.81,-1.12,0.56,1.38,76.27,6.14
37.00,0.00,211.94,19.50,-127.88,-0.50,0.38,-0.94,76.30,6.16
37.00,1.00,255.94,-2.88,-60.88,-0.94,1.62,-0.69,76.30,6.16
37.00,2.00,281.50,-7.81,20.81,-1.31,0.31,1.44,76.30,6.16
37.00,0.00,212.00,19.44,-127.81,0.19,-0.25,-1.00,76.34,6.18
37.00,1.00,255.94,-2.88,-60.88,-0.75,1.56,-0.56,76.34,6.18
37.00,2.00,281.44,-7.81,20.81,-0.62,0.56,1.00,76.34,6.18
37.00,0.00,212.00,19.44,-127.81,0.12,-0.62,-0.81,76.37,6.20
37.00,1.00,255.94,-2.94,-60.88,-0.50,0.75,-0.50,76.37,6.20
37.00,2.00,281.44,-7.81,20.81,-0.44,0.56,1.06,76.37,6.20
37.00,0.00,212.06,19.44,-127.81,-0.12,-0.75,-0.62,76.38,6.22
37.00,1.00,255.94,-2.94,-60.81,-0.56,0.38,-0.50,76.38,6.22
37.00,2.00,281.44,-7.81,20.81,-0.38,0.12,0.88,76.38,6.22
37.00,0.00,212.06,19.44,-127.81,-0.12,-0.62,-0.56,76.35,6.24
37.00,1.00,255.94,-2.94,-60.81,-0.38,0.44,-1.12,76.35,6.24
37.00,2.00,281.38,-7.81,20.81,0.44,0.19,0.75,76.35,6.24
37.00,0.00,212.06,19.38,-127.81,0.00,-0.38,-0.75,76.34,6.26
37.00,1.00,255.94,-2.94,-60.81,-0.31,0.69,-0.94,76.34,6.26
37.00,2.00,281.38,-7.88,20.81,0.31,0.25,0.69,76.34,6.26
37.00,0.00,212.06,19.38,-127.81,0.25,-0.44,-0.50,76.34,6.28
37.00,1.00,256.00,-2.94,-60.81,-0.50,0.44,-0.75,76.34,6.28
37.00,2.00,281.38,-7.88,20.81,0.12,0.25,0.50,76.34,6.28
37.00,0.00,212.06,19.38,-127.81,0.31,0.12,-0.19,76.36,6.30
37.00,1.00,256.00,-3.00,-60.81,-0.75,0.94,-0.62,76.36,6.30
37.00,2.00,281.38,-7.88,20.81,-0.12,0.00,0.38,76.36,6.30
37.00,0.00,212.06,19.44,-127.81,0.00,1.00,0.19,76.36,6.32
37.00,1.00,256.00,-3.00,-60.75,-0.31,0.69,-0.81,76.36,6.32
37.00,2.00,281.38,-7.88,20.81,0.06,-0.19,0.75,76.36,6.32
37.00,0.00,212.00,19.44,-127.81,0.06,1.06,0.44,76.35,6.34
37.00,1.00,256.00,-3.00,-60.75,-0.25,1.06,-0.75,76.35,6.34
37.00,2.00,281.38,-7.88,20.81,0.25,-0.25,0.88,76.35,6.34
37.00,0.00,212.00,19.44,-127.81,-0.25,0.31,0.62,76.33,6.36
37.00,1.00,256.00,-3.06,-60.75,-0.25,1.38,-0.31,76.33,6.36
37.00,2.00,281.31,-7.88,20.81,0.25,0.06,0.75,76.33,6.36
37.00,0.00,212.00,19.44,-127.81,0.44,0.31,0.25,76.35,6.38
37.00,1.00,256.00,-3.06,-60.75,-0.25,1.31,0.00,76.35,6.38
37.00,2.00,281.31,-7.88,20.81,0.06,-0.31,0.56,76.35,6.38
37.00,0.00,212.00,19.44,-127.81,0.75,0.25,-0.12,76.38,6.40
37.00,1.00,255.94,-3.06,-60.75,-0.19,1.12,0.44,76.38,6.40
37.00,2.00,281.31,-7.88,20.81,0.06,-0.38,0.50,76.38,6.40
37.00,0.00,212.00,19.44,-127.81,0.69,0.31,-0.12,76.43,6.42
37.00,1.00,255.94,-3.06,-60.75,-0.19,0.56,0.69,76.43,6.42
37.00,2.00,281.31,-7.88,20.81,-0.44,-0.75,1.00,76.43,6.42
37.00,0.00,212.00,19.44,-127.81,0.75,1.00,-0.19,76.47,6.44
37.00,1.00,255.94,-3.06,-60.75,-0.06,0.25,0.38,76.47,6.44
37.00,2.00,281.31,-7.88,20.81,-0.12,-0.88,1.00,76.47,6.44
37.00,0.00,211.88,19.44,-127.81,0.38,2.06,-0.38,76.45,6.46
37.00,1.00,255.94,-3.06,-60.75,-0.25,0.31,0.31,76.45,6.46
37.00,2.00,281.25,-7.88,20.81,0.75,-0.38,1.12,76.45,6.46
37.00,0.00,211.81,19.50,-127.81,0.31,2.31,-0.44,76.45,6.48
37.00,1.00,255.94,-3.06,-60.75,-0.25,0.38,0.31,76.45,6.48
37.00,2.00,281.25,-7.88,20.81,0.38,-0.75,1.38,76.45,6.48
37.00,0.00,211.75,19.50,-127.81,-0.12,1.69,-0.50,76.44,6.50
37.00,1.00,255.94,-3.06,-60.75,-0.50,0.62,0.56,76.44,6.50
37.00,2.00,281.19,-7.88,20.75,0.06,-1.44,1.88,76.44,6.50
37.00,0.00,211.69,19.50,-127.81,-0.38,1.69,-0.50,76.42,6.52
37.00,1.00,255.94,-3.06,-60.75,-0.69,1.00,0.56,76.42,6.52
37.00,2.00,281.19,-7.81,20.75,0.12,-1.19,1.75,76.42,6.52
37.00,0.00,211.69,19.56,-127.81,-0.50,1.56,-0.69,76.39,6.54
37.00,1.00,255.94,-3.06,-60.69,-0.62,1.19,0.62,76.39,6.54
37.00,2.00,281.12,-7.81,20.75,0.12,-0.69,1.75,76.39,6.54
37.00,0.00,211.62,19.56,-127.75,-0.25,0.94,-0.69,76.42,6.56
37.00,1.00,255.88,-3.06,-60.69,-0.38,1.06,0.94,76.42,6.56
37.00,2.00,281.06,-7.81,20.75,-1.00,-1.06,1.88,76.42,6.56
37.00,0.00,211.62,19.56,-127.75,-0.31,0.69,-0.69,76.46,6.58
37.00,1.00,255.88,-3.06,-60.69,-0.31,0.50,1.12,76.46,6.58
37.00,2.00,281.06,-7.81,20.75,-1.12,-0.75,2.19,76.46,6.58
37.00,0.00,211.62,19.56,-127.75,-0.06,0.75,-0.75,76.46,6.60
37.00,1.00,255.88,-3.06,-60.69,-0.31,0.88,0.50,76.46,6.60
37.00,2.00,281.00,-7.81,20.81,-0.19,0.19,1.69,76.46,6.60
37.00,0.00,211.56,19.56,-127.75,-0.12,0.75,-0.44,76.46,6.62
37.00,1.00,255.81,-3.06,-60.69,-0.69,1.12,0.31,76.46,6.62
37.00,2.00,281.00,-7.88,20.75,-0.12,0.38,1.44,76.46,6.62
37.00,0.00,211.56,19.56,-127.75,-0.38,-0.12,-0.25,76.48,6.64
37.00,1.00,255.81,-3.06,-60.69,-0.69,1.75,0.44,76.48,6.64
37.00,2.00,280.94,-7.88,20.75,-0.69,-0.50,1.69,76.48,6.64
37.00,0.00,211.62,19.56,-127.75,-1.19,-0.25,-0.88,76.43,6.66
37.00,1.00,255.81,-3.06,-60.69,-0.62,0.94,0.38,76.43,6.66
37.00,2.00,280.94,-7.88,20.75,-0.12,-0.50,1.69,76.43,6.66
37.00,0.00,211.69,19.50,-127.69,-1.19,-0.38,-1.12,76.38,6.68
37.00,1.00,255.81,-3.06,-60.69,-0.25,1.00,0.56,76.38,6.68
37.00,2.00,280.88,-7.88,20.75,0.00,0.31,1.31,76.38,6.68
37.00,0.00,211.69,19.50,-127.69,-1.19,-0.50,-0.88,76.34,6.70
37.00,1.00,255.75,-3.06,-60.69,-0.06,0.81,0.44,76.34,6.70
37.00,2.00,280.88,-7.88,20.75,-0.38,0.50,1.06,76.34,6.70
37.00,0.00,211.69,19.50,-127.62,-0.62,-0.06,-0.62,76.29,6.72
37.00,1.00,255.75,-3.12,-60.69,-0.19,1.25,0.12,76.29,6.72
37.00,2.00,280.81,-7.88,20.75,0.44,0.50,1.19,76.29,6.72
37.00,0.00,211.69,19.50,-127.62,-0.62,0.94,-0.38,76.25,6.74
37.00,1.00,255.75,-3.12,-60.69,-0.44,1.81,0.00,76.25,6.74
37.00,2.00,280.81,-7.94,20.75,0.38,0.06,1.12,76.25,6.74
37.00,0.00,211.69,19.50,-127.62,-0.88,1.25,-0.19,76.23,6.76
37.00,1.00,255.75,-3.12,-60.69,-0.81,1.75,0.12,76.23,6.76
37.00,2.00,280.81,-7.94,20.75,-0.50,-0.44,1.69,76.23,6.76
37.00,0.00,211.69,19.50,-127.56,-1.38,0.12,-0.31,76.26,6.78
37.00,1.00,255.69,-3.12,-60.62,-1.12,1.25,0.44,76.26,6.78
37.00,2.00,280.75,-7.94,20.75,-2.00,-0.44,1.94,76.26,6.78
37.00,0.00,211.75,19.50,-127.56,-0.94,-1.62,0.25,76.28,6.80
37.00,1.00,255.69,-3.12,-60.62,-0.06,0.75,0.44,76.28,6.80
37.00,2.00,280.69,-7.94,20.81,-1.44,-0.19,1.50,76.28,6.80
37.00,0.00,211.81,19.50,-127.56,-0.38,-1.06,0.06,76.30,6.82
37.00,1.00,255.69,-3.19,-60.62,0.12,1.38,-0.31,76.30,6.82
37.00,2.00,280.69,-7.94,20.81,-0.81,0.56,1.25,76.30,6.82
37.00,0.00,211.81,19.50,-127.56,-0.44,-1.19,0.00,76.24,6.84
37.00,1.00,255.69,-3.19,-60.62,0.12,1.44,-0.25,76.24,6.84
37.00,2.00,280.69,-8.00,20.81,0.88,1.19,0.50,76.24,6.84
37.00,0.00,211.94,19.44,-127.56,-0.69,-2.31,0.19,76.17,6.86
37.00,1.00,255.69,-3.19,-60.62,0.38,1.50,0.00,76.17,6.86
37.00,2.00,280.69,-8.00,20.81,0.88,1.38,0.50,76.17,6.86
37.00,0.00,212.00,19.44,-127.56,-0.81,-3.06,0.75,76.12,6.88
37.00,1.00,255.62,-3.19,-60.62,0.56,1.00,-0.12,76.12,6.88
37.00,2.00,280.69,-8.00,20.75,0.38,0.81,0.50,76.12,6.88
37.00,0.00,212.06,19.44,-127.56,-0.75,-2.50,1.00,76.08,6.90
37.00,1.00,255.62,-3.19,-60.62,0.38,0.94,-0.25,76.08,6.90
37.00,2.00,280.69,-8.00,20.75,0.12,1.00,0.56,76.08,6.90
37.00,0.00,212.06,19.44,-127.56,-0.06,-0.56,0.69,76.03,6.92
37.00,1.00,255.62,-3.25,-60.69,0.81,1.06,-0.56,76.03,6.92
37.00,2.00,280.69,-8.06,20.75,1.06,1.12,0.56,76.03,6.92
37.00,0.00,212.06,19.44,-127.56,-0.44,0.81,0.38,75.97,6.94
37.00,1.00,255.62,-3.25,-60.69,0.56,1.38,-0.50,75.97,6.94
37.00,2.00,280.75,-8.06,20.75,1.00,0.94,0.62,75.97,6.94
37.00,0.00,212.00,19.44,-127.56,-0.31,0.75,0.38,75.92,6.96
37.00,1.00,255.62,-3.25,-60.69,0.56,1.00,-0.19,75.92,6.96
37.00,2.00,280.69,-8.06,20.75,0.69,0.38,0.69,75.92,6.96
37.00,0.00,212.00,19.44,-127.56,-0.62,0.31,0.94,75.88,6.98
37.00,1.00,255.56,-3.25,-60.69,-0.06,1.69,-0.50,75.88,6.98
37.00,2.00,280.69,-8.06,20.75,0.25,-0.06,1.38,75.88,6.98
37.00,0.00,212.06,19.44,-127.56,-1.19,-0.19,1.06,75.81,7.00
37.00,1.00,255.56,-3.25,-60.69,-0.25,1.19,-0.38,75.81,7.00
37.00,2.00,280.69,-8.06,20.75,0.38,0.00,1.25,75.81,7.00
37.00,0.00,212.06,19.44,-127.50,-1.12,-1.00,0.94,75.76,7.02
37.00,1.00,255.56,-3.31,-60.69,-0.31,1.56,-0.06,75.76,7.02
37.00,2.00,280.62,-8.12,20.75,0.06,0.19,1.25,75.76,7.02
37.00,0.00,212.12,19.44,-127.50,-0.44,-1.25,0.31,75.75,7.04
37.00,1.00,255.56,-3.31,-60.69,-0.12,1.56,0.06,75.75,7.04
37.00,2.00,280.62,-8.12,20.75,-0.12,0.88,0.81,75.75,7.04
37.00,0.00,212.19,19.44,-127.50,-0.12,-0.75,-0.31,75.75,7.06
37.00,1.00,255.50,-3.31,-60.69,-0.31,0.94,-0.31,75.75,7.06
37.00,2.00,280.62,-8.12,20.75,-0.12,0.94,0.81,75.75,7.06
37.00,0.00,212.19,19.44,-127.50,0.25,0.00,-0.50,75.76,7.08
37.00,1.00,255.50,-3.31,-60.69,-0.25,0.94,-0.19,75.76,7.08
37.00,2.00,280.62,-8.19,20.75,-0.12,1.19,0.19,75.76,7.08
37.00,0.00,212.19,19.44,-127.50,0.19,-0.25,-0.75,75.76,7.10
37.00,1.00,255.50,-3.31,-60.69,-0.31,0.38,-0.56,75.76,7.10
37.00,2.00,280.62,-8.19,20.75,0.31,1.44,-0.12,75.76,7.10
37.00,0.00,212.19,19.38,-127.50,0.12,0.56,-1.12,75.76,7.12
37.00,1.00,255.50,-3.31,-60.69,-0.06,0.00,-0.88,75.76,7.12
37.00,2.00,280.62,-8.19,20.75,0.06,0.69,0.00,75.76,7.12
37.00,0.00,212.19,19.38,-127.44,0.31,1.56,-1.06,75.78,7.14
37.00,1.00,255.56,-3.38,-60.69,-0.06,-0.19,-0.75,75.78,7.14
37.00,2.00,280.62,-8.25,20.75,-0.06,0.81,0.06,75.78,7.14
37.00,0.00,212.12,19.38,-127.50,1.38,1.25,-0.62,75.87,7.16
37.00,1.00,255.56,-3.38,-60.69,0.19,-0.31,-0.62,75.87,7.16
37.00,2.00,280.62,-8.25,20.75,-0.62,0.88,-0.06,75.87,7.16
37.00,0.00,212.12,19.38,-127.50,1.81,0.56,-0.50,75.95,7.18
37.00,1.00,255.56,-3.38,-60.69,0.00,-0.19,-0.69,75.95,7.18
37.00,2.00,280.62,-8.25,20.75,-0.12,1.31,-0.31,75.95,7.18
37.00,0.00,212.12,19.38,-127.56,2.69,0.31,-0.56,76.05,7.20
37.00,1.00,255.56,-3.38,-60.62,0.44,0.06,-1.00,76.05,7.20
37.00,2.00,280.62,-8.31,20.75,0.44,1.44,-0.94,76.05,7.20
37.00,0.00,212.06,19.38,-127.56,3.75,0.50,-1.19,76.22,7.22
37.00,1.00,255.56,-3.38,-60.62,0.25,0.38,-0.81,76.22,7.22
37.00,2.00,280.69,-8.31,20.75,0.06,1.75,-0.94,76.22,7.22
37.00,0.00,212.00,19.38,-127.62,4.88,0.69,-1.38,76.49,7.24
37.00,1.00,255.62,-3.38,-60.62,0.69,-1.38,-0.25,76.49,7.24
37.00,2.00,280.69,-8.31,20.81,-1.25,1.06,-1.19,76.49,7.24
37.00,0.00,212.00,19.31,-127.69,5.31,-0.06,-2.00,76.78,7.26
37.00,1.00,255.62,-3.38,-60.62,1.50,-2.31,-0.94,76.78,7.26
37.00,2.00,280.75,-8.38,20.81,-1.06,1.38,-1.88,76.78,7.26
37.00,0.00,212.06,19.25,-127.75,5.19,-1.56,-2.62,77.02,7.28
37.00,1.00,255.69,-3.38,-60.62,1.44,-2.38,-1.19,77.02,7.28
37.00,2.00,280.81,-8.38,20.88,-0.25,1.69,-3.00,77.02,7.28
