Iteration,IMUNo,OrientationX (deg),OrientationY,OrientationZ,GyroX (20rad/sec),GyroY,GyroZ,Elbow_Pos (rad),Time (sec)
4.00,0.00,218.38,2.50,-104.81,-0.62,1.38,-0.69,0.00,0.00
4.00,1.00,252.44,-1.25,-64.06,0.06,0.31,0.69,0.00,0.00
4.00,2.00,329.81,-14.56,20.75,-0.75,-0.31,0.56,0.00,0.00
4.00,0.00,219.69,2.56,-104.50,-1.81,-0.62,-0.50,-0.01,1.02
4.00,1.00,252.19,-1.00,-63.94,-1.12,0.06,0.25,-0.01,1.02
4.00,2.00,329.81,-14.50,21.00,-1.31,0.38,0.12,-0.01,1.02
4.00,0.00,219.75,2.56,-104.44,-1.62,-0.38,-0.62,-0.01,1.04
4.00,1.00,252.19,-1.00,-63.88,-1.12,-0.19,0.56,-0.01,1.04
4.00,2.00,329.81,-14.50,21.06,-1.50,0.00,0.12,-0.01,1.04
4.00,0.00,219.75,2.56,-104.38,-1.56,-0.06,-0.62,-0.03,1.06
4.00,1.00,252.19,-1.00,-63.88,-1.00,0.12,0.44,-0.03,1.06
4.00,2.00,329.81,-14.50,21.06,-0.62,0.00,-0.12,-0.03,1.06
4.00,0.00,219.81,2.56,-104.38,-1.44,0.06,-0.62,-0.04,1.08
4.00,1.00,252.19,-1.00,-63.88,-0.94,0.19,0.44,-0.04,1.08
4.00,2.00,329.81,-14.50,21.06,-0.56,0.19,-0.44,-0.04,1.08
4.00,0.00,219.81,2.56,-104.38,-1.44,0.50,-0.56,-0.05,1.10
4.00,1.00,252.19,-1.00,-63.81,-1.38,0.31,0.25,-0.05,1.10
4.00,2.00,329.81,-14.50,21.06,-1.06,0.38,0.19,-0.05,1.10
4.00,0.00,219.81,2.56,-104.31,-1.50,0.88,-0.50,-0.05,1.12
4.00,1.00,252.19,-1.00,-63.81,-1.44,0.31,0.19,-0.05,1.12
4.00,2.00,329.81,-14.50,21.12,-1.31,0.56,0.31,-0.05,1.12
4.00,0.00,219.81,2.56,-104.31,-1.50,0.69,-0.69,-0.05,1.14
4.00,1.00,252.19,-1.00,-63.75,-1.56,0.31,0.06,-0.05,1.14
4.00,2.00,329.81,-14.50,21.12,-1.62,0.44,0.38,-0.05,1.14
4.00,0.00,219.81,2.56,-104.25,-1.50,0.75,-1.00,-0.05,1.16
4.00,1.00,252.19,-1.00,-63.75,-1.56,0.50,-0.06,-0.05,1.16
4.00,2.00,329.81,-14.50,21.19,-1.19,0.69,0.25,-0.05,1.16
4.00,0.00,219.81,2.50,-104.25,-1.56,0.81,-1.06,-0.06,1.18
4.00,1.00,252.19,-1.00,-63.69,-2.06,0.69,-0.06,-0.06,1.18
4.00,2.00,329.81,-14.50,21.19,-1.19,0.50,0.44,-0.06,1.18
4.00,0.00,219.88,2.50,-104.19,-1.44,0.44,-0.94,-0.05,1.20
4.00,1.00,252.19,-1.00,-63.69,-2.06,1.19,0.31,-0.05,1.20
4.00,2.00,329.75,-14.50,21.25,-2.06,-0.06,0.81,-0.05,1.20
4.00,0.00,219.88,2.50,-104.19,-1.69,0.69,-0.81,-0.04,1.22
4.00,1.00,252.19,-1.06,-63.62,-2.06,1.00,0.25,-0.04,1.22
4.00,2.00,329.75,-14.50,21.25,-2.12,-0.12,0.94,-0.04,1.22
4.00,0.00,219.88,2.50,-104.12,-1.75,1.38,-0.94,-0.04,1.24
4.00,1.00,252.12,-1.06,-63.56,-2.31,1.06,0.38,-0.04,1.24
4.00,2.00,329.75,-14.50,21.31,-1.88,-0.19,0.75,-0.04,1.24
4.00,0.00,219.81,2.50,-104.12,-1.31,2.62,-0.69,-0.04,1.26
4.00,1.00,252.12,-1.06,-63.56,-2.31,1.06,0.00,-0.04,1.26
4.00,2.00,329.69,-14.50,21.31,-1.25,-0.25,0.75,-0.04,1.26
4.00,0.00,219.62,2.50,-104.06,-1.38,2.88,-0.56,-0.05,1.28
4.00,1.00,252.12,-1.06,-63.50,-2.81,1.75,-0.31,-0.05,1.28
4.00,2.00,329.69,-14.50,21.38,-1.12,-1.00,0.88,-0.05,1.28
4.00,0.00,219.56,2.50,-104.06,-0.50,4.38,-0.19,-0.05,1.30
4.00,1.00,252.12,-1.06,-63.44,-3.44,1.44,-0.25,-0.05,1.30
4.00,2.00,329.69,-14.50,21.38,-0.06,-0.38,0.44,-0.05,1.30
4.00,0.00,219.44,2.56,-104.06,1.19,5.25,0.50,-0.03,1.32
4.00,1.00,252.06,-1.06,-63.38,-3.62,1.12,-0.56,-0.03,1.32
4.00,2.00,329.69,-14.50,21.38,-0.12,0.25,0.31,-0.03,1.32
4.00,0.00,219.25,2.62,-104.12,3.56,5.94,1.31,0.03,1.34
4.00,1.00,252.06,-1.12,-63.25,-3.81,1.69,-1.69,0.03,1.34
4.00,2.00,329.62,-14.50,21.38,0.06,0.44,0.88,0.03,1.34
4.00,0.00,219.00,2.69,-104.25,5.50,5.94,2.00,0.14,1.36
4.00,1.00,252.06,-1.19,-63.19,-4.31,2.31,-1.81,0.14,1.36
4.00,2.00,329.62,-14.50,21.38,-0.25,0.12,1.06,0.14,1.36
4.00,0.00,218.81,2.75,-104.44,7.81,6.50,2.88,0.25,1.38
4.00,1.00,252.12,-1.25,-63.12,-4.81,1.50,-2.25,0.25,1.38
4.00,2.00,329.62,-14.50,21.31,1.25,-2.00,0.81,0.25,1.38
4.00,0.00,218.50,2.88,-104.75,10.94,6.75,3.44,0.36,1.40
4.00,1.00,252.12,-1.31,-63.00,-4.81,0.94,-2.62,0.36,1.40
4.00,2.00,329.62,-14.50,21.25,4.69,-1.25,-0.50,0.36,1.40
4.00,0.00,218.12,3.06,-105.12,15.56,8.44,4.94,0.55,1.42
4.00,1.00,252.19,-1.38,-62.94,-4.00,0.94,-3.50,0.55,1.42
4.00,2.00,329.62,-14.44,21.12,5.31,-0.44,-0.62,0.55,1.42
4.00,0.00,217.56,3.31,-105.62,21.12,9.81,7.25,0.82,1.44
4.00,1.00,252.25,-1.44,-62.88,-4.12,0.62,-3.62,0.82,1.44
4.00,2.00,329.62,-14.44,21.06,5.75,0.25,0.44,0.82,1.44
4.00,0.00,217.06,3.56,-106.06,26.56,12.31,9.75,1.20,1.46
4.00,1.00,252.31,-1.50,-62.75,-4.25,0.12,-4.06,1.20,1.46
4.00,2.00,329.62,-14.50,20.94,5.50,0.12,1.44,1.20,1.46
4.00,0.00,216.44,3.88,-106.69,32.00,15.06,11.75,1.72,1.48
4.00,1.00,252.44,-1.56,-62.69,-4.25,-1.31,-4.94,1.72,1.48
4.00,2.00,329.62,-14.50,20.88,2.81,-1.12,2.50,1.72,1.48
4.00,0.00,215.69,4.19,-107.38,37.62,16.50,13.19,2.35,1.50
4.00,1.00,252.56,-1.62,-62.62,-3.31,-1.94,-5.94,2.35,1.50
4.00,2.00,329.56,-14.50,20.81,2.62,-1.94,2.75,2.35,1.50
4.00,0.00,214.88,4.56,-108.12,43.62,16.00,15.06,3.05,1.52
4.00,1.00,252.69,-1.75,-62.56,-3.00,-1.56,-5.81,3.05,1.52
4.00,2.00,329.56,-14.50,20.75,4.56,0.38,1.44,3.05,1.52
4.00,0.00,214.00,4.94,-109.06,48.75,13.69,16.88,3.75,1.54
4.00,1.00,252.81,-1.81,-62.50,-3.62,-1.38,-5.44,3.75,1.54
4.00,2.00,329.56,-14.56,20.62,9.94,3.81,0.31,3.75,1.54
4.00,0.00,213.19,5.31,-110.06,51.62,11.62,16.69,4.49,1.56
4.00,1.00,252.94,-1.88,-62.44,-2.94,-0.88,-5.44,4.49,1.56
4.00,2.00,329.56,-14.62,20.38,10.25,4.75,1.75,4.49,1.56
4.00,0.00,212.38,5.69,-111.06,53.25,11.06,14.75,5.37,1.58
4.00,1.00,253.06,-2.00,-62.38,-2.94,-0.25,-4.94,5.37,1.58
4.00,2.00,329.50,-14.69,20.25,4.06,1.31,5.56,5.37,1.58
4.00,0.00,211.62,6.00,-112.12,55.31,10.25,14.25,6.38,1.60
4.00,1.00,253.12,-2.06,-62.31,-2.75,0.38,-4.56,6.38,1.60
4.00,2.00,329.38,-14.75,20.25,-1.31,-2.50,8.06,6.38,1.60
4.00,0.00,210.81,6.38,-113.19,57.56,10.69,14.12,7.49,1.62
4.00,1.00,253.19,-2.12,-62.25,-2.94,0.31,-4.06,7.49,1.62
4.00,2.00,329.19,-14.75,20.25,-4.12,-2.38,9.62,7.49,1.62
4.00,0.00,210.00,6.69,-114.38,59.94,10.31,14.25,8.60,1.64
4.00,1.00,253.25,-2.19,-62.19,-2.69,1.12,-4.00,8.60,1.64
4.00,2.00,328.94,-14.75,20.25,-2.00,-1.88,10.31,8.60,1.64
4.00,0.00,209.25,7.00,-115.56,62.69,8.75,14.38,9.75,1.66
4.00,1.00,253.31,-2.31,-62.12,-3.56,2.06,-4.12,9.75,1.66
4.00,2.00,328.75,-14.81,20.19,-1.50,-0.75,11.19,9.75,1.66
4.00,0.00,208.56,7.25,-116.81,64.75,5.25,13.50,10.94,1.68
4.00,1.00,253.38,-2.38,-62.06,-3.19,2.25,-3.31,10.94,1.68
4.00,2.00,328.50,-14.88,20.19,-1.69,-0.25,10.50,10.94,1.68
4.00,0.00,207.94,7.50,-118.06,65.06,2.31,11.00,12.16,1.70
4.00,1.00,253.38,-2.44,-62.00,-1.94,4.00,-2.50,12.16,1.70
4.00,2.00,328.31,-14.94,20.12,-3.50,0.19,11.06,12.16,1.70
4.00,0.00,207.44,7.62,-119.38,65.56,-0.38,8.50,13.51,1.72
4.00,1.00,253.38,-2.50,-62.00,-2.62,3.69,-1.94,13.51,1.72
4.00,2.00,328.06,-15.06,20.19,-9.56,-0.88,11.81,13.51,1.72
4.00,0.00,206.75,7.75,-120.62,65.19,-1.81,5.94,14.86,1.74
4.00,1.00,253.38,-2.56,-61.94,-2.31,3.94,-2.06,14.86,1.74
4.00,2.00,327.75,-15.12,20.31,-10.19,-2.81,12.25,14.86,1.74
4.00,0.00,206.44,7.81,-121.94,65.12,-2.88,4.94,16.18,1.76
4.00,1.00,253.38,-2.69,-61.88,-3.44,4.38,-1.50,16.18,1.76
4.00,2.00,327.44,-15.12,20.44,-8.62,-3.38,13.38,16.18,1.76
4.00,0.00,206.12,7.81,-123.19,64.44,-3.62,3.69,17.45,1.78
4.00,1.00,253.31,-2.75,-61.81,-3.50,4.75,-1.00,17.45,1.78
4.00,2.00,327.19,-15.19,20.50,-6.50,-1.25,13.50,17.45,1.78
4.00,0.00,205.88,7.81,-124.44,64.69,-5.88,2.81,18.70,1.80
4.00,1.00,253.31,-2.81,-61.75,-3.25,4.81,-0.88,18.70,1.80
4.00,2.00,326.94,-15.25,20.50,-5.19,-0.12,12.94,18.70,1.80
4.00,0.00,205.69,7.75,-125.69,64.50,-6.00,3.31,19.93,1.82
4.00,1.00,253.25,-2.81,-61.69,-3.25,4.75,-0.88,19.93,1.82
4.00,2.00,326.62,-15.31,20.50,-4.38,-1.06,12.19,19.93,1.82
4.00,0.00,205.44,7.75,-126.94,63.94,-5.94,3.69,21.15,1.84
4.00,1.00,253.19,-2.88,-61.62,-4.56,4.06,-0.94,21.15,1.84
4.00,2.00,326.44,-15.38,20.56,-3.88,-3.31,11.56,21.15,1.84
4.00,0.00,205.31,7.69,-128.06,62.00,-7.19,2.38,22.31,1.86
4.00,1.00,253.19,-2.94,-61.50,-5.38,4.38,-1.12,22.31,1.86
4.00,2.00,326.19,-15.38,20.50,-2.62,-3.12,11.12,22.31,1.86
4.00,0.00,205.31,7.62,-128.62,60.50,-7.75,0.69,23.49,1.88
4.00,1.00,253.12,-3.00,-61.44,-7.00,5.00,-0.81,23.49,1.88
4.00,2.00,325.94,-15.38,20.56,-5.62,-3.00,9.38,23.49,1.88
4.00,0.00,205.00,7.44,-130.31,60.81,-7.75,-1.19,24.73,1.90
4.00,1.00,253.12,-3.06,-61.25,-9.81,3.19,-0.44,24.73,1.90
4.00,2.00,325.75,-15.44,20.62,-8.44,-1.62,9.44,24.73,1.90
4.00,0.00,204.94,7.31,-131.50,61.00,-6.75,-3.19,26.02,1.92
4.00,1.00,253.06,-3.12,-61.06,-11.75,1.62,-0.75,26.02,1.92
4.00,2.00,325.56,-15.44,20.75,-10.81,-0.75,8.50,26.02,1.92
4.00,0.00,204.69,7.25,-132.12,60.50,-12.12,-3.62,27.29,1.94
4.00,1.00,253.06,-3.19,-60.94,-9.69,2.25,-1.62,27.29,1.94
4.00,2.00,325.31,-15.50,20.94,-10.81,-1.69,9.38,27.29,1.94
4.00,0.00,204.88,7.00,-133.31,58.94,-13.19,-4.69,28.54,1.96
4.00,1.00,253.12,-3.25,-60.81,-7.12,2.44,-2.94,28.54,1.96
4.00,2.00,325.12,-15.56,21.12,-10.38,-1.75,9.19,28.54,1.96
4.00,0.00,205.12,6.75,-134.44,56.62,-12.50,-5.75,29.73,1.98
4.00,1.00,253.12,-3.38,-60.69,-7.31,3.25,-2.81,29.73,1.98
4.00,2.00,324.94,-15.62,21.25,-9.88,1.81,6.50,29.73,1.98
4.00,0.00,43.75,6.50,-135.56,52.56,-11.56,-8.94,30.79,2.00
4.00,1.00,253.19,-3.44,-60.50,-9.50,2.12,-3.00,30.79,2.00
4.00,2.00,324.81,-15.69,21.38,-6.62,3.31,5.81,30.79,2.00
4.00,0.00,43.56,6.19,-136.44,50.62,-11.25,-10.38,31.81,2.02
4.00,1.00,253.19,-3.50,-60.31,-9.56,1.62,-3.69,31.81,2.02
4.00,2.00,324.69,-15.81,21.50,-6.25,2.69,7.06,31.81,2.02
4.00,0.00,43.25,5.88,-137.44,50.69,-11.38,-9.94,32.88,2.04
4.00,1.00,253.25,-3.56,-60.12,-12.00,1.69,-3.38,32.88,2.04
4.00,2.00,324.50,-15.94,21.62,-9.19,3.06,7.62,32.88,2.04
4.00,0.00,43.06,5.62,-138.44,48.06,-8.38,-8.94,33.93,2.06
4.00,1.00,253.31,-3.69,-59.94,-10.62,1.69,-3.38,33.93,2.06
4.00,2.00,324.38,-16.06,21.75,-10.69,2.75,7.94,33.93,2.06
4.00,0.00,42.88,5.38,-139.31,46.12,-7.06,-9.31,34.98,2.08
4.00,1.00,253.31,-3.75,-59.75,-12.00,2.25,-3.50,34.98,2.08
4.00,2.00,324.19,-16.12,21.94,-12.38,1.75,6.44,34.98,2.08
4.00,0.00,42.44,5.19,-140.12,38.25,-4.44,-10.12,35.89,2.10
4.00,1.00,253.38,-3.88,-59.56,-12.19,3.06,-3.69,35.89,2.10
4.00,2.00,324.06,-16.19,22.19,-12.69,2.00,4.06,35.89,2.10
4.00,0.00,42.25,5.00,-140.88,37.00,-5.44,-9.25,36.78,2.12
4.00,1.00,253.38,-3.94,-59.31,-12.69,0.38,-3.25,36.78,2.12
4.00,2.00,323.94,-16.25,22.44,-12.94,1.75,4.00,36.78,2.12
4.00,0.00,41.62,4.81,-141.56,35.94,-5.50,-8.62,37.67,2.14
4.00,1.00,253.50,-4.00,-59.06,-12.81,-0.44,-3.62,37.67,2.14
4.00,2.00,323.88,-16.25,22.62,-13.25,-0.62,4.06,37.67,2.14
4.00,0.00,41.44,4.62,-142.19,29.81,-3.69,-10.56,38.42,2.16
4.00,1.00,253.56,-4.06,-58.81,-12.12,-0.69,-4.06,38.42,2.16
4.00,2.00,323.75,-16.25,22.88,-12.19,-1.44,3.06,38.42,2.16
4.00,0.00,41.25,4.44,-142.69,27.75,-3.19,-11.31,39.12,2.18
4.00,1.00,253.62,-4.12,-58.62,-13.19,-0.50,-3.88,39.12,2.18
4.00,2.00,323.69,-16.25,23.06,-11.56,-0.69,1.94,39.12,2.18
4.00,0.00,40.50,4.31,-143.00,24.94,-3.12,-11.81,39.80,2.20
4.00,1.00,253.69,-4.19,-58.38,-13.00,-1.06,-3.88,39.80,2.20
4.00,2.00,323.56,-16.25,23.31,-12.75,-1.19,1.31,39.80,2.20
4.00,0.00,40.25,4.12,-143.50,24.94,-3.81,-9.44,40.48,2.22
4.00,1.00,253.81,-4.31,-58.12,-13.88,-0.88,-4.44,40.48,2.22
4.00,2.00,323.50,-16.25,23.56,-13.06,-3.50,0.44,40.48,2.22
4.00,0.00,39.69,3.94,-143.94,23.50,-3.88,-9.06,41.14,2.24
4.00,1.00,253.88,-4.38,-57.88,-14.00,-0.81,-5.56,41.14,2.24
4.00,2.00,323.50,-16.19,23.81,-13.50,-3.00,-0.38,41.14,2.24
4.00,0.00,39.50,3.81,-144.31,21.06,-3.19,-9.25,41.80,2.26
4.00,1.00,254.00,-4.44,-57.62,-14.75,-1.19,-5.62,41.80,2.26
4.00,2.00,323.44,-16.12,24.12,-15.62,-2.94,-1.06,41.80,2.26
4.00,0.00,39.38,3.62,-144.56,20.75,-3.31,-8.69,42.45,2.28
4.00,1.00,254.12,-4.56,-57.38,-14.62,-2.25,-5.81,42.45,2.28
4.00,2.00,323.44,-16.06,24.44,-15.62,-1.94,-2.38,42.45,2.28
4.00,0.00,39.25,3.50,-144.94,20.38,-3.88,-6.56,43.10,2.30
4.00,1.00,254.25,-4.62,-57.12,-15.00,-2.12,-6.06,43.10,2.30
4.00,2.00,323.44,-16.00,24.75,-16.25,-0.44,-3.56,43.10,2.30
4.00,0.00,39.12,3.38,-145.31,18.06,-2.69,-5.94,43.78,2.32
4.00,1.00,254.44,-4.75,-56.81,-15.31,-2.56,-7.56,43.78,2.32
4.00,2.00,323.44,-16.00,25.12,-19.81,0.00,-3.75,43.78,2.32
4.00,0.00,39.00,3.25,-145.56,15.50,-1.44,-7.25,44.42,2.34
4.00,1.00,254.62,-4.88,-56.56,-15.06,-2.81,-8.38,44.42,2.34
4.00,2.00,323.50,-16.00,25.56,-20.06,1.06,-4.75,44.42,2.34
4.00,0.00,38.88,3.12,-145.88,16.25,-4.38,-6.19,45.03,2.36
4.00,1.00,254.75,-4.94,-56.25,-17.50,-3.44,-8.31,45.03,2.36
4.00,2.00,323.56,-15.88,25.94,-17.75,-0.75,-7.44,45.03,2.36
4.00,0.00,38.81,3.00,-146.19,15.81,-6.19,-4.25,45.66,2.38
4.00,1.00,254.94,-5.06,-55.94,-17.38,-3.25,-7.94,45.66,2.38
4.00,2.00,323.69,-15.88,26.31,-19.31,1.12,-7.88,45.66,2.38
4.00,0.00,38.75,2.81,-146.38,13.88,-6.12,-4.19,46.31,2.40
4.00,1.00,255.12,-5.12,-55.56,-16.69,-4.25,-8.62,46.31,2.40
4.00,2.00,323.75,-15.81,26.81,-22.69,1.00,-8.25,46.31,2.40
4.00,0.00,38.69,2.69,-146.56,12.00,-5.25,-5.38,46.92,2.42
4.00,1.00,255.31,-5.25,-55.31,-16.25,-2.75,-8.50,46.92,2.42
4.00,2.00,323.94,-15.75,27.25,-21.94,2.75,-10.25,46.92,2.42
4.00,0.00,38.56,2.56,-146.75,9.81,-4.94,-7.62,47.46,2.44
4.00,1.00,255.44,-5.31,-55.12,-18.81,-5.25,-8.38,47.46,2.44
4.00,2.00,324.06,-15.69,27.75,-20.44,1.75,-11.56,47.46,2.44
4.00,0.00,38.44,2.38,-146.88,9.50,-7.06,-7.88,48.04,2.46
4.00,1.00,255.75,-5.44,-54.56,-18.25,-6.12,-8.94,48.04,2.46
4.00,2.00,324.25,-15.62,28.25,-22.81,1.56,-11.38,48.04,2.46
4.00,0.00,38.38,2.19,-147.12,10.25,-7.12,-4.31,48.70,2.48
4.00,1.00,255.81,-5.44,-54.44,-17.00,-6.69,-8.25,48.70,2.48
4.00,2.00,324.38,-15.56,28.75,-26.69,2.62,-9.75,48.70,2.48
4.00,0.00,38.38,2.06,-147.25,8.19,-5.38,-2.19,49.27,2.50
4.00,1.00,256.12,-5.56,-53.88,-17.62,-6.06,-7.00,49.27,2.50
4.00,2.00,324.50,-15.50,29.31,-23.50,0.81,-10.25,49.27,2.50
4.00,0.00,38.31,1.94,-147.38,4.31,-4.50,-3.38,49.66,2.52
4.00,1.00,256.25,-5.56,-53.50,-18.94,-6.00,-5.88,49.66,2.52
4.00,2.00,324.69,-15.38,29.75,-17.69,-1.19,-11.38,49.66,2.52
4.00,0.00,38.25,1.81,-147.38,1.62,-5.62,-5.38,50.07,2.54
4.00,1.00,256.31,-5.56,-53.31,-19.38,-6.38,-5.00,50.07,2.54
4.00,2.00,324.81,-15.25,30.12,-21.31,-0.62,-11.38,50.07,2.54
4.00,0.00,38.19,1.69,-147.44,3.62,-7.75,-3.19,50.65,2.56
4.00,1.00,256.56,-5.56,-52.75,-17.00,-7.19,-4.94,50.65,2.56
4.00,2.00,324.94,-15.19,30.75,-28.50,3.44,-8.56,50.65,2.56
4.00,0.00,38.25,1.56,-147.56,5.19,-5.31,0.00,51.19,2.58
4.00,1.00,256.62,-5.56,-52.62,-15.69,-5.94,-5.38,51.19,2.58
4.00,2.00,325.00,-15.19,31.25,-24.94,1.81,-5.00,51.19,2.58
4.00,0.00,38.00,1.50,-147.62,4.06,-0.88,0.19,51.57,2.60
4.00,1.00,256.81,-5.56,-52.12,-15.44,-5.81,-4.19,51.57,2.60
4.00,2.00,325.06,-15.12,31.69,-17.19,0.00,-4.75,51.57,2.60
4.00,0.00,38.00,1.56,-147.62,0.38,3.75,-0.56,51.87,2.62
4.00,1.00,256.94,-5.56,-51.81,-16.94,-4.94,-3.12,51.87,2.62
4.00,2.00,325.06,-15.00,32.00,-16.50,-4.88,-4.81,51.87,2.62
4.00,0.00,37.44,1.62,-147.62,-3.38,4.31,-3.31,52.12,2.64
4.00,1.00,256.94,-5.56,-51.69,-19.06,-4.69,-1.38,52.12,2.64
4.00,2.00,325.12,-14.81,32.31,-17.44,-5.44,-7.75,52.12,2.64
4.00,0.00,37.38,1.56,-147.50,-4.50,-0.88,-4.38,52.42,2.66
4.00,1.00,257.00,-5.50,-51.12,-19.00,-5.12,-1.62,52.42,2.66
4.00,2.00,325.19,-14.75,32.75,-21.00,-0.75,-6.44,52.42,2.66
4.00,0.00,37.31,1.50,-147.44,-4.44,-4.62,-3.19,52.70,2.68
4.00,1.00,257.06,-5.44,-50.94,-19.38,-5.75,-1.81,52.70,2.68
4.00,2.00,325.25,-14.69,33.19,-19.94,0.06,-4.25,52.70,2.68
4.00,0.00,37.06,1.38,-147.25,-8.94,-4.62,-4.75,52.80,2.70
4.00,1.00,257.12,-5.44,-50.38,-19.19,-3.81,-1.12,52.80,2.70
4.00,2.00,325.25,-14.62,33.50,-14.38,0.62,-3.44,52.80,2.70
4.00,0.00,36.88,1.19,-147.00,-16.62,-3.94,-9.38,52.76,2.72
4.00,1.00,257.12,-5.38,-50.00,-19.50,-2.00,1.25,52.76,2.72
4.00,2.00,325.31,-14.62,33.75,-14.62,1.00,-2.19,52.76,2.72
4.00,0.00,36.50,1.00,-146.56,-21.12,-4.25,-11.12,52.72,2.74
4.00,1.00,257.12,-5.31,-49.81,-20.38,-1.12,2.00,52.72,2.74
4.00,2.00,325.25,-14.69,34.12,-18.94,3.00,0.88,52.72,2.74
4.00,0.00,36.38,0.88,-146.12,-21.94,-4.31,-8.25,52.73,2.76
4.00,1.00,256.94,-5.25,-49.19,-21.81,1.94,2.69,52.73,2.76
4.00,2.00,325.12,-14.75,34.50,-22.31,3.25,3.50,52.73,2.76
4.00,0.00,36.31,0.75,-145.62,-24.19,-1.62,-5.75,52.71,2.78
4.00,1.00,256.88,-5.25,-49.00,-20.75,4.81,3.06,52.71,2.78
4.00,2.00,325.00,-14.88,35.00,-23.12,4.69,4.88,52.71,2.78
4.00,0.00,35.56,0.69,-145.06,-29.31,1.12,-8.12,52.59,2.80
4.00,1.00,256.69,-5.31,-48.44,-19.62,5.38,3.12,52.59,2.80
4.00,2.00,324.94,-15.06,35.44,-22.81,7.69,4.69,52.59,2.80
4.00,0.00,35.44,0.62,-144.50,-30.19,0.06,-8.31,52.45,2.82
4.00,1.00,256.56,-5.31,-48.12,-18.31,6.06,2.25,52.45,2.82
4.00,2.00,324.81,-15.25,35.88,-22.06,8.88,4.94,52.45,2.82
4.00,0.00,34.94,0.50,-143.88,-31.31,0.12,-8.25,52.25,2.84
4.00,1.00,256.56,-5.38,-47.94,-17.44,6.06,1.69,52.25,2.84
4.00,2.00,324.69,-15.44,36.25,-20.12,8.62,6.00,52.25,2.84
4.00,0.00,34.75,0.44,-143.31,-29.88,-1.56,-8.31,52.02,2.86
4.00,1.00,256.44,-5.44,-47.62,-17.62,7.62,2.25,52.02,2.86
4.00,2.00,324.56,-15.62,36.62,-17.56,7.88,5.62,52.02,2.86
4.00,0.00,34.62,0.25,-142.75,-27.69,-3.94,-8.06,51.89,2.88
4.00,1.00,256.31,-5.50,-47.31,-18.00,7.81,2.81,51.89,2.88
4.00,2.00,324.44,-15.81,37.00,-20.38,9.81,6.12,51.89,2.88
4.00,0.00,34.44,0.06,-142.25,-26.44,-4.56,-8.81,51.81,2.90
4.00,1.00,256.12,-5.56,-47.00,-18.06,7.38,2.81,51.81,2.90
4.00,2.00,324.31,-16.06,37.38,-21.69,11.12,7.25,51.81,2.90
4.00,0.00,34.31,-0.06,-141.81,-24.19,-6.31,-8.50,51.74,2.92
4.00,1.00,256.00,-5.62,-46.69,-16.88,7.38,1.44,51.74,2.92
4.00,2.00,324.19,-16.38,37.81,-20.50,11.38,8.38,51.74,2.92
4.00,0.00,34.00,-0.31,-141.38,-20.62,-9.69,-7.25,51.72,2.94
4.00,1.00,255.94,-5.69,-46.38,-16.31,7.38,1.06,51.72,2.94
4.00,2.00,324.00,-16.62,38.19,-19.44,11.62,7.88,51.72,2.94
4.00,0.00,33.94,-0.56,-141.06,-19.00,-11.50,-6.62,51.68,2.96
4.00,1.00,255.88,-5.81,-46.06,-14.81,6.06,0.44,51.68,2.96
4.00,2.00,323.94,-16.88,38.56,-16.69,12.31,6.69,51.68,2.96
4.00,0.00,33.94,-0.81,-140.69,-19.56,-11.62,-5.88,51.54,2.98
4.00,1.00,255.81,-5.88,-45.81,-14.75,5.56,0.44,51.54,2.98
4.00,2.00,323.81,-17.19,38.81,-11.69,12.25,6.00,51.54,2.98
4.00,0.00,33.62,-1.00,-140.25,-20.00,-11.00,-5.06,51.39,3.00
4.00,1.00,255.69,-6.00,-45.50,-15.25,6.19,0.31,51.39,3.00
4.00,2.00,323.75,-17.44,39.06,-11.69,11.06,6.50,51.39,3.00
4.00,0.00,33.62,-1.25,-139.88,-18.38,-9.88,-6.06,51.34,3.02
4.00,1.00,255.62,-6.06,-45.25,-14.56,6.44,0.25,51.34,3.02
4.00,2.00,323.62,-17.62,39.31,-15.38,9.81,6.50,51.34,3.02
4.00,0.00,33.25,-1.44,-139.56,-17.44,-8.88,-6.25,51.28,3.04
4.00,1.00,255.56,-6.12,-45.00,-13.44,5.62,-0.19,51.28,3.04
4.00,2.00,323.50,-17.88,39.62,-14.12,7.44,6.31,51.28,3.04
4.00,0.00,33.19,-1.62,-139.25,-17.19,-7.62,-4.31,51.11,3.06
4.00,1.00,255.50,-6.25,-44.75,-13.06,5.75,-0.44,51.11,3.06
4.00,2.00,323.44,-18.06,39.81,-8.06,8.00,5.00,51.11,3.06
4.00,0.00,33.19,-1.75,-138.88,-16.69,-6.81,-2.56,50.98,3.08
4.00,1.00,255.44,-6.31,-44.50,-14.19,6.44,0.25,50.98,3.08
4.00,2.00,323.38,-18.25,40.00,-9.38,9.88,4.25,50.98,3.08
4.00,0.00,32.81,-1.88,-138.56,-16.25,-6.19,-2.75,50.98,3.10
4.00,1.00,255.38,-6.38,-44.25,-14.19,6.69,0.62,50.98,3.10
4.00,2.00,323.31,-18.44,40.31,-15.88,11.38,5.62,50.98,3.10
4.00,0.00,32.81,-2.00,-138.25,-16.94,-5.12,-3.50,50.96,3.12
4.00,1.00,255.31,-6.50,-44.00,-13.00,5.19,0.12,50.96,3.12
4.00,2.00,323.19,-18.62,40.62,-16.25,6.50,5.44,50.96,3.12
4.00,0.00,32.44,-2.12,-137.88,-18.12,-4.25,-3.31,50.79,3.14
4.00,1.00,255.25,-6.56,-43.75,-12.44,5.00,0.62,50.79,3.14
4.00,2.00,323.12,-18.75,40.81,-8.69,5.44,3.62,50.79,3.14
4.00,0.00,32.44,-2.25,-137.56,-17.69,-3.88,-3.56,50.63,3.16
4.00,1.00,255.19,-6.62,-43.50,-12.88,5.25,0.75,50.63,3.16
4.00,2.00,323.06,-18.88,41.00,-8.50,5.94,2.94,50.63,3.16
4.00,0.00,32.31,-2.38,-137.25,-16.31,-3.75,-4.75,50.61,3.18
4.00,1.00,255.12,-6.69,-43.25,-12.69,3.81,0.88,50.61,3.18
4.00,2.00,323.00,-19.00,41.31,-15.00,4.50,3.50,50.61,3.18
4.00,0.00,32.31,-2.44,-136.94,-15.19,-2.00,-5.19,50.48,3.20
4.00,1.00,255.06,-6.75,-43.00,-11.12,1.94,-0.50,50.48,3.20
4.00,2.00,322.88,-19.12,41.50,-8.31,3.19,2.00,50.48,3.20
4.00,0.00,32.25,-2.50,-136.69,-13.88,-0.44,-4.25,50.35,3.22
4.00,1.00,255.06,-6.75,-42.81,-10.00,1.94,-1.12,50.35,3.22
4.00,2.00,322.88,-19.19,41.62,-6.19,4.12,0.81,50.35,3.22
4.00,0.00,31.88,-2.56,-136.44,-11.06,-0.25,-2.62,50.30,3.24
4.00,1.00,255.06,-6.81,-42.62,-10.25,2.69,-0.94,50.30,3.24
4.00,2.00,322.88,-19.25,41.81,-8.25,4.44,1.25,50.30,3.24
4.00,0.00,31.88,-2.56,-136.25,-8.75,0.56,-0.62,50.33,3.26
4.00,1.00,255.06,-6.88,-42.44,-10.62,2.81,-0.38,50.33,3.26
4.00,2.00,322.81,-19.31,42.00,-10.56,4.12,2.25,50.33,3.26
4.00,0.00,31.81,-2.56,-136.06,-11.25,3.62,-2.62,50.32,3.28
4.00,1.00,255.00,-6.94,-42.25,-10.00,2.62,-0.31,50.32,3.28
4.00,2.00,322.75,-19.44,42.25,-10.75,2.31,2.50,50.32,3.28
4.00,0.00,31.62,-2.56,-135.81,-12.06,2.56,-5.06,50.23,3.30
4.00,1.00,255.00,-6.94,-42.06,-9.62,2.44,-0.31,50.23,3.30
4.00,2.00,322.75,-19.44,42.38,-7.19,3.12,0.62,50.23,3.30
4.00,0.00,31.56,-2.62,-135.62,-10.19,-1.56,-3.94,50.19,3.32
4.00,1.00,254.94,-7.00,-41.88,-10.12,2.88,-0.31,50.19,3.32
4.00,2.00,322.75,-19.50,42.56,-7.62,4.12,0.56,50.19,3.32
4.00,0.00,31.31,-2.69,-135.44,-8.81,-3.19,-1.75,50.21,3.34
4.00,1.00,254.94,-7.06,-41.69,-10.38,3.00,-0.50,50.21,3.34
4.00,2.00,322.69,-19.62,42.75,-10.31,4.44,2.12,50.21,3.34
4.00,0.00,31.31,-2.75,-135.31,-9.31,-2.31,-1.44,50.19,3.36
4.00,1.00,254.94,-7.12,-41.50,-9.81,3.12,-0.62,50.19,3.36
4.00,2.00,322.62,-19.69,42.94,-8.25,4.38,2.38,50.19,3.36
4.00,0.00,31.31,-2.81,-135.06,-11.19,-1.69,-3.12,50.13,3.38
4.00,1.00,254.88,-7.19,-41.31,-9.38,3.44,-0.38,50.13,3.38
4.00,2.00,322.62,-19.81,43.06,-7.44,4.31,1.56,50.13,3.38
4.00,0.00,219.62,-2.94,-134.88,-11.12,-3.88,-4.88,50.10,3.40
4.00,1.00,254.81,-7.19,-41.12,-10.06,3.06,-0.38,50.10,3.40
4.00,2.00,322.56,-19.88,43.25,-9.50,6.19,1.62,50.10,3.40
4.00,0.00,219.94,-3.06,-134.69,-8.25,-7.62,-3.31,50.14,3.42
4.00,1.00,254.81,-7.25,-40.94,-9.69,3.62,-0.75,50.14,3.42
4.00,2.00,322.56,-20.00,43.50,-10.81,6.69,2.62,50.14,3.42
4.00,0.00,220.56,-3.25,-134.50,-8.56,-7.56,-2.56,50.13,3.44
4.00,1.00,254.81,-7.38,-40.75,-9.38,3.00,-1.31,50.13,3.44
4.00,2.00,322.50,-20.12,43.69,-7.88,6.56,2.62,50.13,3.44
4.00,0.00,220.94,-3.38,-134.31,-9.50,-7.44,-3.12,50.06,3.46
4.00,1.00,254.81,-7.44,-40.56,-8.06,3.06,-1.44,50.06,3.46
4.00,2.00,322.50,-20.25,43.81,-5.44,6.06,1.31,50.06,3.46
4.00,0.00,221.31,-3.56,-134.12,-9.25,-8.38,-3.19,50.02,3.48
4.00,1.00,254.81,-7.50,-40.44,-7.38,2.69,-0.75,50.02,3.48
4.00,2.00,322.50,-20.31,44.00,-6.88,4.38,1.00,50.02,3.48
4.00,0.00,221.75,-3.69,-134.00,-8.06,-8.44,-3.31,50.00,3.50
4.00,1.00,254.75,-7.56,-40.25,-7.25,2.50,-0.19,50.00,3.50
4.00,2.00,322.44,-20.44,44.12,-7.06,2.56,1.62,50.00,3.50
4.00,0.00,222.00,-3.81,-133.81,-7.88,-5.31,-3.56,49.96,3.52
4.00,1.00,254.75,-7.62,-40.12,-6.19,1.69,-0.38,49.96,3.52
4.00,2.00,322.38,-20.44,44.25,-5.62,-0.12,1.88,49.96,3.52
4.00,0.00,222.06,-3.81,-133.75,-7.81,-1.06,-3.25,49.89,3.54
4.00,1.00,254.75,-7.62,-40.00,-5.50,1.31,-0.50,49.89,3.54
4.00,2.00,322.31,-20.50,44.31,-3.88,-0.19,1.50,49.89,3.54
4.00,0.00,221.88,-3.88,-133.56,-6.12,1.31,-2.62,49.86,3.56
4.00,1.00,254.75,-7.69,-39.88,-5.62,1.94,-0.31,49.86,3.56
4.00,2.00,322.31,-20.50,44.44,-4.69,0.31,1.31,49.86,3.56
4.00,0.00,221.81,-3.88,-133.50,-4.19,2.88,-1.50,49.87,3.58
4.00,1.00,254.69,-7.75,-39.81,-4.94,1.81,0.00,49.87,3.58
4.00,2.00,322.25,-20.50,44.50,-4.69,0.19,1.38,49.87,3.58
4.00,0.00,221.69,-3.81,-133.44,-2.94,3.88,-0.75,49.87,3.60
4.00,1.00,254.69,-7.75,-39.69,-4.06,2.06,0.25,49.87,3.60
4.00,2.00,322.19,-20.50,44.56,-3.19,-0.44,1.31,49.87,3.60
4.00,0.00,221.50,-3.81,-133.44,-2.81,3.56,-0.94,49.88,3.62
4.00,1.00,254.69,-7.81,-39.62,-3.81,1.62,0.75,49.88,3.62
4.00,2.00,322.19,-20.56,44.62,-2.88,-0.75,1.12,49.88,3.62
4.00,0.00,221.38,-3.81,-133.38,-3.19,2.31,-2.00,49.90,3.64
4.00,1.00,254.62,-7.81,-39.56,-3.50,1.50,1.00,49.90,3.64
4.00,2.00,322.12,-20.56,44.69,-4.56,-0.31,1.50,49.90,3.64
4.00,0.00,221.12,-3.81,-133.25,-3.12,1.00,-3.00,49.91,3.66
4.00,1.00,254.62,-7.81,-39.50,-3.00,1.00,0.94,49.91,3.66
4.00,2.00,322.06,-20.56,44.81,-3.69,-0.38,1.12,49.91,3.66
4.00,0.00,221.19,-3.88,-133.19,-3.31,0.06,-3.06,49.88,3.68
4.00,1.00,254.62,-7.88,-39.44,-2.44,0.62,0.94,49.88,3.68
4.00,2.00,322.06,-20.56,44.88,-1.81,0.12,0.94,49.88,3.68
4.00,0.00,221.56,-3.94,-133.12,-3.44,-0.31,-2.94,49.86,3.70
4.00,1.00,254.56,-7.88,-39.38,-2.50,0.94,0.88,49.86,3.70
4.00,2.00,322.00,-20.62,44.88,-2.31,0.25,1.12,49.86,3.70
4.00,0.00,221.62,-4.00,-133.06,-3.56,-1.06,-3.06,49.86,3.72
4.00,1.00,254.56,-7.88,-39.31,-2.44,1.00,1.25,49.86,3.72
4.00,2.00,322.00,-20.62,44.94,-3.50,0.50,1.75,49.86,3.72
4.00,0.00,221.69,-4.00,-133.00,-3.88,-0.62,-3.19,49.85,3.74
4.00,1.00,254.50,-7.88,-39.25,-2.19,1.38,1.44,49.85,3.74
4.00,2.00,321.94,-20.62,45.00,-3.06,0.19,1.81,49.85,3.74
4.00,0.00,221.75,-4.06,-132.94,-3.50,0.56,-2.69,49.81,3.76
4.00,1.00,254.50,-7.88,-39.25,-1.75,1.19,1.06,49.81,3.76
4.00,2.00,321.88,-20.69,45.06,-1.62,0.38,1.56,49.81,3.76
4.00,0.00,221.81,-4.12,-132.88,-3.12,0.69,-2.00,49.78,3.78
4.00,1.00,254.44,-7.88,-39.25,-1.62,1.44,0.88,49.78,3.78
4.00,2.00,321.88,-20.69,45.06,-1.31,1.06,0.94,49.78,3.78
4.00,0.00,221.88,-4.12,-132.81,-2.88,0.44,-1.38,49.76,3.80
4.00,1.00,254.44,-7.94,-39.19,-1.75,1.62,1.00,49.76,3.80
4.00,2.00,321.81,-20.75,45.06,-1.81,0.69,1.50,49.76,3.80
4.00,0.00,221.81,-4.12,-132.75,-2.88,1.25,-0.75,49.73,3.82
4.00,1.00,254.38,-7.94,-39.19,-1.62,1.44,1.06,49.73,3.82
4.00,2.00,321.81,-20.75,45.12,-1.25,-0.44,2.25,49.73,3.82
4.00,0.00,221.69,-4.06,-132.69,-2.75,2.19,-0.56,49.69,3.84
4.00,1.00,254.38,-7.94,-39.12,-1.06,1.50,1.25,49.69,3.84
4.00,2.00,321.75,-20.75,45.06,-0.12,-1.75,2.44,49.69,3.84
4.00,0.00,221.56,-4.06,-132.69,-3.38,3.56,-0.81,49.63,3.86
4.00,1.00,254.31,-7.94,-39.12,-1.38,2.19,1.50,49.63,3.86
4.00,2.00,321.69,-20.81,45.06,-0.31,-1.88,2.38,49.63,3.86
4.00,0.00,221.38,-4.00,-132.62,-3.31,3.00,-0.56,49.59,3.88
4.00,1.00,254.25,-8.00,-39.12,-1.19,2.38,1.88,49.59,3.88
4.00,2.00,321.62,-20.81,45.06,-1.12,-1.62,2.69,49.59,3.88
4.00,0.00,221.19,-4.00,-132.56,-2.69,2.06,0.00,49.56,3.90
4.00,1.00,254.19,-8.00,-39.12,-0.81,2.12,2.00,49.56,3.90
4.00,2.00,321.56,-20.81,45.06,-0.69,-1.19,2.69,49.56,3.90
4.00,0.00,221.12,-4.00,-132.50,-1.50,1.06,0.81,49.53,3.92
4.00,1.00,254.12,-8.00,-39.12,-0.75,2.06,2.00,49.53,3.92
4.00,2.00,321.50,-20.81,45.06,-0.19,-1.06,2.38,49.53,3.92
4.00,0.00,221.06,-3.94,-132.50,-1.50,0.81,0.62,49.48,3.94
4.00,1.00,254.12,-8.00,-39.12,-0.50,2.31,2.00,49.48,3.94
4.00,2.00,321.44,-20.88,45.00,1.31,-1.06,1.94,49.48,3.94
4.00,0.00,221.00,-3.94,-132.44,-1.75,0.62,0.12,49.45,3.96
4.00,1.00,254.06,-8.00,-39.12,-1.12,2.19,2.50,49.45,3.96
4.00,2.00,321.38,-20.88,45.00,0.00,-1.00,2.62,49.45,3.96
4.00,0.00,221.00,-3.94,-132.44,-1.69,0.81,0.06,49.45,3.98
4.00,1.00,254.00,-8.06,-39.12,-0.12,2.25,2.56,49.45,3.98
4.00,2.00,321.31,-20.88,45.00,-1.56,-1.25,2.94,49.45,3.98
4.00,0.00,220.94,-3.94,-132.38,-2.50,0.81,0.19,49.40,4.00
4.00,1.00,253.94,-8.06,-39.12,-0.31,1.56,2.56,49.40,4.00
4.00,2.00,321.25,-20.94,45.00,0.25,-1.31,2.50,49.40,4.00
4.00,0.00,220.94,-3.94,-132.31,-2.69,0.31,0.38,49.31,4.02
4.00,1.00,253.88,-8.06,-39.12,-0.62,1.75,2.75,49.31,4.02
4.00,2.00,321.19,-20.94,44.94,2.19,-1.38,1.81,49.31,4.02
4.00,0.00,220.94,-3.94,-132.25,-2.62,-0.50,0.56,49.26,4.04
4.00,1.00,253.81,-8.00,-39.12,-1.31,1.50,2.38,49.26,4.04
4.00,2.00,321.19,-20.94,44.88,0.31,-0.62,2.31,49.26,4.04
4.00,0.00,221.00,-3.94,-132.25,-2.12,-1.31,0.44,49.26,4.06
4.00,1.00,253.75,-8.06,-39.12,-2.62,2.25,2.69,49.26,4.06
4.00,2.00,321.12,-21.00,44.88,-1.94,0.56,3.25,49.26,4.06
4.00,0.00,221.06,-3.94,-132.19,-2.50,-0.94,0.44,49.23,4.08
4.00,1.00,253.62,-8.06,-39.06,-1.56,2.38,2.50,49.23,4.08
4.00,2.00,321.00,-21.00,44.94,-0.75,0.25,3.12,49.23,4.08
4.00,0.00,221.06,-3.94,-132.12,-3.06,0.06,0.50,49.14,4.10
4.00,1.00,253.56,-8.06,-39.06,-0.81,2.56,2.25,49.14,4.10
4.00,2.00,321.00,-21.06,44.88,1.56,-0.69,2.75,49.14,4.10
4.00,0.00,221.00,-3.94,-132.06,-3.19,0.88,0.75,49.06,4.12
4.00,1.00,253.50,-8.06,-39.06,-0.62,2.88,2.50,49.06,4.12
4.00,2.00,320.94,-21.06,44.81,1.25,-0.38,2.38,49.06,4.12
4.00,0.00,220.94,-3.88,-132.00,-3.19,1.00,1.06,49.03,4.14
4.00,1.00,253.44,-8.06,-39.06,-1.38,2.38,2.56,49.03,4.14
4.00,2.00,320.88,-21.12,44.81,-1.31,-1.12,3.19,49.03,4.14
4.00,0.00,221.00,-3.88,-131.94,-2.94,1.88,1.25,49.00,4.16
4.00,1.00,253.38,-8.06,-39.06,-0.94,2.12,1.81,49.00,4.16
4.00,2.00,320.81,-21.12,44.81,-1.12,-2.12,3.25,49.00,4.16
4.00,0.00,220.81,-3.81,-131.88,-2.38,3.38,1.19,48.94,4.18
4.00,1.00,253.38,-8.12,-39.06,-0.94,2.69,1.75,48.94,4.18
4.00,2.00,320.69,-21.12,44.81,0.88,-2.12,2.56,48.94,4.18
4.00,0.00,220.56,-3.69,-131.88,-2.06,3.38,1.81,48.91,4.20
4.00,1.00,253.31,-8.12,-39.06,-0.62,3.56,1.81,48.91,4.20
4.00,2.00,320.69,-21.12,44.75,-0.69,-2.12,1.94,48.91,4.20
4.00,0.00,220.38,-3.62,-131.81,-1.94,3.62,2.12,48.92,4.22
4.00,1.00,253.25,-8.19,-39.06,-1.75,2.88,1.94,48.92,4.22
4.00,2.00,320.56,-21.12,44.81,-2.00,-1.75,2.69,48.92,4.22
4.00,0.00,220.19,-3.56,-131.81,-1.75,3.25,1.94,48.91,4.24
4.00,1.00,253.19,-8.19,-39.00,-1.69,2.88,1.88,48.91,4.24
4.00,2.00,320.50,-21.19,44.81,-1.50,-1.94,3.19,48.91,4.24
4.00,0.00,219.94,-3.50,-131.75,-0.75,2.06,2.31,48.91,4.26
4.00,1.00,253.12,-8.19,-39.00,-0.69,2.50,1.44,48.91,4.26
4.00,2.00,320.44,-21.19,44.81,-0.44,-1.75,2.69,48.91,4.26
4.00,0.00,219.88,-3.44,-131.81,0.25,0.69,2.12,48.91,4.28
4.00,1.00,253.06,-8.25,-39.00,-0.62,2.69,1.38,48.91,4.28
4.00,2.00,320.38,-21.19,44.75,0.25,-1.38,1.69,48.91,4.28
4.00,0.00,219.88,-3.44,-131.75,0.19,-0.50,2.06,48.92,4.30
4.00,1.00,253.06,-8.25,-39.00,-1.50,2.38,1.12,48.92,4.30
4.00,2.00,320.38,-21.19,44.75,-0.81,-1.19,1.19,48.92,4.30
4.00,0.00,219.94,-3.44,-131.75,0.44,-2.50,1.69,48.96,4.32
4.00,1.00,253.00,-8.31,-38.94,-1.94,2.00,1.06,48.96,4.32
4.00,2.00,320.31,-21.19,44.75,-1.62,-0.94,1.38,48.96,4.32
4.00,0.00,220.00,-3.44,-131.81,1.62,-1.38,3.00,49.00,4.34
4.00,1.00,253.00,-8.31,-38.94,-1.69,1.25,0.94,49.00,4.34
4.00,2.00,320.31,-21.19,44.75,-0.56,-0.62,1.06,49.00,4.34
4.00,0.00,219.81,-3.44,-131.81,0.31,-0.69,2.38,49.04,4.36
4.00,1.00,252.94,-8.31,-38.94,-1.50,0.56,0.94,49.04,4.36
4.00,2.00,320.25,-21.19,44.81,-1.75,-0.25,1.06,49.04,4.36
4.00,0.00,219.88,-3.44,-131.75,0.00,-2.19,1.44,49.06,4.38
4.00,1.00,252.94,-8.31,-38.88,-1.81,0.44,0.69,49.06,4.38
4.00,2.00,320.25,-21.25,44.81,-1.38,-0.50,0.81,49.06,4.38
4.00,0.00,220.06,-3.44,-131.75,-0.62,-1.25,1.31,49.05,4.40
4.00,1.00,252.94,-8.31,-38.88,-1.94,0.31,0.25,49.05,4.40
4.00,2.00,320.25,-21.19,44.81,-0.06,-0.69,-0.06,49.05,4.40
4.00,0.00,220.06,-3.38,-131.69,-1.31,0.88,0.75,49.05,4.42
4.00,1.00,252.94,-8.31,-38.81,-1.06,1.25,0.12,49.05,4.42
4.00,2.00,320.25,-21.19,44.81,-1.31,0.00,0.56,49.05,4.42
4.00,0.00,220.00,-3.38,-131.69,-1.81,0.88,-0.25,49.06,4.44
4.00,1.00,252.94,-8.38,-38.75,-2.31,1.06,0.44,49.06,4.44
4.00,2.00,320.19,-21.25,44.88,-2.56,0.38,1.31,49.06,4.44
4.00,0.00,219.81,-3.38,-131.62,-1.50,0.62,0.25,49.09,4.46
4.00,1.00,252.94,-8.38,-38.75,-2.12,0.88,0.38,49.09,4.46
4.00,2.00,320.19,-21.25,44.94,-2.94,0.75,1.38,49.09,4.46
4.00,0.00,219.75,-3.38,-131.56,-1.69,1.44,0.94,49.09,4.48
4.00,1.00,252.88,-8.38,-38.69,-2.06,0.81,0.31,49.09,4.48
4.00,2.00,320.12,-21.31,45.00,-1.75,1.06,1.00,49.09,4.48
4.00,0.00,219.75,-3.38,-131.56,-2.25,1.56,0.12,49.07,4.50
4.00,1.00,252.88,-8.38,-38.69,-1.38,0.56,0.25,49.07,4.50
4.00,2.00,320.12,-21.31,45.00,-1.25,1.19,1.00,49.07,4.50
4.00,0.00,219.75,-3.38,-131.50,-2.75,0.12,-1.19,49.05,4.52
4.00,1.00,252.88,-8.44,-38.62,-0.94,0.75,0.25,49.05,4.52
4.00,2.00,320.12,-21.38,45.00,-1.62,1.12,1.38,49.05,4.52
4.00,0.00,219.81,-3.38,-131.44,-1.56,-0.44,-1.56,49.06,4.54
4.00,1.00,252.88,-8.44,-38.62,-0.81,0.56,-0.06,49.06,4.54
4.00,2.00,320.06,-21.38,45.06,-2.19,0.69,1.62,49.06,4.54
4.00,0.00,219.75,-3.38,-131.44,-0.31,-0.31,-0.81,49.09,4.56
4.00,1.00,252.88,-8.44,-38.56,-0.12,-0.06,-0.44,49.09,4.56
4.00,2.00,320.06,-21.38,45.12,-1.81,0.75,0.88,49.09,4.56
4.00,0.00,219.75,-3.38,-131.44,0.31,0.56,-0.06,49.10,4.58
4.00,1.00,252.94,-8.44,-38.56,0.44,-0.75,-0.50,49.10,4.58
4.00,2.00,320.06,-21.44,45.19,-0.44,1.31,-0.44,49.10,4.58
4.00,0.00,219.69,-3.38,-131.44,0.94,-0.19,0.31,49.11,4.60
4.00,1.00,252.94,-8.44,-38.56,0.88,-1.00,-0.88,49.11,4.60
4.00,2.00,320.06,-21.44,45.25,0.44,1.19,-1.12,49.11,4.60
4.00,0.00,219.75,-3.44,-131.44,2.44,-1.38,0.75,49.15,4.62
4.00,1.00,252.94,-8.44,-38.56,1.81,-1.25,-0.81,49.15,4.62
4.00,2.00,320.12,-21.44,45.25,0.62,0.44,-1.06,49.15,4.62
4.00,0.00,219.75,-3.38,-131.50,3.00,0.00,1.12,49.18,4.64
4.00,1.00,253.00,-8.44,-38.56,3.25,-1.94,-0.44,49.18,4.64
4.00,2.00,320.19,-21.38,45.25,1.00,-0.50,-1.50,49.18,4.64
4.00,0.00,219.56,-3.38,-131.50,2.94,1.56,1.31,49.21,4.66
4.00,1.00,253.00,-8.44,-38.62,3.56,-2.69,-0.25,49.21,4.66
4.00,2.00,320.19,-21.38,45.31,1.38,-0.88,-3.00,49.21,4.66
4.00,0.00,219.44,-3.31,-131.56,3.38,1.25,1.75,49.25,4.68
4.00,1.00,253.06,-8.44,-38.62,4.50,-4.56,-0.50,49.25,4.68
4.00,2.00,320.31,-21.31,45.38,1.25,-0.88,-3.94,49.25,4.68
4.00,0.00,219.44,-3.25,-131.62,4.25,0.19,2.12,49.26,4.70
4.00,1.00,253.12,-8.38,-38.69,4.94,-4.81,-0.75,49.26,4.70
4.00,2.00,320.38,-21.25,45.38,3.56,-0.62,-4.94,49.26,4.70
