Iteration,IMUNo,OrientationX (deg),OrientationY,OrientationZ,GyroX (20rad/sec),GyroY,GyroZ,Elbow_Pos (rad),Time (sec)
40.00,0.00,249.62,4.25,-96.38,0.12,-0.94,-0.31,0.03,0.00
40.00,1.00,257.75,-2.62,-63.31,0.06,0.56,-0.31,0.03,0.00
40.00,2.00,287.75,-14.38,21.31,-0.56,0.31,0.00,0.03,0.02
40.00,0.00,249.81,4.12,-96.44,-0.25,-0.38,0.56,0.02,1.02
40.00,1.00,257.75,-2.69,-63.25,-0.12,0.19,0.50,0.02,1.02
40.00,2.00,287.69,-14.50,21.38,0.06,-0.62,0.38,0.02,1.02
40.00,0.00,249.81,4.12,-96.44,-0.12,0.94,0.56,0.02,1.04
40.00,1.00,257.75,-2.69,-63.25,-0.56,0.00,0.56,0.02,1.04
40.00,2.00,287.69,-14.50,21.38,-0.31,-1.12,0.56,0.02,1.04
40.00,0.00,249.75,4.19,-96.44,-0.06,1.31,0.62,0.04,1.06
40.00,1.00,257.75,-2.69,-63.25,-0.38,-0.75,0.56,0.04,1.06
40.00,2.00,287.69,-14.44,21.38,-0.38,-0.94,0.38,0.04,1.06
40.00,0.00,249.75,4.19,-96.38,-0.19,1.44,1.00,0.04,1.08
40.00,1.00,257.81,-2.69,-63.25,-0.50,-0.62,0.06,0.04,1.08
40.00,2.00,287.69,-14.44,21.38,-0.31,-0.56,0.38,0.04,1.08
40.00,0.00,249.69,4.19,-96.38,-0.75,1.25,1.12,0.03,1.10
40.00,1.00,257.81,-2.69,-63.25,-0.31,0.19,-0.12,0.03,1.10
40.00,2.00,287.69,-14.44,21.38,-0.50,-0.69,0.56,0.03,1.10
40.00,0.00,249.69,4.19,-96.38,-0.88,0.00,0.38,-0.01,1.12
40.00,1.00,257.81,-2.69,-63.19,-0.75,0.19,0.38,-0.01,1.12
40.00,2.00,287.69,-14.44,21.38,0.12,-1.12,0.31,-0.01,1.12
40.00,0.00,249.69,4.19,-96.38,-0.31,0.06,-0.50,-0.04,1.14
40.00,1.00,257.75,-2.69,-63.19,-0.50,0.06,0.75,-0.04,1.14
40.00,2.00,287.62,-14.38,21.38,0.50,-1.19,0.38,-0.04,1.14
40.00,0.00,249.69,4.19,-96.38,0.38,0.12,-0.19,-0.04,1.16
40.00,1.00,257.75,-2.69,-63.19,0.00,0.50,0.94,-0.04,1.16
40.00,2.00,287.62,-14.38,21.38,0.38,-0.94,0.50,-0.04,1.16
40.00,0.00,249.69,4.19,-96.38,0.75,-0.06,0.12,-0.01,1.18
40.00,1.00,257.75,-2.62,-63.19,0.06,0.00,0.81,-0.01,1.18
40.00,2.00,287.62,-14.38,21.38,-0.12,-0.38,0.56,-0.01,1.18
40.00,0.00,249.69,4.19,-96.38,0.44,0.31,0.62,0.01,1.20
40.00,1.00,257.75,-2.62,-63.19,0.00,-0.44,0.44,0.01,1.20
40.00,2.00,287.62,-14.38,21.38,0.12,-0.75,0.19,0.01,1.20
40.00,0.00,249.62,4.25,-96.38,-0.06,1.38,1.00,-0.02,1.22
40.00,1.00,257.75,-2.62,-63.19,-0.12,-0.19,0.00,-0.02,1.22
40.00,2.00,287.62,-14.38,21.38,0.56,-0.88,0.31,-0.02,1.22
40.00,0.00,249.56,4.25,-96.38,-0.56,2.00,0.88,-0.06,1.24
40.00,1.00,257.75,-2.62,-63.19,-0.19,0.19,0.00,-0.06,1.24
40.00,2.00,287.62,-14.38,21.38,0.31,-0.81,0.69,-0.06,1.24
40.00,0.00,249.56,4.25,-96.38,-0.50,1.94,0.25,-0.06,1.26
40.00,1.00,257.75,-2.62,-63.19,-0.19,0.31,0.19,-0.06,1.26
40.00,2.00,287.62,-14.31,21.31,-0.38,-1.12,1.50,-0.06,1.26
40.00,0.00,249.50,4.25,-96.38,0.06,0.56,-0.06,-0.03,1.28
40.00,1.00,257.75,-2.62,-63.19,-0.44,0.00,0.62,-0.03,1.28
40.00,2.00,287.56,-14.31,21.31,-0.62,-0.75,1.19,-0.03,1.28
40.00,0.00,249.50,4.25,-96.38,0.31,-0.31,0.00,-0.03,1.30
40.00,1.00,257.75,-2.62,-63.19,0.19,0.25,0.44,-0.03,1.30
40.00,2.00,287.56,-14.31,21.31,0.12,-0.50,0.12,-0.03,1.30
40.00,0.00,249.50,4.25,-96.38,-0.06,-0.81,-0.06,-0.05,1.32
40.00,1.00,257.75,-2.62,-63.19,0.19,0.25,0.25,-0.05,1.32
40.00,2.00,287.56,-14.31,21.31,0.44,-0.38,-0.12,-0.05,1.32
40.00,0.00,249.50,4.25,-96.38,-0.44,-0.38,-0.19,-0.10,1.34
40.00,1.00,257.75,-2.62,-63.19,-0.19,-0.25,0.12,-0.10,1.34
40.00,2.00,287.56,-14.31,21.31,0.75,-0.38,0.19,-0.10,1.34
40.00,0.00,249.50,4.25,-96.38,-0.38,-0.19,-0.06,-0.13,1.36
40.00,1.00,257.75,-2.62,-63.19,0.25,-0.19,-0.06,-0.13,1.36
40.00,2.00,287.56,-14.31,21.31,0.38,-0.38,0.31,-0.13,1.36
40.00,0.00,249.50,4.25,-96.38,0.06,0.19,-0.06,-0.13,1.38
40.00,1.00,257.75,-2.62,-63.19,0.38,-0.25,0.06,-0.13,1.38
40.00,2.00,287.56,-14.31,21.31,0.06,-0.06,0.19,-0.13,1.38
40.00,0.00,249.50,4.25,-96.38,0.44,-0.19,0.12,-0.12,1.40
40.00,1.00,257.75,-2.62,-63.19,0.00,-0.19,-0.31,-0.12,1.40
40.00,2.00,287.56,-14.31,21.31,0.19,-0.12,-0.31,-0.12,1.40
40.00,0.00,249.50,4.25,-96.38,0.12,-0.38,-0.06,-0.15,1.42
40.00,1.00,257.75,-2.62,-63.19,0.12,-0.25,-0.44,-0.15,1.42
40.00,2.00,287.56,-14.31,21.31,0.81,0.00,-0.50,-0.15,1.42
40.00,0.00,249.50,4.25,-96.38,0.06,0.00,-0.25,-0.16,1.44
40.00,1.00,257.75,-2.62,-63.19,-0.19,-0.12,-0.62,-0.16,1.44
40.00,2.00,287.56,-14.31,21.31,0.38,0.06,-0.31,-0.16,1.44
40.00,0.00,249.50,4.25,-96.38,-0.50,-0.50,-0.25,-0.20,1.46
40.00,1.00,257.75,-2.62,-63.19,0.06,-0.19,-0.38,-0.20,1.46
40.00,2.00,287.56,-14.31,21.31,0.44,-0.12,0.12,-0.20,1.46
40.00,0.00,249.50,4.25,-96.38,-0.50,-0.62,-0.25,-0.22,1.48
40.00,1.00,257.75,-2.62,-63.19,-0.19,0.06,-0.38,-0.22,1.48
40.00,2.00,287.56,-14.31,21.31,-0.06,-0.19,0.50,-0.22,1.48
40.00,0.00,249.56,4.25,-96.38,-0.12,-0.81,-0.31,-0.21,1.50
40.00,1.00,257.75,-2.62,-63.19,0.00,0.12,-0.12,-0.21,1.50
40.00,2.00,287.56,-14.31,21.31,-0.31,-0.19,0.12,-0.21,1.50
40.00,0.00,249.56,4.25,-96.38,0.31,-0.62,-0.38,-0.21,1.52
40.00,1.00,257.75,-2.62,-63.19,0.19,0.00,0.12,-0.21,1.52
40.00,2.00,287.56,-14.31,21.31,0.38,-0.31,-0.38,-0.21,1.52
40.00,0.00,249.56,4.25,-96.38,-0.06,-0.25,-0.31,-0.25,1.54
40.00,1.00,257.75,-2.62,-63.19,-0.06,-0.38,-0.19,-0.25,1.54
40.00,2.00,287.56,-14.31,21.31,0.81,0.19,-0.38,-0.25,1.54
40.00,0.00,249.56,4.25,-96.38,0.00,0.06,-0.12,-0.25,1.56
40.00,1.00,257.75,-2.62,-63.19,0.00,-0.06,-0.19,-0.25,1.56
40.00,2.00,287.56,-14.31,21.31,0.12,0.06,-0.25,-0.25,1.56
40.00,0.00,249.56,4.25,-96.38,-0.56,-0.25,0.06,-0.26,1.58
40.00,1.00,257.75,-2.62,-63.19,-0.12,0.12,0.06,-0.26,1.58
40.00,2.00,287.56,-14.31,21.31,-0.44,-0.12,0.31,-0.26,1.58
40.00,0.00,249.56,4.25,-96.38,-0.25,-0.12,0.25,-0.25,1.60
40.00,1.00,257.75,-2.62,-63.19,-0.38,0.38,0.06,-0.25,1.60
40.00,2.00,287.56,-14.31,21.31,-0.38,-0.25,0.12,-0.25,1.60
40.00,0.00,249.56,4.25,-96.38,-0.38,0.19,0.00,-0.26,1.62
40.00,1.00,257.75,-2.62,-63.19,-0.38,0.06,0.12,-0.26,1.62
40.00,2.00,287.56,-14.31,21.31,-0.12,-0.50,0.06,-0.26,1.62
40.00,0.00,249.56,4.25,-96.38,-0.69,0.31,-0.06,-0.29,1.64
40.00,1.00,257.75,-2.62,-63.19,-0.31,0.75,0.12,-0.29,1.64
40.00,2.00,287.56,-14.31,21.31,-0.12,-0.56,0.00,-0.29,1.64
40.00,0.00,249.56,4.25,-96.38,-0.56,0.12,0.00,-0.26,1.66
40.00,1.00,257.75,-2.62,-63.19,-0.44,0.38,0.50,-0.26,1.66
40.00,2.00,287.56,-14.31,21.31,-1.12,-0.44,0.31,-0.26,1.66
40.00,0.00,249.56,4.25,-96.38,-0.44,0.62,0.31,-0.22,1.68
40.00,1.00,257.75,-2.62,-63.19,-0.56,-0.12,0.44,-0.22,1.68
40.00,2.00,287.56,-14.31,21.31,-1.50,-0.06,0.44,-0.22,1.68
40.00,0.00,249.56,4.25,-96.38,-0.31,0.75,0.44,-0.19,1.70
40.00,1.00,257.75,-2.62,-63.19,-0.38,0.12,-0.12,-0.19,1.70
40.00,2.00,287.56,-14.31,21.38,-1.12,0.88,0.06,-0.19,1.70
40.00,0.00,249.50,4.25,-96.38,-0.50,0.69,0.50,-0.18,1.72
40.00,1.00,257.75,-2.62,-63.19,-0.62,0.69,-0.19,-0.18,1.72
40.00,2.00,287.56,-14.31,21.38,-0.56,-0.19,-0.31,-0.18,1.72
40.00,0.00,249.50,4.25,-96.38,-1.19,-0.12,0.00,-0.22,1.74
40.00,1.00,257.69,-2.69,-63.19,-0.94,0.81,-0.06,-0.22,1.74
40.00,2.00,287.56,-14.31,21.38,-0.38,-0.19,-0.25,-0.22,1.74
40.00,0.00,249.56,4.25,-96.31,-1.00,-1.12,-0.69,-0.24,1.76
40.00,1.00,257.69,-2.69,-63.19,-0.62,0.94,0.25,-0.24,1.76
40.00,2.00,287.56,-14.31,21.38,-0.44,0.62,-0.25,-0.24,1.76
40.00,0.00,249.56,4.25,-96.31,-0.19,-1.38,-0.31,-0.22,1.78
40.00,1.00,257.69,-2.69,-63.19,-0.12,1.00,0.38,-0.22,1.78
40.00,2.00,287.56,-14.31,21.38,-0.69,0.50,0.06,-0.22,1.78
40.00,0.00,249.62,4.25,-96.31,0.56,-1.00,-0.25,-0.17,1.80
40.00,1.00,257.69,-2.69,-63.19,0.06,0.50,0.31,-0.17,1.80
40.00,2.00,287.56,-14.31,21.38,-0.56,0.56,-0.19,-0.17,1.80
40.00,0.00,249.62,4.25,-96.38,0.69,-0.56,0.12,-0.12,1.82
40.00,1.00,257.69,-2.69,-63.19,-0.38,0.19,0.06,-0.12,1.82
40.00,2.00,287.56,-14.31,21.38,-0.50,0.50,-0.12,-0.12,1.82
40.00,0.00,249.62,4.25,-96.38,0.69,0.00,0.50,-0.08,1.84
40.00,1.00,257.69,-2.69,-63.19,-0.56,0.69,-0.19,-0.08,1.84
40.00,2.00,287.56,-14.31,21.38,-0.44,0.75,0.25,-0.08,1.84
40.00,0.00,249.62,4.25,-96.38,1.00,0.50,0.94,-0.01,1.86
40.00,1.00,257.69,-2.69,-63.19,-0.81,1.00,0.19,-0.01,1.86
40.00,2.00,287.56,-14.38,21.44,-0.56,-0.19,1.00,-0.01,1.86
40.00,0.00,249.56,4.25,-96.38,1.12,-0.25,0.75,0.05,1.88
40.00,1.00,257.69,-2.69,-63.12,-0.81,0.88,0.06,0.05,1.88
40.00,2.00,287.50,-14.38,21.44,-0.25,-0.38,1.00,0.05,1.88
40.00,0.00,249.56,4.31,-96.44,1.38,-1.06,0.75,0.12,1.90
40.00,1.00,257.62,-2.69,-63.12,-0.88,0.88,-0.12,0.12,1.90
40.00,2.00,287.50,-14.38,21.38,-0.25,-0.31,1.06,0.12,1.90
40.00,0.00,249.56,4.31,-96.44,2.06,-1.38,1.62,0.23,1.92
40.00,1.00,257.62,-2.69,-63.12,-0.50,0.81,-0.31,0.23,1.92
40.00,2.00,287.50,-14.38,21.44,-0.75,-0.25,1.38,0.23,1.92
40.00,0.00,249.56,4.38,-96.50,3.06,-0.88,2.38,0.39,1.94
40.00,1.00,257.62,-2.75,-63.12,-0.56,1.19,-0.50,0.39,1.94
40.00,2.00,287.44,-14.38,21.44,-0.56,-0.56,1.62,0.39,1.94
40.00,0.00,249.50,4.44,-96.62,4.25,0.31,3.31,0.56,1.96
40.00,1.00,257.62,-2.75,-63.12,-0.69,0.88,-0.69,0.56,1.96
40.00,2.00,287.38,-14.38,21.38,0.19,-0.81,1.94,0.56,1.96
40.00,0.00,249.38,4.50,-96.69,4.88,1.62,3.81,0.69,1.98
40.00,1.00,257.62,-2.75,-63.12,-0.31,0.75,-0.94,0.69,1.98
40.00,2.00,287.38,-14.38,21.38,1.62,-0.81,1.94,0.69,1.98
40.00,0.00,249.25,4.56,-96.81,5.88,2.31,4.62,0.90,2.00
40.00,1.00,257.62,-2.81,-63.12,-0.12,1.00,-1.19,0.90,2.00
40.00,2.00,287.31,-14.38,21.31,0.94,-0.44,2.69,0.90,2.00
40.00,0.00,249.06,4.69,-96.94,6.56,2.25,5.50,1.18,2.02
40.00,1.00,257.62,-2.81,-63.12,-0.25,1.25,-1.00,1.18,2.02
40.00,2.00,287.25,-14.38,21.31,0.00,-1.12,3.12,1.18,2.02
40.00,0.00,248.88,4.88,-97.12,7.31,2.75,6.44,1.48,2.04
40.00,1.00,257.62,-2.88,-63.12,-0.19,1.19,-1.06,1.48,2.04
40.00,2.00,287.19,-14.38,21.31,0.00,-1.31,2.88,1.48,2.04
40.00,0.00,248.56,5.00,-97.25,7.75,4.19,7.25,1.81,2.06
40.00,1.00,257.69,-2.88,-63.12,-0.19,1.25,-1.00,1.81,2.06
40.00,2.00,287.12,-14.38,21.25,0.00,-1.19,3.06,1.81,2.06
40.00,0.00,248.25,5.19,-97.44,8.31,6.56,8.19,2.19,2.08
40.00,1.00,257.69,-2.94,-63.12,-0.31,1.81,-1.00,2.19,2.08
40.00,2.00,287.06,-14.38,21.25,-0.75,-1.81,3.94,2.19,2.08
40.00,0.00,247.94,5.38,-97.62,8.81,8.62,8.62,2.62,2.10
40.00,1.00,257.62,-2.94,-63.12,-0.19,1.88,-0.75,2.62,2.10
40.00,2.00,286.94,-14.38,21.25,-1.38,-1.88,4.62,2.62,2.10
40.00,0.00,247.50,5.56,-97.81,10.69,9.00,9.06,3.13,2.12
40.00,1.00,257.62,-2.94,-63.12,-0.25,1.75,-0.38,3.13,2.12
40.00,2.00,286.88,-14.38,21.25,-1.56,-1.38,5.12,3.13,2.12
40.00,0.00,247.12,5.75,-98.00,10.62,10.38,8.56,3.62,2.14
40.00,1.00,257.62,-3.00,-63.12,-0.06,1.62,-0.44,3.62,2.14
40.00,2.00,286.75,-14.38,21.25,-1.00,-1.56,4.75,3.62,2.14
40.00,0.00,246.75,5.94,-98.19,11.12,10.00,6.38,4.09,2.16
40.00,1.00,257.62,-3.00,-63.12,-0.19,1.19,-0.62,4.09,2.16
40.00,2.00,286.69,-14.44,21.25,-0.12,-0.62,4.25,4.09,2.16
40.00,0.00,246.38,6.06,-98.44,12.81,8.81,6.12,4.67,2.18
40.00,1.00,257.62,-3.00,-63.12,-0.38,1.25,-0.69,4.67,2.18
40.00,2.00,286.56,-14.44,21.25,-0.94,-0.06,4.12,4.67,2.18
40.00,0.00,246.06,6.19,-98.75,14.81,9.12,6.69,5.34,2.20
40.00,1.00,257.62,-3.06,-63.12,-0.25,1.19,-0.75,5.34,2.20
40.00,2.00,286.50,-14.50,21.25,-1.31,-0.12,4.38,5.34,2.20
40.00,0.00,245.62,6.38,-99.00,15.69,9.75,7.12,6.06,2.22
40.00,1.00,257.62,-3.06,-63.12,-0.62,0.94,-0.88,6.06,2.22
40.00,2.00,286.38,-14.50,21.25,-1.44,-0.50,4.75,6.06,2.22
40.00,0.00,245.25,6.50,-99.31,17.31,9.44,7.25,6.85,2.24
40.00,1.00,257.62,-3.06,-63.12,-0.25,1.19,-1.31,6.85,2.24
40.00,2.00,286.31,-14.50,21.25,-1.44,-0.88,4.94,6.85,2.24
40.00,0.00,244.88,6.69,-99.69,19.25,7.12,7.81,7.69,2.26
40.00,1.00,257.62,-3.12,-63.12,-0.31,1.25,-1.50,7.69,2.26
40.00,2.00,286.19,-14.56,21.25,-0.69,-1.19,4.81,7.69,2.26
40.00,0.00,244.56,6.81,-100.12,20.88,4.88,8.25,8.58,2.28
40.00,1.00,257.62,-3.12,-63.12,0.06,1.25,-1.00,8.58,2.28
40.00,2.00,286.12,-14.56,21.25,-0.38,-1.94,4.50,8.58,2.28
40.00,0.00,244.25,7.00,-100.50,21.00,4.75,7.88,9.43,2.30
40.00,1.00,257.69,-3.19,-63.12,-0.06,0.38,-1.25,9.43,2.30
40.00,2.00,286.00,-14.56,21.19,0.75,-1.31,4.12,9.43,2.30
40.00,0.00,243.94,7.19,-100.88,20.69,5.19,7.19,10.35,2.32
40.00,1.00,257.69,-3.19,-63.12,-0.06,0.31,-1.94,10.35,2.32
40.00,2.00,285.94,-14.56,21.19,-1.19,-0.75,4.50,10.35,2.32
40.00,0.00,243.56,7.31,-101.31,21.75,5.88,8.50,11.32,2.34
40.00,1.00,257.75,-3.25,-63.12,-0.31,1.50,-1.88,11.32,2.34
40.00,2.00,285.81,-14.56,21.19,-1.50,-1.44,5.19,11.32,2.34
40.00,0.00,243.19,7.56,-101.75,22.56,6.56,9.88,12.33,2.36
40.00,1.00,257.75,-3.31,-63.12,0.25,2.00,-1.06,12.33,2.36
40.00,2.00,285.69,-14.56,21.19,-1.44,-3.06,5.44,12.33,2.36
40.00,0.00,242.69,7.81,-102.19,24.25,5.50,12.31,13.38,2.38
40.00,1.00,257.75,-3.31,-63.12,0.00,1.00,-0.62,13.38,2.38
40.00,2.00,285.56,-14.50,21.19,-0.69,-3.56,4.88,13.38,2.38
40.00,0.00,242.25,8.06,-102.62,23.38,5.56,12.00,14.37,2.40
40.00,1.00,257.75,-3.31,-63.12,0.06,1.06,-0.69,14.37,2.40
40.00,2.00,285.50,-14.50,21.12,-0.25,-3.19,4.56,14.37,2.40
40.00,0.00,241.88,8.25,-103.06,22.56,5.31,10.44,15.36,2.42
40.00,1.00,257.69,-3.38,-63.12,-0.06,1.31,-0.50,15.36,2.42
40.00,2.00,285.38,-14.50,21.12,-1.12,-2.81,4.50,15.36,2.42
40.00,0.00,241.44,8.50,-103.50,23.56,4.38,10.81,16.38,2.44
40.00,1.00,257.69,-3.38,-63.12,-0.06,1.38,-0.69,16.38,2.44
40.00,2.00,285.31,-14.44,21.12,-0.75,-2.75,4.81,16.38,2.44
40.00,0.00,241.06,8.75,-104.00,25.25,2.31,11.94,17.47,2.46
40.00,1.00,257.69,-3.38,-63.12,-0.12,1.88,-0.56,17.47,2.46
40.00,2.00,285.19,-14.44,21.12,-0.62,-4.31,5.12,17.47,2.46
40.00,0.00,240.69,8.94,-104.50,25.56,0.81,12.81,18.55,2.48
40.00,1.00,257.69,-3.38,-63.12,0.25,1.56,-0.56,18.55,2.48
40.00,2.00,285.06,-14.38,21.06,-0.19,-4.94,4.69,18.55,2.48
40.00,0.00,240.38,9.19,-105.00,23.94,0.06,11.81,19.58,2.50
40.00,1.00,257.62,-3.44,-63.12,-0.12,1.69,-0.38,19.58,2.50
40.00,2.00,284.94,-14.31,21.06,-0.56,-4.56,4.12,19.58,2.50
40.00,0.00,240.06,9.38,-105.44,22.75,0.81,11.12,20.57,2.52
40.00,1.00,257.62,-3.44,-63.12,0.00,0.75,-0.38,20.57,2.52
40.00,2.00,284.88,-14.25,21.06,-0.88,-3.94,3.94,20.57,2.52
40.00,0.00,239.75,9.62,-105.88,23.12,0.38,11.31,21.55,2.54
40.00,1.00,257.62,-3.44,-63.12,-0.19,0.19,-0.88,21.55,2.54
40.00,2.00,284.75,-14.25,21.00,-0.31,-4.06,4.00,21.55,2.54
40.00,0.00,239.44,9.81,-106.38,24.44,-1.94,12.75,22.55,2.56
40.00,1.00,257.69,-3.44,-63.12,-0.12,0.38,-1.12,22.55,2.56
40.00,2.00,284.69,-14.19,21.00,0.69,-4.00,3.38,22.55,2.56
40.00,0.00,239.12,10.06,-106.81,23.94,-2.94,12.62,23.53,2.58
40.00,1.00,257.69,-3.50,-63.12,-0.38,0.44,-1.25,23.53,2.58
40.00,2.00,284.62,-14.12,20.94,0.62,-4.38,3.06,23.53,2.58
40.00,0.00,238.88,10.25,-107.31,22.94,-2.38,11.75,24.45,2.60
40.00,1.00,257.69,-3.50,-63.12,0.00,0.00,-1.25,24.45,2.60
40.00,2.00,284.56,-14.06,20.94,1.00,-4.00,2.81,24.45,2.60
40.00,0.00,238.62,10.44,-107.75,23.00,-2.94,11.00,25.34,2.62
40.00,1.00,257.75,-3.50,-63.12,0.06,-0.44,-1.50,25.34,2.62
40.00,2.00,284.50,-14.00,20.88,1.69,-3.94,2.31,25.34,2.62
40.00,0.00,238.38,10.56,-108.19,23.75,-4.06,11.69,26.25,2.64
40.00,1.00,257.75,-3.56,-63.12,-0.19,-0.31,-1.44,26.25,2.64
40.00,2.00,284.44,-13.94,20.81,2.25,-4.12,2.25,26.25,2.64
40.00,0.00,238.19,10.75,-108.69,23.75,-4.88,11.56,27.22,2.66
40.00,1.00,257.81,-3.56,-63.12,-0.50,-0.31,-1.38,27.22,2.66
40.00,2.00,284.38,-13.88,20.75,0.62,-4.56,2.56,27.22,2.66
40.00,0.00,237.94,10.94,-109.19,22.81,-3.25,11.31,28.23,2.68
40.00,1.00,257.81,-3.56,-63.12,-0.38,-0.25,-1.12,28.23,2.68
40.00,2.00,284.31,-13.81,20.75,-1.31,-4.88,2.69,28.23,2.68
40.00,0.00,237.69,11.12,-109.62,21.81,-1.50,10.50,29.19,2.70
40.00,1.00,257.81,-3.62,-63.12,-0.19,-0.31,-1.38,29.19,2.70
40.00,2.00,284.25,-13.75,20.75,-1.12,-4.62,2.50,29.19,2.70
40.00,0.00,237.38,11.31,-110.06,21.50,-0.75,10.38,30.12,2.72
40.00,1.00,257.88,-3.62,-63.12,-0.62,-0.81,-1.56,30.12,2.72
40.00,2.00,284.19,-13.69,20.75,-0.56,-4.44,2.94,30.12,2.72
40.00,0.00,237.06,11.50,-110.44,21.50,0.75,10.44,31.07,2.74
40.00,1.00,257.94,-3.69,-63.12,0.19,-0.88,-1.69,31.07,2.74
40.00,2.00,284.06,-13.62,20.75,-1.25,-5.69,2.81,31.07,2.74
40.00,0.00,236.62,11.75,-110.88,22.25,1.69,11.62,32.03,2.76
40.00,1.00,257.94,-3.69,-63.12,1.00,-0.69,-1.75,32.03,2.76
40.00,2.00,284.00,-13.50,20.75,-0.44,-5.56,2.38,32.03,2.76
40.00,0.00,236.44,11.81,-111.12,21.62,1.19,11.38,32.94,2.78
40.00,1.00,258.00,-3.69,-63.12,0.44,-0.12,-1.12,32.94,2.78
40.00,2.00,283.94,-13.44,20.75,-0.06,-5.81,2.44,32.94,2.78
40.00,0.00,236.06,12.06,-111.56,21.31,2.75,10.88,33.92,2.80
40.00,1.00,258.00,-3.75,-63.12,0.06,-0.38,-0.94,33.92,2.80
40.00,2.00,283.88,-13.38,20.75,-2.12,-5.50,2.94,33.92,2.80
40.00,0.00,235.62,12.25,-111.94,21.88,4.44,10.62,34.91,2.82
40.00,1.00,258.00,-3.75,-63.12,0.12,-0.06,-1.31,34.91,2.82
40.00,2.00,283.75,-13.25,20.75,-1.69,-6.56,3.38,34.91,2.82
40.00,0.00,235.12,12.50,-112.38,22.50,5.19,10.56,35.90,2.84
40.00,1.00,258.06,-3.75,-63.12,0.75,0.56,-1.25,35.90,2.84
40.00,2.00,283.69,-13.19,20.75,-1.06,-6.75,3.44,35.90,2.84
40.00,0.00,234.62,12.69,-112.81,23.00,5.19,10.69,36.90,2.86
40.00,1.00,258.06,-3.81,-63.12,-0.25,0.75,-1.00,36.90,2.86
40.00,2.00,283.62,-13.06,20.75,-0.88,-6.25,2.62,36.90,2.86
40.00,0.00,234.12,12.94,-113.25,23.00,5.56,10.25,37.93,2.88
40.00,1.00,258.06,-3.81,-63.12,-0.38,1.44,-0.44,37.93,2.88
40.00,2.00,283.50,-12.94,20.75,-1.44,-6.19,3.00,37.93,2.88
40.00,0.00,233.62,13.12,-113.69,23.12,5.44,10.50,39.00,2.90
40.00,1.00,258.06,-3.81,-63.12,-0.31,1.25,0.19,39.00,2.90
40.00,2.00,283.44,-12.88,20.75,-2.50,-6.50,4.00,39.00,2.90
40.00,0.00,233.12,13.38,-114.12,22.88,5.38,9.50,40.06,2.92
40.00,1.00,258.06,-3.81,-63.12,-0.31,-0.19,0.25,40.06,2.92
40.00,2.00,283.31,-12.81,20.75,-2.38,-5.50,3.69,40.06,2.92
40.00,0.00,232.69,13.56,-114.50,21.94,3.88,8.19,41.02,2.94
40.00,1.00,258.06,-3.81,-63.12,-0.19,0.44,-0.06,41.02,2.94
40.00,2.00,283.25,-12.75,20.81,-0.81,-4.88,3.31,41.02,2.94
40.00,0.00,232.31,13.69,-114.94,22.25,3.00,7.88,41.98,2.96
40.00,1.00,258.06,-3.81,-63.12,-0.50,1.50,0.31,41.98,2.96
40.00,2.00,283.12,-12.69,20.75,-0.81,-4.88,3.25,41.98,2.96
40.00,0.00,232.00,13.81,-115.38,22.81,0.94,7.62,43.00,2.98
40.00,1.00,258.00,-3.81,-63.12,-0.62,1.69,0.75,43.00,2.98
40.00,2.00,283.06,-12.62,20.75,-1.50,-5.12,3.56,43.00,2.98
40.00,0.00,231.69,13.88,-115.75,22.62,-0.12,7.31,44.01,3.00
40.00,1.00,258.00,-3.81,-63.12,-0.81,0.75,0.62,44.01,3.00
40.00,2.00,282.94,-12.56,20.75,-1.25,-4.75,3.62,44.01,3.00
40.00,0.00,231.50,13.94,-116.19,19.31,-0.56,4.12,44.90,3.02
40.00,1.00,257.94,-3.81,-63.12,-0.56,0.62,0.44,44.90,3.02
40.00,2.00,282.88,-12.50,20.81,-1.94,-4.69,3.56,44.90,3.02
40.00,0.00,231.31,14.00,-116.56,19.50,-2.69,3.88,45.80,3.04
40.00,1.00,257.94,-3.81,-63.12,-0.44,0.62,0.12,45.80,3.04
40.00,2.00,282.81,-12.44,20.81,-2.06,-4.06,3.31,45.80,3.04
40.00,0.00,231.12,14.06,-116.94,20.25,-2.94,4.62,46.67,3.06
40.00,1.00,257.94,-3.81,-63.12,-0.69,0.50,-0.25,46.67,3.06
40.00,2.00,282.69,-12.38,20.81,-0.38,-3.25,2.69,46.67,3.06
40.00,0.00,231.00,14.12,-117.38,19.75,-3.62,4.12,47.49,3.08
40.00,1.00,257.94,-3.81,-63.06,-0.75,0.44,-0.50,47.49,3.08
40.00,2.00,282.69,-12.31,20.81,0.25,-3.25,2.12,47.49,3.08
40.00,0.00,230.88,14.12,-117.75,19.69,-4.00,4.12,48.31,3.10
40.00,1.00,257.94,-3.81,-63.06,-1.00,0.81,-0.31,48.31,3.10
40.00,2.00,282.62,-12.31,20.75,0.12,-2.69,2.19,48.31,3.10
40.00,0.00,230.75,14.19,-118.19,20.19,-4.19,5.12,49.18,3.12
40.00,1.00,257.94,-3.88,-63.06,-1.00,0.88,-0.06,49.18,3.12
40.00,2.00,282.56,-12.25,20.75,-0.50,-3.00,2.75,49.18,3.12
40.00,0.00,230.56,14.25,-118.56,19.56,-2.31,5.31,50.04,3.14
40.00,1.00,257.94,-3.88,-63.06,-0.62,0.31,-0.06,50.04,3.14
40.00,2.00,282.50,-12.25,20.75,-1.00,-3.56,2.88,50.04,3.14
40.00,0.00,230.38,14.31,-118.94,18.44,-2.38,4.50,50.84,3.16
40.00,1.00,257.94,-3.88,-63.00,-1.56,-0.12,-0.06,50.84,3.16
40.00,2.00,282.44,-12.19,20.75,-0.69,-3.88,2.62,50.84,3.16
40.00,0.00,230.19,14.31,-119.31,18.19,-2.75,4.50,51.63,3.18
40.00,1.00,257.94,-3.88,-63.00,-0.62,0.44,-0.12,51.63,3.18
40.00,2.00,282.38,-12.12,20.75,-0.69,-3.38,2.06,51.63,3.18
40.00,0.00,230.00,14.38,-119.69,17.62,-2.31,4.06,52.37,3.20
40.00,1.00,257.94,-3.88,-63.00,-1.19,0.12,-0.12,52.37,3.20
40.00,2.00,282.31,-12.06,20.75,0.00,-3.81,2.25,52.37,3.20
40.00,0.00,229.88,14.44,-120.06,17.62,-2.88,4.69,53.10,3.22
40.00,1.00,257.94,-3.88,-62.94,-0.88,0.19,0.19,53.10,3.22
40.00,2.00,282.25,-12.00,20.75,0.38,-3.31,2.19,53.10,3.22
40.00,0.00,229.69,14.50,-120.38,16.31,-2.19,4.00,53.77,3.24
40.00,1.00,257.94,-3.88,-62.94,-0.94,0.56,0.12,53.77,3.24
40.00,2.00,282.19,-12.00,20.69,0.25,-3.38,2.81,53.77,3.24
40.00,0.00,229.50,14.56,-120.75,16.00,-1.56,3.88,54.44,3.26
40.00,1.00,257.94,-3.88,-62.94,-0.62,0.81,0.19,54.44,3.26
40.00,2.00,282.12,-11.94,20.69,0.12,-3.69,2.62,54.44,3.26
40.00,0.00,229.31,14.62,-121.06,16.50,-1.88,5.56,55.12,3.28
40.00,1.00,257.88,-3.88,-62.94,-0.88,0.94,0.31,55.12,3.28
40.00,2.00,282.06,-11.88,20.69,0.38,-3.12,2.56,55.12,3.28
40.00,0.00,229.06,14.69,-121.38,15.81,-1.31,5.81,55.77,3.30
40.00,1.00,257.88,-3.88,-62.88,-0.88,1.25,0.38,55.77,3.30
40.00,2.00,282.00,-11.88,20.69,0.19,-3.25,3.12,55.77,3.30
40.00,0.00,228.81,14.75,-121.69,12.81,0.94,5.19,56.29,3.32
40.00,1.00,257.88,-3.88,-62.88,-1.19,1.06,0.50,56.29,3.32
40.00,2.00,281.88,-11.81,20.62,0.44,-4.00,3.44,56.29,3.32
40.00,0.00,228.62,14.81,-121.88,11.12,0.12,3.44,56.72,3.34
40.00,1.00,257.88,-3.88,-62.88,-1.50,1.88,0.75,56.72,3.34
40.00,2.00,281.81,-11.75,20.62,1.00,-3.94,4.06,56.72,3.34
40.00,0.00,228.44,14.94,-122.12,13.31,-1.62,6.19,57.24,3.36
40.00,1.00,257.81,-3.88,-62.81,-1.56,1.88,1.06,57.24,3.36
40.00,2.00,281.75,-11.75,20.56,0.94,-3.75,3.88,57.24,3.36
40.00,0.00,228.25,15.00,-122.38,12.06,-0.75,5.56,57.70,3.38
40.00,1.00,257.75,-3.88,-62.81,-0.88,2.06,1.25,57.70,3.38
40.00,2.00,281.62,-11.69,20.56,1.06,-4.56,4.00,57.70,3.38
40.00,0.00,228.00,15.06,-122.62,11.75,-0.56,4.94,58.19,3.40
40.00,1.00,257.69,-3.88,-62.81,-1.62,1.75,1.25,58.19,3.40
40.00,2.00,281.56,-11.62,20.50,-0.06,-4.62,3.81,58.19,3.40
40.00,0.00,227.81,15.12,-122.81,11.06,0.38,4.31,58.70,3.42
40.00,1.00,257.69,-3.88,-62.75,-1.44,0.81,1.12,58.70,3.42
40.00,2.00,281.44,-11.56,20.50,-1.00,-5.19,3.50,58.70,3.42
40.00,0.00,227.62,15.19,-123.00,9.56,1.44,2.81,59.11,3.44
40.00,1.00,257.62,-3.88,-62.75,-1.69,0.75,0.88,59.11,3.44
40.00,2.00,281.38,-11.44,20.50,-0.25,-5.12,2.56,59.11,3.44
40.00,0.00,227.50,15.25,-123.19,11.06,-0.19,3.19,59.52,3.46
40.00,1.00,257.62,-3.88,-62.69,-1.19,0.69,0.75,59.52,3.46
40.00,2.00,281.31,-11.38,20.44,1.25,-4.25,2.06,59.52,3.46
40.00,0.00,227.25,15.31,-123.44,10.75,0.81,4.19,59.90,3.48
40.00,1.00,257.62,-3.88,-62.69,-1.62,0.69,0.94,59.90,3.48
40.00,2.00,281.25,-11.31,20.44,1.75,-4.00,1.94,59.90,3.48
40.00,0.00,227.06,15.38,-123.62,8.81,1.31,2.81,60.23,3.50
40.00,1.00,257.56,-3.81,-62.62,-1.62,1.00,0.88,60.23,3.50
40.00,2.00,281.19,-11.25,20.38,0.94,-4.56,2.50,60.23,3.50
40.00,0.00,226.88,15.44,-123.75,8.06,2.00,2.81,60.52,3.52
40.00,1.00,257.56,-3.81,-62.62,-1.88,0.88,1.12,60.52,3.52
40.00,2.00,281.12,-11.19,20.31,1.25,-4.50,3.06,60.52,3.52
40.00,0.00,226.62,15.50,-123.94,7.38,3.94,2.19,60.74,3.54
40.00,1.00,257.50,-3.81,-62.56,-2.06,0.25,1.06,60.74,3.54
40.00,2.00,281.06,-11.12,20.31,2.00,-4.50,3.00,60.74,3.54
40.00,0.00,226.31,15.62,-124.06,7.44,4.06,2.56,60.98,3.56
40.00,1.00,257.50,-3.81,-62.56,-1.75,1.31,1.06,60.98,3.56
40.00,2.00,281.00,-11.12,20.25,1.75,-3.44,2.75,60.98,3.56
40.00,0.00,226.06,15.69,-124.19,8.31,4.44,3.62,61.31,3.58
40.00,1.00,257.44,-3.81,-62.50,-2.38,2.44,1.25,61.31,3.58
40.00,2.00,280.94,-11.06,20.19,0.50,-2.00,3.06,61.31,3.58
40.00,0.00,225.69,15.81,-124.31,5.50,7.81,2.50,61.51,3.60
40.00,1.00,257.38,-3.81,-62.44,-2.12,3.06,1.44,61.51,3.60
40.00,2.00,280.88,-11.06,20.19,0.75,-3.50,4.00,61.51,3.60
40.00,0.00,225.38,15.94,-124.31,3.38,8.00,0.06,61.62,3.62
40.00,1.00,257.31,-3.81,-62.44,-2.44,2.19,1.75,61.62,3.62
40.00,2.00,280.75,-11.00,20.12,0.69,-3.38,5.25,61.62,3.62
40.00,0.00,225.06,16.00,-124.38,3.56,6.56,-0.12,61.77,3.64
40.00,1.00,257.25,-3.81,-62.38,-2.50,3.19,2.12,61.77,3.64
40.00,2.00,280.62,-11.00,20.12,0.00,-3.06,5.81,61.77,3.64
40.00,0.00,224.81,16.06,-124.44,5.19,5.62,0.94,62.02,3.66
40.00,1.00,257.19,-3.81,-62.31,-3.00,3.31,2.00,62.02,3.66
40.00,2.00,280.50,-11.00,20.12,-0.81,-3.38,6.00,62.02,3.66
40.00,0.00,224.56,16.12,-124.44,3.56,7.25,-0.62,62.21,3.68
40.00,1.00,257.06,-3.81,-62.25,-2.75,3.75,1.62,62.21,3.68
40.00,2.00,280.38,-11.00,20.06,-1.00,-2.56,6.44,62.21,3.70
40.00,0.00,224.38,16.19,-124.50,2.25,7.25,-3.56,62.34,3.70
40.00,1.00,257.00,-3.81,-62.19,-3.19,4.00,1.88,62.34,3.70
40.00,2.00,280.25,-10.94,20.06,-0.75,-2.44,6.31,62.34,3.70
40.00,0.00,224.19,16.19,-124.50,2.56,6.12,-3.38,62.51,3.72
40.00,1.00,256.94,-3.81,-62.12,-3.50,4.25,2.19,62.51,3.72
40.00,2.00,280.12,-11.00,20.06,-1.38,-2.19,6.69,62.51,3.72
40.00,0.00,224.00,16.19,-124.50,3.06,5.88,-3.00,62.74,3.74
40.00,1.00,256.81,-3.81,-62.06,-3.69,4.44,2.06,62.74,3.74
40.00,2.00,279.94,-11.00,20.06,-2.44,-2.69,7.75,62.74,3.74
40.00,0.00,223.88,16.19,-124.50,2.75,5.31,-3.19,62.97,3.76
40.00,1.00,256.75,-3.81,-62.00,-3.69,3.81,2.00,62.97,3.76
40.00,2.00,279.75,-11.00,20.12,-2.69,-2.38,7.94,62.97,3.76
40.00,0.00,223.75,16.19,-124.50,2.19,5.88,-3.88,63.12,3.78
40.00,1.00,256.62,-3.81,-61.94,-3.75,4.19,1.56,63.12,3.78
40.00,2.00,279.62,-11.00,20.12,-1.56,-1.31,7.31,63.12,3.78
40.00,0.00,223.56,16.19,-124.50,1.50,6.25,-4.69,63.25,3.80
40.00,1.00,256.56,-3.81,-61.88,-4.00,4.44,2.00,63.25,3.80
40.00,2.00,279.50,-11.06,20.12,-1.62,-0.81,6.44,63.25,3.80
40.00,0.00,223.44,16.19,-124.50,2.12,5.38,-4.50,63.46,3.82
40.00,1.00,256.44,-3.81,-61.81,-4.44,4.31,1.75,63.46,3.82
40.00,2.00,279.31,-11.06,20.12,-2.81,-1.06,6.81,63.46,3.82
40.00,0.00,223.31,16.19,-124.50,2.69,5.06,-3.00,63.70,3.84
40.00,1.00,256.38,-3.81,-61.75,-4.38,4.06,1.50,63.70,3.84
40.00,2.00,279.19,-11.12,20.19,-2.94,-0.44,6.75,63.70,3.84
40.00,0.00,223.19,16.19,-124.50,0.00,7.00,-5.12,63.83,3.86
40.00,1.00,256.31,-3.88,-61.62,-4.38,4.00,1.25,63.83,3.86
40.00,2.00,279.06,-11.12,20.19,-3.06,-0.19,6.38,63.83,3.86
40.00,0.00,223.12,16.12,-124.44,-1.25,4.81,-7.12,63.94,3.88
40.00,1.00,256.19,-3.88,-61.56,-5.19,4.44,1.31,63.94,3.88
40.00,2.00,278.94,-11.19,20.25,-3.88,0.31,6.00,63.94,3.88
40.00,0.00,223.19,16.06,-124.38,0.88,2.50,-5.44,64.15,3.90
40.00,1.00,256.12,-3.88,-61.44,-4.88,4.38,1.19,64.15,3.90
40.00,2.00,278.81,-11.25,20.31,-4.19,0.12,5.88,64.15,3.90
40.00,0.00,223.12,16.06,-124.38,1.56,2.81,-3.44,64.35,3.92
40.00,1.00,256.06,-3.94,-61.38,-4.44,4.31,0.56,64.35,3.92
40.00,2.00,278.69,-11.25,20.38,-3.19,0.19,5.00,64.35,3.92
40.00,0.00,223.06,16.00,-124.38,0.25,3.69,-4.12,64.49,3.94
40.00,1.00,256.00,-3.94,-61.31,-4.38,4.00,0.50,64.49,3.94
40.00,2.00,278.62,-11.31,20.44,-3.19,0.62,4.25,64.49,3.94
40.00,0.00,223.06,16.00,-124.31,-0.81,3.44,-4.81,64.62,3.96
40.00,1.00,255.94,-4.00,-61.19,-5.25,3.06,0.62,64.62,3.96
40.00,2.00,278.56,-11.31,20.50,-3.75,0.81,3.88,64.62,3.96
40.00,0.00,223.00,15.94,-124.25,-0.25,3.75,-4.50,64.78,3.98
40.00,1.00,255.94,-4.00,-61.12,-5.31,3.06,0.38,64.78,3.98
40.00,2.00,278.44,-11.38,20.56,-4.06,0.38,4.44,64.78,3.98
40.00,0.00,223.00,15.88,-124.25,-0.12,2.62,-4.31,64.94,4.00
40.00,1.00,255.88,-4.00,-61.00,-4.94,2.69,0.31,64.94,4.00
40.00,2.00,278.38,-11.38,20.62,-3.94,0.19,4.31,64.94,4.00
40.00,0.00,223.00,15.88,-124.19,-0.06,1.56,-3.56,65.10,4.02
40.00,1.00,255.81,-4.06,-60.94,-4.88,2.38,0.25,65.10,4.02
40.00,2.00,278.25,-11.44,20.69,-4.00,0.50,3.56,65.10,4.02
40.00,0.00,223.00,15.81,-124.19,-0.69,2.94,-3.31,65.21,4.04
40.00,1.00,255.81,-4.06,-60.81,-5.06,2.06,0.25,65.21,4.04
40.00,2.00,278.19,-11.44,20.75,-3.38,-0.06,3.38,65.21,4.04
40.00,0.00,222.94,15.81,-124.12,-1.00,3.31,-3.12,65.29,4.06
40.00,1.00,255.81,-4.06,-60.75,-5.00,1.94,-0.25,65.29,4.06
40.00,2.00,278.12,-11.50,20.75,-2.81,-0.19,3.19,65.29,4.06
40.00,0.00,222.94,15.81,-124.12,-0.44,3.00,-2.12,65.41,4.08
40.00,1.00,255.75,-4.12,-60.62,-4.88,2.06,-0.19,65.41,4.08
40.00,2.00,278.06,-11.50,20.81,-3.25,-0.06,3.31,65.41,4.08
40.00,0.00,222.81,15.81,-124.06,0.06,2.69,-1.06,65.55,4.10
40.00,1.00,255.75,-4.12,-60.56,-5.00,1.44,-0.12,65.55,4.10
40.00,2.00,278.00,-11.50,20.88,-3.44,-0.25,2.94,65.55,4.10
40.00,0.00,222.75,15.88,-124.06,0.25,2.56,-0.75,65.70,4.12
40.00,1.00,255.69,-4.12,-60.44,-5.38,1.88,-0.44,65.70,4.12
40.00,2.00,277.94,-11.56,20.94,-3.19,0.62,2.44,65.70,4.12
40.00,0.00,222.69,15.88,-124.06,0.56,2.00,-0.50,65.83,4.14
40.00,1.00,255.69,-4.12,-60.31,-4.69,1.69,-0.44,65.83,4.14
40.00,2.00,277.88,-11.56,21.00,-2.50,0.38,2.06,65.83,4.14
40.00,0.00,222.62,15.88,-124.00,-0.75,2.31,-0.81,65.93,4.16
40.00,1.00,255.62,-4.19,-60.19,-4.44,1.69,-0.31,65.93,4.16
40.00,2.00,277.81,-11.56,21.00,-3.12,-0.75,2.56,65.93,4.16
40.00,0.00,222.62,15.88,-124.00,-0.25,0.69,-0.81,66.05,4.18
40.00,1.00,255.62,-4.19,-60.12,-4.38,1.06,-0.25,66.05,4.18
40.00,2.00,277.75,-11.56,21.06,-3.25,-0.62,2.50,66.05,4.18
40.00,0.00,222.56,15.88,-124.00,1.12,-0.31,1.12,66.21,4.20
40.00,1.00,255.62,-4.19,-60.00,-4.25,2.06,-0.50,66.21,4.20
40.00,2.00,277.75,-11.56,21.12,-2.69,0.56,2.00,66.21,4.20
40.00,0.00,222.56,15.94,-124.00,0.12,0.38,1.19,66.31,4.22
40.00,1.00,255.56,-4.19,-59.94,-4.44,2.56,-0.38,66.31,4.22
40.00,2.00,277.69,-11.62,21.19,-2.19,0.50,1.31,66.31,4.22
40.00,0.00,222.56,15.94,-124.00,-1.00,0.31,0.50,66.38,4.24
40.00,1.00,255.56,-4.19,-59.81,-4.00,1.81,-0.44,66.38,4.24
40.00,2.00,277.62,-11.62,21.19,-2.75,-0.62,2.19,66.38,4.24
40.00,0.00,222.56,15.94,-124.00,-1.19,-0.62,0.19,66.39,4.26
40.00,1.00,255.50,-4.19,-59.69,-3.25,1.75,-0.12,66.39,4.26
40.00,2.00,277.62,-11.62,21.25,-1.38,-0.62,2.00,66.39,4.26
40.00,0.00,222.62,15.94,-124.00,-0.50,-1.50,0.75,66.44,4.28
40.00,1.00,255.50,-4.25,-59.62,-3.19,1.81,0.19,66.44,4.28
40.00,2.00,277.56,-11.62,21.25,-1.56,-0.81,2.06,66.44,4.28
40.00,0.00,222.69,15.94,-124.00,-0.75,-1.31,1.06,66.49,4.30
40.00,1.00,255.44,-4.25,-59.56,-3.12,2.06,0.12,66.49,4.30
40.00,2.00,277.50,-11.62,21.25,-1.94,-0.69,2.00,66.49,4.30
40.00,0.00,222.69,15.94,-123.94,-0.88,-1.19,1.06,66.55,4.32
40.00,1.00,255.44,-4.25,-59.50,-3.38,1.75,-0.12,66.55,4.32
40.00,2.00,277.50,-11.62,21.31,-2.38,-0.12,2.00,66.55,4.32
40.00,0.00,222.69,15.94,-123.94,-0.50,-0.44,0.81,66.60,4.34
40.00,1.00,255.44,-4.25,-59.38,-3.31,2.19,-0.25,66.60,4.34
40.00,2.00,277.44,-11.62,21.31,-1.75,0.06,1.75,66.60,4.34
40.00,0.00,222.75,15.94,-123.94,-0.94,-0.19,0.50,66.63,4.36
40.00,1.00,255.38,-4.31,-59.31,-3.00,2.25,0.06,66.63,4.36
40.00,2.00,277.38,-11.69,21.38,-1.69,0.06,2.00,66.63,4.36
40.00,0.00,222.81,15.88,-123.88,-1.12,-1.31,0.12,66.70,4.38
40.00,1.00,255.38,-4.31,-59.25,-3.38,1.69,0.19,66.70,4.38
40.00,2.00,277.31,-11.69,21.38,-2.69,-0.12,2.44,66.70,4.38
40.00,0.00,222.88,15.88,-123.88,-1.62,-1.06,-0.25,66.75,4.40
40.00,1.00,255.31,-4.31,-59.19,-3.00,1.19,-0.06,66.75,4.40
40.00,2.00,277.31,-11.69,21.44,-2.75,0.12,2.44,66.75,4.40
40.00,0.00,222.88,15.88,-123.81,-2.44,-0.44,-1.69,66.71,4.42
40.00,1.00,255.31,-4.31,-59.12,-2.69,1.75,-0.50,66.71,4.42
40.00,2.00,277.25,-11.75,21.50,-1.69,0.62,1.94,66.71,4.42
40.00,0.00,223.06,15.81,-123.75,-1.00,-1.69,-1.25,66.73,4.44
40.00,1.00,255.31,-4.38,-59.06,-2.62,2.12,-0.62,66.73,4.44
40.00,2.00,277.19,-11.75,21.50,-1.50,1.44,1.69,66.73,4.44
40.00,0.00,223.06,15.81,-123.75,-0.81,-0.50,-0.31,66.77,4.46
40.00,1.00,255.25,-4.38,-59.00,-2.31,1.50,-0.56,66.77,4.46
40.00,2.00,277.19,-11.81,21.56,-1.69,1.19,1.81,66.77,4.46
40.00,0.00,223.06,15.81,-123.75,-1.31,1.12,-1.06,66.78,4.48
40.00,1.00,255.25,-4.38,-58.94,-2.31,1.56,-0.56,66.78,4.48
40.00,2.00,277.12,-11.81,21.62,-1.56,0.94,2.25,66.78,4.48
40.00,0.00,223.06,15.81,-123.69,-1.62,0.62,-2.00,66.78,4.50
40.00,1.00,255.25,-4.38,-58.88,-2.56,1.19,-1.25,66.78,4.50
40.00,2.00,277.12,-11.88,21.62,-1.62,1.38,2.06,66.78,4.50
40.00,0.00,223.12,15.75,-123.69,-0.94,-0.56,-1.88,66.80,4.52
40.00,1.00,255.25,-4.44,-58.81,-2.06,1.50,-1.50,66.80,4.52
40.00,2.00,277.06,-11.94,21.69,-1.38,1.50,1.62,66.80,4.52
40.00,0.00,223.19,15.75,-123.62,-1.00,-1.38,-1.31,66.83,4.54
40.00,1.00,255.25,-4.50,-58.75,-2.38,1.25,-1.50,66.83,4.54
40.00,2.00,277.06,-11.94,21.69,-1.69,1.75,1.12,66.83,4.54
40.00,0.00,223.25,15.69,-123.62,-0.94,0.00,-1.38,66.83,4.56
40.00,1.00,255.31,-4.50,-58.69,-2.12,1.75,-1.75,66.83,4.56
40.00,2.00,277.06,-12.00,21.75,-1.06,1.75,1.25,66.83,4.56
40.00,0.00,223.31,15.69,-123.56,-1.19,-0.06,-1.19,66.82,4.58
40.00,1.00,255.31,-4.56,-58.62,-2.06,1.81,-1.81,66.82,4.58
40.00,2.00,277.00,-12.06,21.75,-0.75,1.50,1.25,66.82,4.58
40.00,0.00,223.31,15.69,-123.56,-1.06,-0.50,-1.06,66.86,4.60
40.00,1.00,255.31,-4.62,-58.62,-1.88,1.62,-1.38,66.86,4.60
40.00,2.00,277.00,-12.06,21.81,-2.06,1.31,1.31,66.86,4.60
40.00,0.00,223.38,15.62,-123.56,-1.00,-0.44,-0.88,66.89,4.62
40.00,1.00,255.31,-4.62,-58.56,-1.69,1.50,-1.31,66.89,4.62
40.00,2.00,277.00,-12.12,21.81,-1.81,0.88,0.81,66.89,4.62
40.00,0.00,223.44,15.62,-123.50,-1.31,-0.94,-1.00,66.91,4.64
40.00,1.00,255.31,-4.69,-58.50,-1.19,1.38,-1.31,66.91,4.64
40.00,2.00,276.94,-12.12,21.88,-1.75,0.88,0.88,66.91,4.64
40.00,0.00,223.50,15.62,-123.50,-1.19,-0.81,-1.00,66.91,4.66
40.00,1.00,255.31,-4.69,-58.50,-1.06,1.38,-1.19,66.91,4.66
40.00,2.00,276.94,-12.12,21.94,-1.19,0.69,0.81,66.91,4.66
40.00,0.00,223.56,15.56,-123.44,-1.44,-1.19,-0.75,66.89,4.68
40.00,1.00,255.31,-4.75,-58.44,-1.25,1.94,-1.25,66.89,4.68
40.00,2.00,276.94,-12.19,21.94,-0.94,0.56,0.19,66.89,4.68
40.00,0.00,223.62,15.56,-123.44,-1.06,-1.06,-0.62,66.86,4.70
40.00,1.00,255.31,-4.75,-58.44,-1.38,1.81,-1.31,66.86,4.70
40.00,2.00,276.94,-12.19,21.94,-0.38,0.44,0.25,66.86,4.70
40.00,0.00,223.69,15.50,-123.44,-0.81,-0.69,-0.62,66.83,4.72
40.00,1.00,255.31,-4.81,-58.38,-1.25,1.94,-1.50,66.83,4.72
40.00,2.00,276.94,-12.19,21.94,0.00,0.38,0.50,66.83,4.72
40.00,0.00,223.75,15.50,-123.38,-0.56,-1.50,-0.50,66.82,4.74
40.00,1.00,255.31,-4.88,-58.38,-1.00,1.88,-0.88,66.82,4.74
40.00,2.00,276.94,-12.19,21.94,-0.44,0.75,0.88,66.82,4.74
40.00,0.00,223.75,15.50,-123.38,-0.06,-0.75,-0.69,66.88,4.76
40.00,1.00,255.31,-4.88,-58.31,-1.06,1.31,-0.75,66.88,4.76
40.00,2.00,276.88,-12.19,22.00,-1.44,0.50,1.19,66.88,4.76
40.00,0.00,223.81,15.50,-123.38,0.25,-0.56,-0.62,66.92,4.78
40.00,1.00,255.31,-4.94,-58.31,-1.19,1.00,-0.94,66.92,4.78
40.00,2.00,276.88,-12.25,22.00,-0.62,-0.12,1.00,66.92,4.78
40.00,0.00,223.81,15.44,-123.38,0.44,0.19,-0.75,66.96,4.80
40.00,1.00,255.31,-4.94,-58.31,-1.38,0.88,-0.62,66.96,4.80
40.00,2.00,276.88,-12.25,22.00,-0.50,0.75,1.31,66.96,4.80
40.00,0.00,223.81,15.44,-123.44,0.75,0.38,-0.31,67.00,4.82
40.00,1.00,255.31,-4.94,-58.25,-1.75,2.25,-0.81,67.00,4.82
40.00,2.00,276.81,-12.25,22.00,-0.25,0.44,1.38,67.00,4.82
40.00,0.00,223.75,15.50,-123.44,0.12,1.06,-0.31,67.02,4.84
40.00,1.00,255.31,-5.00,-58.19,-1.19,1.75,-0.69,67.02,4.84
40.00,2.00,276.81,-12.25,22.00,-0.38,-0.62,1.69,67.02,4.84
40.00,0.00,223.75,15.50,-123.38,-0.19,1.50,-0.50,66.98,4.86
40.00,1.00,255.31,-5.00,-58.19,-0.44,1.50,-0.56,66.98,4.86
40.00,2.00,276.75,-12.31,22.00,0.75,-0.25,1.81,66.98,4.86
40.00,0.00,223.69,15.50,-123.38,0.12,0.75,-0.50,66.99,4.88
40.00,1.00,255.31,-5.00,-58.19,-0.12,1.69,-0.31,66.99,4.88
40.00,2.00,276.75,-12.31,22.00,-0.06,-0.12,1.44,66.99,4.88
40.00,0.00,223.69,15.50,-123.38,0.75,0.69,-0.44,67.07,4.90
40.00,1.00,255.25,-5.06,-58.19,-0.50,2.00,-0.25,67.07,4.90
40.00,2.00,276.69,-12.31,22.00,-1.19,-0.19,1.44,67.07,4.90
40.00,0.00,223.62,15.50,-123.44,0.94,1.19,-0.50,67.15,4.92
40.00,1.00,255.25,-5.06,-58.19,-1.00,2.31,-0.31,67.15,4.92
40.00,2.00,276.69,-12.31,22.00,-0.94,-0.25,1.31,67.15,4.92
40.00,0.00,223.56,15.50,-123.44,0.94,1.75,-0.19,67.21,4.94
40.00,1.00,255.19,-5.06,-58.12,-0.88,2.44,-0.38,67.21,4.94
40.00,2.00,276.62,-12.38,22.00,-0.50,-0.31,1.31,67.21,4.94
40.00,0.00,223.56,15.56,-123.44,0.38,1.50,-0.19,67.26,4.96
40.00,1.00,255.19,-5.12,-58.12,-0.81,2.12,-0.12,67.26,4.96
40.00,2.00,276.62,-12.38,22.06,-0.94,-0.56,1.88,67.26,4.96
40.00,0.00,223.50,15.56,-123.38,-0.25,1.06,-0.38,67.30,4.98
40.00,1.00,255.19,-5.12,-58.12,-0.94,1.88,-0.12,67.30,4.98
40.00,2.00,276.56,-12.38,22.06,-1.06,-0.88,2.19,67.30,4.98
40.00,0.00,223.50,15.50,-123.38,-0.94,0.69,-0.81,67.29,5.00
40.00,1.00,255.12,-5.12,-58.06,-0.62,2.19,-0.25,67.29,5.00
40.00,2.00,276.50,-12.38,22.06,-0.75,0.00,1.94,67.29,5.00
40.00,0.00,223.56,15.50,-123.38,-1.44,-0.44,-1.31,67.23,5.02
40.00,1.00,255.12,-5.19,-58.06,-0.62,2.25,-0.31,67.23,5.02
40.00,2.00,276.50,-12.44,22.06,-0.12,1.00,1.44,67.23,5.02
40.00,0.00,223.69,15.44,-123.31,-1.38,-1.75,-1.31,67.23,5.04
40.00,1.00,255.06,-5.19,-58.06,-0.75,2.75,-0.19,67.23,5.04
40.00,2.00,276.44,-12.44,22.06,-1.31,1.31,1.50,67.23,5.04
40.00,0.00,223.81,15.44,-123.31,-1.19,-1.69,-1.12,67.24,5.06
40.00,1.00,255.06,-5.19,-58.06,-0.94,2.31,-0.06,67.24,5.06
40.00,2.00,276.44,-12.50,22.12,-1.50,0.81,1.62,67.24,5.06
40.00,0.00,223.81,15.38,-123.25,-0.69,-0.31,-1.19,67.24,5.08
40.00,1.00,255.06,-5.25,-58.00,-0.75,2.44,-0.44,67.24,5.08
40.00,2.00,276.44,-12.50,22.12,-0.69,1.19,1.06,67.24,5.08
40.00,0.00,223.88,15.38,-123.25,-0.69,-0.38,-1.50,67.27,5.10
40.00,1.00,255.00,-5.25,-58.00,-0.31,2.12,-0.25,67.27,5.10
40.00,2.00,276.38,-12.56,22.12,-1.25,1.25,1.25,67.27,5.10
40.00,0.00,223.94,15.31,-123.25,-0.94,-0.25,-1.44,67.28,5.12
40.00,1.00,255.00,-5.31,-58.00,-0.31,1.69,-0.31,67.28,5.12
40.00,2.00,276.38,-12.56,22.19,-1.12,0.69,1.31,67.28,5.12
40.00,0.00,223.94,15.31,-123.19,-1.06,0.56,-1.25,67.23,5.14
40.00,1.00,255.00,-5.31,-58.00,-0.56,1.62,-0.38,67.23,5.14
40.00,2.00,276.31,-12.62,22.19,-0.06,0.50,1.44,67.23,5.14
40.00,0.00,224.00,15.31,-123.19,-1.25,0.06,-1.94,67.18,5.16
40.00,1.00,255.00,-5.31,-58.00,-0.25,1.44,-0.31,67.18,5.16
40.00,2.00,276.31,-12.62,22.19,0.12,0.62,1.31,67.18,5.16
40.00,0.00,224.12,15.25,-123.19,-0.56,-2.19,-1.06,67.19,5.18
40.00,1.00,254.94,-5.38,-58.00,-0.81,1.75,-0.19,67.19,5.18
40.00,2.00,276.31,-12.62,22.19,-0.88,0.69,1.38,67.19,5.18
40.00,0.00,224.19,15.19,-123.19,-0.56,-1.88,-0.94,67.23,5.20
40.00,1.00,254.94,-5.38,-57.94,-0.94,1.62,-0.06,67.23,5.20
40.00,2.00,276.25,-12.69,22.19,-1.50,0.62,1.25,67.23,5.20
40.00,0.00,224.25,15.19,-123.19,-0.12,-1.31,-1.00,67.25,5.22
40.00,1.00,254.94,-5.38,-57.94,-0.31,1.12,-0.06,67.25,5.22
40.00,2.00,276.25,-12.69,22.25,-0.75,0.81,1.12,67.25,5.22
40.00,0.00,224.31,15.12,-123.19,0.19,-0.69,-1.88,67.27,5.24
40.00,1.00,254.88,-5.38,-57.94,0.00,1.12,-0.12,67.27,5.24
40.00,2.00,276.19,-12.69,22.25,-0.12,0.56,1.19,67.27,5.24
40.00,0.00,224.44,15.06,-123.19,0.62,-1.56,-2.38,67.30,5.26
40.00,1.00,254.88,-5.38,-57.94,0.25,0.69,0.00,67.30,5.26
40.00,2.00,276.19,-12.75,22.25,-0.12,0.50,1.38,67.30,5.26
40.00,0.00,224.56,15.00,-123.19,0.88,-2.75,-1.81,67.34,5.28
40.00,1.00,254.88,-5.38,-57.94,0.50,1.00,-0.06,67.34,5.28
40.00,2.00,276.19,-12.75,22.25,-0.06,0.44,1.38,67.34,5.28
40.00,0.00,224.62,14.94,-123.25,1.06,-3.00,-1.19,67.36,5.30
40.00,1.00,254.88,-5.44,-57.94,0.44,0.94,-0.31,67.36,5.30
40.00,2.00,276.12,-12.75,22.25,0.44,0.31,1.62,67.36,5.30
40.00,0.00,224.75,14.94,-123.25,1.44,-2.06,-0.69,67.41,5.32
40.00,1.00,254.88,-5.44,-57.94,0.31,1.19,0.00,67.41,5.32
40.00,2.00,276.12,-12.75,22.25,0.44,-0.06,1.25,67.41,5.32
40.00,0.00,224.75,14.94,-123.31,1.56,-1.25,-0.25,67.47,5.34
40.00,1.00,254.88,-5.44,-57.94,0.38,1.62,0.19,67.47,5.34
40.00,2.00,276.06,-12.75,22.25,0.06,-0.19,1.06,67.47,5.34
40.00,0.00,224.81,14.88,-123.31,1.00,-1.19,-0.12,67.54,5.36
40.00,1.00,254.81,-5.44,-57.94,0.38,1.75,0.50,67.54,5.36
40.00,2.00,276.06,-12.81,22.25,-0.62,-0.69,1.44,67.54,5.36
40.00,0.00,224.81,14.88,-123.31,0.19,-1.25,-0.62,67.58,5.38
40.00,1.00,254.81,-5.44,-57.88,0.06,0.38,0.69,67.58,5.38
40.00,2.00,276.00,-12.81,22.25,-0.94,-0.81,1.25,67.58,5.38
40.00,0.00,224.81,14.88,-123.31,-0.31,-0.06,-0.38,67.59,5.40
40.00,1.00,254.81,-5.44,-57.88,0.06,0.31,0.38,67.59,5.40
40.00,2.00,276.00,-12.81,22.25,-0.44,-0.12,0.62,67.59,5.40
40.00,0.00,224.81,14.88,-123.31,-0.56,-0.06,-0.50,67.59,5.42
40.00,1.00,254.81,-5.44,-57.88,-0.69,0.81,0.25,67.59,5.42
40.00,2.00,276.00,-12.81,22.25,-0.50,0.62,0.38,67.59,5.42
40.00,0.00,224.88,14.88,-123.31,-0.50,0.56,-0.19,67.60,5.44
40.00,1.00,254.81,-5.44,-57.88,-0.12,0.94,0.19,67.60,5.44
40.00,2.00,276.00,-12.81,22.25,-0.69,-0.25,0.56,67.60,5.44
40.00,0.00,224.81,14.88,-123.31,-1.12,1.69,-0.31,67.57,5.46
40.00,1.00,254.81,-5.44,-57.88,0.25,0.44,0.31,67.57,5.46
40.00,2.00,276.00,-12.81,22.25,-0.44,-0.31,0.50,67.57,5.46
40.00,0.00,224.81,14.88,-123.25,-0.94,1.19,-0.25,67.55,5.48
40.00,1.00,254.81,-5.44,-57.88,0.44,-0.06,0.38,67.55,5.48
40.00,2.00,276.00,-12.81,22.25,-0.44,0.38,0.19,67.55,5.48
40.00,0.00,224.75,14.94,-123.25,-0.12,0.56,0.06,67.54,5.50
40.00,1.00,254.81,-5.44,-57.88,0.69,-0.25,0.31,67.54,5.50
40.00,2.00,276.00,-12.81,22.25,-0.06,0.56,-0.25,67.54,5.50
40.00,0.00,224.75,14.94,-123.25,-0.19,0.56,-0.19,67.52,5.52
40.00,1.00,254.81,-5.44,-57.94,0.69,-0.38,0.00,67.52,5.52
40.00,2.00,276.00,-12.81,22.25,0.31,0.44,-0.56,67.52,5.52
