Iteration,IMUNo,OrientationX (deg),OrientationY,OrientationZ,GyroX (20rad/sec),GyroY,GyroZ,Elbow_Pos (rad),Time (sec)
55.00,0.00,269.94,3.12,-98.06,0.75,0.62,0.25,0.00,1.02
55.00,1.00,255.25,-1.06,-63.25,-0.44,0.00,-0.31,0.00,1.02
55.00,2.00,267.75,-14.31,23.38,0.75,-0.06,-0.25,0.00,1.02
55.00,0.00,269.94,3.12,-98.06,-0.19,1.00,-0.44,-0.01,1.04
55.00,1.00,255.25,-1.06,-63.25,-0.69,0.56,-0.12,-0.01,1.04
55.00,2.00,267.75,-14.31,23.38,0.06,-0.12,0.56,-0.01,1.04
55.00,0.00,269.94,3.12,-98.06,-0.50,0.62,-0.19,0.00,1.06
55.00,1.00,255.25,-1.06,-63.25,-0.44,0.38,0.25,0.00,1.06
55.00,2.00,267.69,-14.31,23.38,-0.75,-0.56,1.19,0.00,1.06
55.00,0.00,269.94,3.12,-98.06,-0.50,-0.56,0.00,0.02,1.08
55.00,1.00,255.25,-1.06,-63.25,-0.06,0.38,0.25,0.02,1.08
55.00,2.00,267.69,-14.38,23.38,-0.94,-0.06,1.06,0.02,1.08
55.00,0.00,269.94,3.12,-98.06,-0.50,-0.44,0.06,0.02,1.10
55.00,1.00,255.19,-1.06,-63.25,-0.19,0.81,0.25,0.02,1.10
55.00,2.00,267.69,-14.38,23.44,-0.44,0.06,0.50,0.02,1.10
55.00,0.00,269.94,3.12,-98.06,-0.50,0.06,-0.44,0.01,1.12
55.00,1.00,255.19,-1.06,-63.25,-0.44,0.19,0.25,0.01,1.12
55.00,2.00,267.69,-14.38,23.44,-0.31,-0.38,0.06,0.01,1.12
55.00,0.00,269.94,3.12,-98.06,-0.50,0.69,-0.94,-0.03,1.14
55.00,1.00,255.19,-1.06,-63.25,-0.19,-0.06,0.12,-0.03,1.14
55.00,2.00,267.69,-14.38,23.44,0.19,0.00,0.25,-0.03,1.14
55.00,0.00,269.94,3.12,-98.06,-0.56,0.25,-0.75,-0.05,1.16
55.00,1.00,255.19,-1.06,-63.25,-0.19,-0.12,0.00,-0.05,1.16
55.00,2.00,267.69,-14.38,23.44,-0.12,0.06,0.44,-0.05,1.16
55.00,0.00,269.94,3.06,-98.06,-0.62,-0.62,-0.62,-0.07,1.18
55.00,1.00,255.19,-1.06,-63.25,-0.56,-0.12,-0.44,-0.07,1.18
55.00,2.00,267.69,-14.38,23.44,-0.25,0.31,0.00,-0.07,1.18
55.00,0.00,269.94,3.06,-98.06,-0.44,-0.69,-0.44,-0.08,1.20
55.00,1.00,255.19,-1.06,-63.19,-0.44,-0.12,-0.44,-0.08,1.20
55.00,2.00,267.69,-14.38,23.44,-0.25,0.50,-0.31,-0.08,1.20
55.00,0.00,270.00,3.06,-98.06,-0.50,-0.75,-0.50,-0.09,1.22
55.00,1.00,255.19,-1.06,-63.19,-0.44,0.00,-0.62,-0.09,1.22
55.00,2.00,267.69,-14.38,23.44,-0.19,0.25,-0.19,-0.09,1.22
55.00,0.00,270.00,3.06,-98.06,-0.38,-0.19,-0.62,-0.09,1.24
55.00,1.00,255.25,-1.12,-63.19,-0.56,0.44,-0.38,-0.09,1.24
55.00,2.00,267.69,-14.38,23.44,-0.38,0.38,0.25,-0.09,1.24
55.00,0.00,270.00,3.06,-98.06,-0.94,-0.19,-0.50,-0.10,1.26
55.00,1.00,255.19,-1.12,-63.19,-0.56,0.69,0.00,-0.10,1.26
55.00,2.00,267.69,-14.38,23.44,-0.69,0.19,0.75,-0.10,1.26
55.00,0.00,270.00,3.06,-98.06,-1.06,-0.44,-0.25,-0.14,1.28
55.00,1.00,255.19,-1.12,-63.19,-0.50,0.31,-0.06,-0.14,1.28
55.00,2.00,267.69,-14.38,23.44,-0.38,0.38,0.56,-0.14,1.28
55.00,0.00,270.00,3.06,-98.00,-0.94,-0.25,-0.12,-0.17,1.30
55.00,1.00,255.19,-1.12,-63.19,-0.31,0.62,0.06,-0.17,1.30
55.00,2.00,267.69,-14.38,23.44,-0.31,0.25,0.31,-0.17,1.30
55.00,0.00,270.00,3.06,-98.00,-0.62,0.12,0.06,-0.18,1.32
55.00,1.00,255.19,-1.12,-63.19,-0.44,0.19,0.12,-0.18,1.32
55.00,2.00,267.69,-14.38,23.44,-0.50,0.06,0.31,-0.18,1.32
55.00,0.00,270.00,3.06,-98.00,-0.69,0.19,0.00,-0.20,1.34
55.00,1.00,255.19,-1.12,-63.19,-0.50,0.12,0.06,-0.20,1.34
55.00,2.00,267.69,-14.38,23.44,-0.25,-0.19,0.06,-0.20,1.34
55.00,0.00,270.00,3.06,-98.00,-0.62,0.56,-0.44,-0.23,1.36
55.00,1.00,255.19,-1.12,-63.19,-0.75,0.25,0.25,-0.23,1.36
55.00,2.00,267.69,-14.38,23.44,-0.12,0.25,-0.06,-0.23,1.36
55.00,0.00,270.00,3.06,-98.00,-0.56,-0.06,-0.38,-0.25,1.38
55.00,1.00,255.19,-1.12,-63.19,-0.75,0.50,0.31,-0.25,1.38
55.00,2.00,267.69,-14.38,23.44,-0.12,0.25,-0.06,-0.25,1.38
55.00,0.00,270.00,3.06,-98.00,-0.62,-0.69,-0.44,-0.27,1.40
55.00,1.00,255.19,-1.12,-63.19,-0.56,0.81,0.38,-0.27,1.40
55.00,2.00,267.69,-14.38,23.44,-0.12,0.19,-0.19,-0.27,1.40
55.00,0.00,270.00,3.06,-97.94,-0.69,-0.56,-0.62,-0.28,1.42
55.00,1.00,255.19,-1.12,-63.12,-0.94,-0.06,0.75,-0.28,1.42
55.00,2.00,267.69,-14.38,23.44,-0.56,-0.19,0.25,-0.28,1.42
55.00,0.00,270.00,3.06,-97.94,-0.75,0.94,-0.56,-0.25,1.44
55.00,1.00,255.19,-1.12,-63.12,-0.69,-0.44,0.31,-0.25,1.44
55.00,2.00,267.69,-14.38,23.44,-1.25,-0.25,0.44,-0.25,1.44
55.00,0.00,270.00,3.06,-97.94,-0.69,1.44,0.19,-0.23,1.46
55.00,1.00,255.19,-1.12,-63.12,-0.50,0.38,0.06,-0.23,1.46
55.00,2.00,267.62,-14.38,23.44,-1.19,0.50,0.69,-0.23,1.46
55.00,0.00,269.94,3.06,-97.94,-0.88,0.88,0.75,-0.24,1.48
55.00,1.00,255.19,-1.12,-63.12,-0.81,0.69,0.19,-0.24,1.48
55.00,2.00,267.62,-14.38,23.50,-0.69,-0.25,0.38,-0.24,1.48
55.00,0.00,269.94,3.06,-97.88,-0.69,0.25,0.50,-0.25,1.50
55.00,1.00,255.19,-1.12,-63.12,-1.19,0.31,0.50,-0.25,1.50
55.00,2.00,267.62,-14.38,23.50,-0.38,-0.81,0.00,-0.25,1.50
55.00,0.00,269.94,3.06,-97.88,-0.81,0.19,-0.44,-0.32,1.52
55.00,1.00,255.12,-1.12,-63.06,-0.44,0.44,0.75,-0.32,1.52
55.00,2.00,267.62,-14.31,23.50,0.56,-0.12,0.00,-0.32,1.52
55.00,0.00,269.94,3.06,-97.88,0.12,0.50,-0.62,-0.31,1.54
55.00,1.00,255.12,-1.06,-63.06,0.00,0.19,0.88,-0.31,1.54
55.00,2.00,267.62,-14.31,23.50,-0.19,0.00,1.00,-0.31,1.54
55.00,0.00,269.94,3.06,-97.88,1.12,0.62,0.00,-0.23,1.56
55.00,1.00,255.12,-1.06,-63.06,-0.06,-0.06,0.38,-0.23,1.56
55.00,2.00,267.62,-14.38,23.50,-0.38,-0.19,0.88,-0.23,1.56
55.00,0.00,269.94,3.06,-97.94,1.88,0.31,0.75,-0.15,1.58
55.00,1.00,255.12,-1.06,-63.06,-0.62,0.00,-0.44,-0.15,1.58
55.00,2.00,267.62,-14.38,23.50,0.31,-0.19,0.19,-0.15,1.58
55.00,0.00,269.88,3.12,-98.00,2.25,0.81,1.06,-0.10,1.60
55.00,1.00,255.12,-1.06,-63.06,-0.69,-0.06,-0.88,-0.10,1.60
55.00,2.00,267.62,-14.38,23.44,1.31,-0.56,-0.25,-0.10,1.60
55.00,0.00,269.81,3.12,-98.00,2.81,2.12,1.19,-0.02,1.62
55.00,1.00,255.19,-1.12,-63.06,-0.62,0.12,-1.06,-0.02,1.62
55.00,2.00,267.56,-14.31,23.44,1.19,-0.81,0.94,-0.02,1.62
55.00,0.00,269.69,3.19,-98.06,3.38,3.75,1.75,0.16,1.64
55.00,1.00,255.19,-1.12,-63.06,-0.44,0.12,-0.44,0.16,1.64
55.00,2.00,267.56,-14.31,23.44,-0.12,-1.06,2.00,0.16,1.64
55.00,0.00,269.56,3.25,-98.12,4.19,4.50,2.88,0.44,1.66
55.00,1.00,255.19,-1.12,-63.06,-0.31,0.31,-0.12,0.44,1.66
55.00,2.00,267.50,-14.31,23.44,-1.31,-1.56,2.94,0.44,1.66
55.00,0.00,269.38,3.31,-98.25,5.44,5.19,3.94,0.75,1.68
55.00,1.00,255.19,-1.12,-63.06,0.44,0.69,-0.12,0.75,1.68
55.00,2.00,267.44,-14.31,23.44,-0.81,-1.75,2.75,0.75,1.68
55.00,0.00,269.19,3.44,-98.38,6.88,5.31,4.44,1.09,1.70
55.00,1.00,255.19,-1.12,-63.06,0.56,0.62,-0.12,1.09,1.70
55.00,2.00,267.38,-14.31,23.38,0.19,-2.19,1.81,1.09,1.70
55.00,0.00,268.94,3.50,-98.50,8.44,4.94,4.44,1.46,1.72
55.00,1.00,255.19,-1.12,-63.06,0.88,-0.06,-0.06,1.46,1.72
55.00,2.00,267.38,-14.31,23.38,1.19,-1.44,1.38,1.46,1.72
55.00,0.00,268.75,3.62,-98.69,9.38,4.94,4.44,1.91,1.74
55.00,1.00,255.19,-1.12,-63.06,0.81,-0.44,-0.06,1.91,1.74
55.00,2.00,267.31,-14.31,23.38,0.62,-0.56,1.44,1.91,1.74
55.00,0.00,268.50,3.69,-98.88,10.69,4.94,4.88,2.44,1.76
55.00,1.00,255.19,-1.12,-63.12,0.88,-0.50,-0.06,2.44,1.76
55.00,2.00,267.31,-14.31,23.31,0.25,-0.56,1.94,2.44,1.76
55.00,0.00,268.31,3.81,-99.12,12.38,4.81,5.44,3.00,1.78
55.00,1.00,255.19,-1.12,-63.12,1.06,-0.31,-0.69,3.00,1.78
55.00,2.00,267.25,-14.31,23.31,1.38,-0.19,2.00,3.00,1.78
55.00,0.00,268.06,3.94,-99.38,14.19,3.25,7.12,3.63,1.80
55.00,1.00,255.19,-1.12,-63.12,1.12,-0.38,-0.62,3.63,1.80
55.00,2.00,267.19,-14.31,23.25,1.69,-0.81,1.75,3.63,1.80
55.00,0.00,267.81,4.12,-99.62,13.88,3.81,6.50,4.28,1.82
55.00,1.00,255.19,-1.12,-63.12,1.12,0.06,-0.69,4.28,1.82
55.00,2.00,267.19,-14.31,23.25,1.25,-0.94,2.06,4.28,1.82
55.00,0.00,267.56,4.25,-99.94,14.12,4.31,6.12,4.95,1.84
55.00,1.00,255.19,-1.12,-63.19,0.25,-0.12,-0.44,4.95,1.84
55.00,2.00,267.12,-14.31,23.19,0.81,-1.00,2.12,4.95,1.84
55.00,0.00,267.31,4.38,-100.19,15.19,4.75,6.75,5.67,1.86
55.00,1.00,255.19,-1.19,-63.19,1.44,0.31,-0.56,5.67,1.86
55.00,2.00,267.06,-14.31,23.19,1.12,-0.75,2.56,5.67,1.86
55.00,0.00,267.00,4.56,-100.50,16.62,5.06,8.06,6.50,1.88
55.00,1.00,255.19,-1.19,-63.19,0.94,0.25,-0.75,6.50,1.88
55.00,2.00,267.00,-14.31,23.12,0.19,-0.69,3.25,6.50,1.88
55.00,0.00,266.62,4.75,-100.88,18.62,4.94,10.69,7.50,1.90
55.00,1.00,255.25,-1.19,-63.25,1.06,-0.12,-0.94,7.50,1.90
55.00,2.00,266.94,-14.31,23.12,-0.88,-1.31,2.81,7.50,1.90
55.00,0.00,266.25,5.00,-101.25,21.19,5.19,12.94,8.55,1.92
55.00,1.00,255.25,-1.19,-63.25,0.94,-0.62,-1.44,8.55,1.92
55.00,2.00,266.88,-14.31,23.12,0.44,-1.75,2.50,8.55,1.92
55.00,0.00,265.75,5.31,-101.69,22.81,7.19,14.44,9.56,1.94
55.00,1.00,255.31,-1.19,-63.25,1.19,-0.88,-1.88,9.56,1.94
55.00,2.00,266.88,-14.31,23.12,3.00,-2.62,2.31,9.56,1.94
55.00,0.00,265.19,5.62,-102.12,23.25,9.31,14.19,10.57,1.96
55.00,1.00,255.38,-1.25,-63.31,1.81,-0.75,-2.50,10.57,1.96
55.00,2.00,266.81,-14.25,23.00,3.44,-3.00,2.56,10.57,1.96
55.00,0.00,264.62,6.00,-102.62,24.75,9.69,15.19,11.72,1.98
55.00,1.00,255.38,-1.31,-63.31,2.12,-0.62,-2.31,11.72,1.98
55.00,2.00,266.75,-14.25,22.94,2.12,-3.12,3.44,11.72,1.98
55.00,0.00,264.00,6.31,-103.12,26.06,9.62,16.00,13.00,2.00
55.00,1.00,255.44,-1.31,-63.38,2.12,-0.88,-1.06,13.00,2.00
55.00,2.00,266.62,-14.19,22.88,0.88,-4.00,4.25,13.00,2.00
55.00,0.00,263.44,6.62,-103.62,27.00,8.62,16.06,14.34,2.02
55.00,1.00,255.44,-1.31,-63.44,1.38,-1.31,-0.19,14.34,2.02
55.00,2.00,266.56,-14.19,22.88,0.69,-4.25,4.06,14.34,2.02
55.00,0.00,262.81,7.00,-104.19,28.25,6.81,16.75,15.75,2.04
55.00,1.00,255.50,-1.31,-63.44,1.25,-1.38,-0.69,15.75,2.04
55.00,2.00,266.44,-14.12,22.81,0.56,-2.75,3.81,15.75,2.04
55.00,0.00,262.31,7.31,-104.69,26.94,5.00,15.19,17.12,2.06
55.00,1.00,255.50,-1.31,-63.44,1.19,-0.12,-0.88,17.12,2.06
55.00,2.00,266.38,-14.12,22.81,-0.19,-2.25,3.69,17.12,2.06
55.00,0.00,261.94,7.50,-105.19,25.38,3.38,12.94,18.40,2.08
55.00,1.00,255.50,-1.31,-63.50,0.81,0.88,-0.38,18.40,2.08
55.00,2.00,266.31,-14.12,22.81,0.25,-2.88,3.75,18.40,2.08
55.00,0.00,261.62,7.75,-105.62,24.88,1.75,11.88,19.57,2.10
55.00,1.00,255.50,-1.31,-63.50,0.62,0.88,0.00,19.57,2.10
55.00,2.00,266.19,-14.06,22.75,1.88,-2.44,3.81,19.57,2.10
55.00,0.00,261.38,7.88,-106.06,23.81,0.25,11.06,20.68,2.12
55.00,1.00,255.50,-1.31,-63.50,1.12,1.00,0.19,20.68,2.12
55.00,2.00,266.12,-14.06,22.69,2.06,-2.25,4.19,20.68,2.12
55.00,0.00,261.19,8.00,-106.44,22.75,-1.44,9.88,21.83,2.14
55.00,1.00,255.44,-1.31,-63.50,1.19,1.38,0.81,21.83,2.14
55.00,2.00,266.00,-14.06,22.62,0.12,-1.56,5.12,21.83,2.14
55.00,0.00,261.12,8.06,-106.81,20.50,-2.25,7.38,22.97,2.16
55.00,1.00,255.44,-1.31,-63.56,1.19,1.88,1.31,22.97,2.16
55.00,2.00,265.94,-14.12,22.62,-2.00,-0.81,5.19,22.97,2.16
55.00,0.00,261.06,8.12,-107.12,18.56,-3.44,5.31,24.03,2.18
55.00,1.00,255.38,-1.31,-63.56,0.25,1.88,1.25,24.03,2.18
55.00,2.00,265.81,-14.12,22.62,-2.12,-1.06,4.81,24.03,2.18
55.00,0.00,261.12,8.12,-107.44,17.69,-5.50,4.38,24.99,2.20
55.00,1.00,255.31,-1.31,-63.56,-0.25,1.56,0.94,24.99,2.20
55.00,2.00,265.75,-14.12,22.69,-1.25,-0.62,4.00,24.99,2.20
55.00,0.00,261.19,8.12,-107.75,17.00,-6.88,3.81,25.89,2.22
55.00,1.00,255.31,-1.31,-63.56,-0.50,1.31,0.25,25.89,2.22
55.00,2.00,265.62,-14.19,22.69,-0.75,-0.06,3.12,25.89,2.22
55.00,0.00,261.25,8.19,-108.12,15.62,-6.38,3.81,26.65,2.24
55.00,1.00,255.31,-1.31,-63.56,-0.44,1.00,0.19,26.65,2.24
55.00,2.00,265.62,-14.19,22.62,0.81,-0.12,2.44,26.65,2.24
55.00,0.00,261.25,8.19,-108.38,13.75,-4.44,3.44,27.30,2.26
55.00,1.00,255.25,-1.31,-63.56,-0.38,0.94,-0.12,27.30,2.26
55.00,2.00,265.56,-14.19,22.62,0.94,-0.38,2.44,27.30,2.26
55.00,0.00,261.19,8.25,-108.62,12.38,-2.69,3.06,27.88,2.28
55.00,1.00,255.25,-1.38,-63.56,-0.62,0.50,-0.69,27.88,2.28
55.00,2.00,265.50,-14.25,22.62,1.00,-0.56,2.44,27.88,2.28
55.00,0.00,261.12,8.31,-108.88,11.88,-1.25,3.88,28.46,2.30
55.00,1.00,255.31,-1.38,-63.56,-0.44,0.81,-0.81,28.46,2.30
55.00,2.00,265.44,-14.25,22.56,0.31,-1.12,2.50,28.46,2.30
55.00,0.00,261.00,8.38,-109.12,11.44,-0.31,4.31,29.06,2.32
55.00,1.00,255.31,-1.38,-63.56,-0.81,0.25,-0.94,29.06,2.32
55.00,2.00,265.38,-14.25,22.56,-0.19,-0.31,2.75,29.06,2.32
55.00,0.00,260.81,8.50,-109.31,12.25,-0.12,6.62,29.77,2.34
55.00,1.00,255.31,-1.38,-63.56,-0.56,-0.38,-1.06,29.77,2.34
55.00,2.00,265.38,-14.31,22.62,-1.75,-0.38,2.56,29.77,2.34
55.00,0.00,260.56,8.69,-109.56,13.12,1.44,8.06,30.49,2.36
55.00,1.00,255.38,-1.44,-63.56,-0.50,-0.38,-1.25,30.49,2.36
55.00,2.00,265.31,-14.31,22.62,-1.12,-0.75,2.19,30.49,2.36
55.00,0.00,260.25,8.88,-109.88,13.25,2.75,8.56,31.18,2.38
55.00,1.00,255.38,-1.44,-63.56,-0.06,-0.81,-1.75,31.18,2.38
55.00,2.00,265.25,-14.31,22.62,-0.19,-1.81,2.00,31.18,2.38
55.00,0.00,259.94,9.06,-110.12,14.00,3.25,8.44,31.88,2.40
55.00,1.00,255.44,-1.50,-63.56,-0.12,-0.25,-1.81,31.88,2.40
55.00,2.00,265.19,-14.25,22.62,0.19,-2.12,2.00,31.88,2.40
55.00,0.00,259.56,9.19,-110.38,14.38,3.31,8.69,32.64,2.42
55.00,1.00,255.44,-1.50,-63.56,-0.12,0.00,-1.31,32.64,2.42
55.00,2.00,265.19,-14.25,22.62,-0.69,-2.50,1.81,32.64,2.42
55.00,0.00,259.25,9.38,-110.69,14.62,2.62,8.38,33.45,2.44
55.00,1.00,255.50,-1.50,-63.56,-0.25,-0.19,-0.69,33.45,2.44
55.00,2.00,265.12,-14.19,22.62,-1.12,-3.12,2.06,33.45,2.44
55.00,0.00,259.12,9.50,-110.81,15.50,1.88,8.88,34.29,2.46
55.00,1.00,255.50,-1.50,-63.56,0.06,-0.75,-0.12,34.29,2.46
55.00,2.00,265.06,-14.19,22.62,-1.12,-3.19,2.38,34.29,2.46
55.00,0.00,258.69,9.69,-111.25,14.88,1.62,7.81,35.09,2.48
55.00,1.00,255.50,-1.50,-63.50,0.12,-0.62,-0.12,35.09,2.48
55.00,2.00,265.00,-14.12,22.62,-0.81,-3.38,2.38,35.09,2.48
55.00,0.00,258.56,9.81,-111.44,14.00,1.31,6.19,35.83,2.50
55.00,1.00,255.50,-1.50,-63.50,0.19,-0.19,-0.06,35.83,2.50
55.00,2.00,264.94,-14.06,22.62,-0.50,-2.88,2.44,35.83,2.50
55.00,0.00,258.25,9.94,-111.81,14.38,0.81,5.44,36.60,2.52
55.00,1.00,255.50,-1.50,-63.50,0.25,-0.19,0.31,36.60,2.52
55.00,2.00,264.88,-14.06,22.62,-0.88,-2.50,2.31,36.60,2.52
55.00,0.00,258.06,10.06,-112.12,16.00,-0.19,6.44,37.46,2.54
55.00,1.00,255.50,-1.50,-63.50,-0.25,0.44,0.44,37.46,2.54
55.00,2.00,264.81,-14.06,22.62,-0.81,-2.38,2.44,37.46,2.54
55.00,0.00,257.94,10.12,-112.31,15.06,0.19,5.75,38.26,2.56
55.00,1.00,255.50,-1.50,-63.50,-0.38,0.31,0.62,38.26,2.56
55.00,2.00,264.75,-14.00,22.62,-0.69,-3.00,2.69,38.26,2.56
55.00,0.00,257.75,10.19,-112.56,13.44,1.56,4.56,38.98,2.58
55.00,1.00,255.50,-1.50,-63.50,-0.06,0.44,0.38,38.98,2.58
55.00,2.00,264.69,-14.00,22.62,-0.75,-3.31,2.94,38.98,2.58
55.00,0.00,257.56,10.31,-112.81,13.00,2.50,4.19,39.69,2.60
55.00,1.00,255.44,-1.50,-63.56,-0.44,1.06,0.62,39.69,2.60
55.00,2.00,264.62,-13.94,22.56,-0.88,-2.94,3.44,39.69,2.60
55.00,0.00,257.31,10.38,-113.06,13.31,3.06,4.31,40.42,2.62
55.00,1.00,255.44,-1.50,-63.50,-0.62,0.44,0.88,40.42,2.62
55.00,2.00,264.50,-13.94,22.62,-1.12,-2.81,3.81,40.42,2.62
55.00,0.00,257.06,10.50,-113.31,12.56,4.00,4.44,41.16,2.64
55.00,1.00,255.44,-1.50,-63.50,0.12,0.31,0.75,41.16,2.64
55.00,2.00,264.44,-13.88,22.62,-2.06,-2.38,3.81,41.16,2.64
55.00,0.00,256.81,10.62,-113.50,11.56,4.31,3.69,41.85,2.66
55.00,1.00,255.44,-1.50,-63.50,-0.50,1.06,0.19,41.85,2.66
55.00,2.00,264.31,-13.88,22.62,-1.94,-2.38,3.38,41.85,2.66
55.00,0.00,256.62,10.69,-113.69,9.62,4.38,1.62,42.39,2.68
55.00,1.00,255.44,-1.50,-63.50,-1.00,1.62,0.56,42.39,2.68
55.00,2.00,264.25,-13.88,22.62,-1.00,-2.94,3.12,42.39,2.68
55.00,0.00,256.44,10.69,-113.88,9.69,3.31,1.06,42.91,2.70
55.00,1.00,255.38,-1.50,-63.50,-1.19,0.88,0.75,42.91,2.70
55.00,2.00,264.19,-13.81,22.62,-0.50,-2.62,2.75,42.91,2.70
55.00,0.00,256.38,10.69,-114.00,10.19,1.38,1.75,43.51,2.72
55.00,1.00,255.38,-1.50,-63.50,-0.88,0.50,0.75,43.51,2.72
55.00,2.00,264.12,-13.81,22.62,-1.62,-2.31,2.88,43.51,2.72
55.00,0.00,256.25,10.69,-114.19,8.00,1.50,-0.31,43.98,2.74
55.00,1.00,255.38,-1.50,-63.50,-0.56,0.56,0.69,43.98,2.74
55.00,2.00,264.06,-13.81,22.62,-1.31,-2.56,3.19,43.98,2.74
55.00,0.00,256.19,10.69,-114.25,6.81,2.00,-1.38,44.36,2.76
55.00,1.00,255.38,-1.50,-63.50,-0.62,0.12,0.50,44.36,2.76
55.00,2.00,264.00,-13.75,22.62,-0.50,-2.06,2.69,44.36,2.76
55.00,0.00,256.19,10.62,-114.38,7.19,0.00,-2.56,44.73,2.78
55.00,1.00,255.38,-1.50,-63.50,-0.94,0.50,0.12,44.73,2.78
55.00,2.00,263.94,-13.75,22.62,-0.19,-1.44,2.19,44.73,2.78
55.00,0.00,256.19,10.62,-114.50,7.94,-0.88,-1.00,45.16,2.80
55.00,1.00,255.38,-1.50,-63.44,-1.31,0.62,-0.19,45.16,2.80
55.00,2.00,263.88,-13.75,22.62,-0.44,-1.88,2.12,45.16,2.80
55.00,0.00,256.19,10.62,-114.62,7.38,0.62,-0.12,45.56,2.82
55.00,1.00,255.38,-1.50,-63.44,-1.31,0.56,-0.31,45.56,2.82
55.00,2.00,263.81,-13.75,22.62,-0.62,-2.12,2.75,45.56,2.82
55.00,0.00,256.12,10.62,-114.81,7.12,1.19,0.31,45.94,2.84
55.00,1.00,255.38,-1.50,-63.44,-0.94,0.38,0.00,45.94,2.84
55.00,2.00,263.75,-13.75,22.62,-0.19,-1.44,2.75,45.94,2.84
55.00,0.00,256.00,10.62,-114.94,7.06,1.25,0.50,46.34,2.86
55.00,1.00,255.38,-1.50,-63.38,-0.69,0.25,0.25,46.34,2.86
55.00,2.00,263.69,-13.75,22.62,-0.81,-1.56,1.94,46.34,2.86
55.00,0.00,255.88,10.69,-115.06,6.31,1.38,0.62,46.68,2.88
55.00,1.00,255.38,-1.50,-63.38,-0.56,0.06,0.12,46.68,2.88
55.00,2.00,263.69,-13.69,22.62,-0.38,-1.88,1.88,46.68,2.90
55.00,0.00,255.81,10.69,-115.19,6.75,1.06,0.50,47.01,2.90
55.00,1.00,255.38,-1.56,-63.38,-0.38,0.31,-0.06,47.01,2.90
55.00,2.00,263.62,-13.69,22.62,0.12,-2.12,1.44,47.01,2.90
55.00,0.00,255.75,10.69,-115.31,8.31,-0.56,1.94,47.45,2.92
55.00,1.00,255.38,-1.56,-63.38,-0.31,-0.06,0.12,47.45,2.92
55.00,2.00,263.62,-13.69,22.62,-0.19,-2.56,1.25,47.45,2.94
55.00,0.00,255.62,10.75,-115.50,8.44,0.06,2.81,47.88,2.94
55.00,1.00,255.38,-1.56,-63.38,0.19,-0.44,0.25,47.88,2.94
55.00,2.00,263.56,-13.62,22.62,-0.19,-3.44,0.94,47.88,2.94
55.00,0.00,255.50,10.81,-115.62,8.12,1.06,2.81,48.27,2.96
55.00,1.00,255.38,-1.56,-63.38,0.19,-0.56,0.12,48.27,2.96
55.00,2.00,263.56,-13.56,22.56,0.62,-3.25,1.00,48.27,2.96
55.00,0.00,255.31,10.88,-115.81,7.31,2.88,2.62,48.62,2.98
55.00,1.00,255.38,-1.56,-63.38,0.06,-0.44,-0.12,48.62,2.98
55.00,2.00,263.50,-13.50,22.56,0.25,-2.88,0.44,48.62,3.00
55.00,0.00,255.12,11.00,-115.94,7.88,2.94,3.25,49.04,3.00
55.00,1.00,255.38,-1.56,-63.38,-0.38,-0.25,0.19,49.04,3.00
55.00,2.00,263.50,-13.44,22.56,-0.31,-3.06,0.75,49.04,3.00
55.00,0.00,254.94,11.06,-116.12,9.12,1.81,5.06,49.50,3.02
55.00,1.00,255.38,-1.56,-63.38,0.00,-0.25,0.19,49.50,3.02
55.00,2.00,263.44,-13.38,22.56,0.12,-3.75,1.12,49.50,3.04
55.00,0.00,254.69,11.19,-116.31,9.75,1.69,6.62,49.98,3.04
55.00,1.00,255.38,-1.56,-63.38,0.38,0.06,-0.06,49.98,3.04
55.00,2.00,263.44,-13.31,22.56,0.19,-3.81,1.44,49.98,3.04
55.00,0.00,254.44,11.31,-116.50,9.62,1.31,6.56,50.47,3.06
55.00,1.00,255.38,-1.56,-63.38,0.12,-0.25,0.19,50.47,3.06
55.00,2.00,263.38,-13.25,22.56,0.00,-4.00,1.25,50.47,3.06
55.00,0.00,254.25,11.44,-116.69,9.75,0.88,6.12,50.95,3.08
55.00,1.00,255.38,-1.56,-63.38,0.31,-0.06,0.31,50.95,3.08
55.00,2.00,263.38,-13.25,22.50,0.38,-3.75,0.94,50.95,3.10
55.00,0.00,254.00,11.56,-116.88,9.50,1.00,5.81,51.37,3.10
55.00,1.00,255.38,-1.56,-63.38,0.31,-0.25,0.31,51.37,3.10
55.00,2.00,263.31,-13.12,22.50,1.19,-4.75,0.94,51.37,3.10
55.00,0.00,253.81,11.62,-117.06,9.06,0.50,4.81,51.77,3.12
55.00,1.00,255.38,-1.56,-63.38,0.19,-0.44,0.19,51.77,3.12
55.00,2.00,263.25,-13.06,22.44,1.25,-4.50,1.06,51.77,3.14
55.00,0.00,253.69,11.69,-117.25,8.50,-0.06,4.12,52.19,3.14
55.00,1.00,255.38,-1.56,-63.44,0.25,-0.69,0.44,52.19,3.14
55.00,2.00,263.25,-13.00,22.44,0.25,-3.94,1.44,52.19,3.14
55.00,0.00,253.56,11.81,-117.44,9.12,-0.44,4.19,52.66,3.16
55.00,1.00,255.38,-1.56,-63.44,0.00,-0.81,0.56,52.66,3.16
55.00,2.00,263.19,-12.94,22.44,-0.19,-4.06,1.44,52.66,3.16
55.00,0.00,253.44,11.88,-117.62,10.44,-1.06,5.31,53.11,3.18
55.00,1.00,255.44,-1.56,-63.44,0.81,-0.19,0.19,53.11,3.18
55.00,2.00,263.19,-12.88,22.38,1.75,-3.62,0.69,53.11,3.20
55.00,0.00,253.25,11.94,-117.88,11.75,-0.62,6.19,53.57,3.20
55.00,1.00,255.44,-1.56,-63.44,0.62,0.50,-0.25,53.57,3.20
55.00,2.00,263.12,-12.81,22.31,2.56,-3.44,0.69,53.57,3.20
55.00,0.00,253.00,12.06,-118.12,11.62,0.62,6.69,54.15,3.22
55.00,1.00,255.38,-1.56,-63.44,0.38,0.94,0.62,54.15,3.22
55.00,2.00,263.12,-12.75,22.31,0.38,-4.19,1.81,54.15,3.24
55.00,0.00,252.75,12.19,-118.31,11.50,1.88,6.44,54.78,3.24
55.00,1.00,255.38,-1.56,-63.50,0.00,-0.12,0.56,54.78,3.24
55.00,2.00,263.06,-12.69,22.31,-0.88,-3.38,1.88,54.78,3.24
55.00,0.00,252.38,12.38,-118.56,12.19,3.44,6.81,55.41,3.26
55.00,1.00,255.38,-1.56,-63.50,-0.12,0.31,-0.31,55.41,3.26
55.00,2.00,263.00,-12.69,22.31,-0.19,-3.31,1.75,55.41,3.26
55.00,0.00,252.06,12.50,-118.81,10.94,4.81,5.38,55.93,3.28
55.00,1.00,255.38,-1.56,-63.50,-0.25,1.19,-0.31,55.93,3.28
55.00,2.00,262.94,-12.62,22.25,0.62,-3.50,2.00,55.93,3.28
55.00,0.00,251.81,12.62,-118.94,8.31,4.19,2.81,56.33,3.30
55.00,1.00,255.38,-1.62,-63.50,-0.25,1.94,0.38,56.33,3.30
55.00,2.00,262.88,-12.56,22.25,0.38,-4.56,3.00,56.33,3.30
55.00,0.00,251.56,12.69,-119.12,9.38,2.19,2.94,56.77,3.32
55.00,1.00,255.38,-1.62,-63.50,-0.44,1.12,0.56,56.77,3.32
55.00,2.00,262.81,-12.50,22.25,0.88,-4.19,3.25,56.77,3.32
55.00,0.00,251.38,12.75,-119.31,11.06,2.00,5.06,57.26,3.34
55.00,1.00,255.31,-1.62,-63.50,0.44,1.56,0.75,57.26,3.34
55.00,2.00,262.75,-12.44,22.19,1.44,-4.94,3.69,57.26,3.34
55.00,0.00,251.12,12.88,-119.50,9.00,3.44,3.25,57.68,3.36
55.00,1.00,255.31,-1.62,-63.50,-0.31,1.25,0.75,57.68,3.36
55.00,2.00,262.62,-12.38,22.12,0.56,-4.94,4.19,57.68,3.36
55.00,0.00,250.94,12.88,-119.69,8.62,2.19,1.62,58.10,3.38
55.00,1.00,255.25,-1.62,-63.50,-0.69,1.06,0.62,58.10,3.38
55.00,2.00,262.56,-12.38,22.12,0.38,-3.12,3.56,58.10,3.38
55.00,0.00,250.75,12.94,-119.88,11.00,1.94,2.56,58.63,3.40
55.00,1.00,255.25,-1.62,-63.50,-0.50,1.38,0.62,58.63,3.40
55.00,2.00,262.44,-12.31,22.12,0.62,-3.06,2.94,58.63,3.40
55.00,0.00,250.50,13.06,-120.12,12.75,1.56,3.94,59.30,3.42
55.00,1.00,255.25,-1.62,-63.50,-0.62,1.56,0.56,59.30,3.42
55.00,2.00,262.38,-12.31,22.06,-0.44,-3.19,3.69,59.30,3.42
55.00,0.00,250.25,13.12,-120.38,13.19,1.69,4.25,60.02,3.44
55.00,1.00,255.19,-1.69,-63.50,-1.06,1.25,0.50,60.02,3.44
55.00,2.00,262.31,-12.25,22.06,-0.88,-2.88,3.69,60.02,3.44
55.00,0.00,249.94,13.25,-120.62,12.00,3.81,4.25,60.65,3.46
55.00,1.00,255.19,-1.69,-63.50,-0.44,0.56,0.50,60.65,3.46
55.00,2.00,262.25,-12.25,22.06,-0.44,-2.62,3.31,60.65,3.46
55.00,0.00,249.69,13.31,-120.81,9.69,3.38,2.00,61.14,3.48
55.00,1.00,255.19,-1.69,-63.50,-0.44,0.31,0.12,61.14,3.48
55.00,2.00,262.12,-12.19,22.06,0.06,-3.31,3.38,61.14,3.48
55.00,0.00,249.56,13.38,-121.00,9.00,1.06,1.19,61.56,3.50
55.00,1.00,255.19,-1.69,-63.50,-0.50,0.94,0.25,61.56,3.50
55.00,2.00,262.06,-12.19,22.00,0.81,-3.62,3.38,61.56,3.50
55.00,0.00,249.50,13.38,-121.19,9.38,-1.81,1.56,61.98,3.52
55.00,1.00,255.19,-1.69,-63.44,-0.75,0.75,0.44,61.98,3.52
55.00,2.00,262.00,-12.12,22.00,1.12,-3.81,3.44,61.98,3.52
55.00,0.00,249.44,13.38,-121.38,11.50,-4.12,4.06,62.51,3.54
55.00,1.00,255.19,-1.69,-63.50,-0.31,0.94,0.56,62.51,3.54
55.00,2.00,261.94,-12.06,21.94,1.06,-3.81,3.31,62.51,3.54
55.00,0.00,249.31,13.44,-121.62,11.75,-3.06,5.56,63.06,3.56
55.00,1.00,255.19,-1.69,-63.50,0.25,1.31,0.31,63.06,3.56
55.00,2.00,261.88,-12.06,21.94,0.81,-4.06,2.94,63.06,3.56
55.00,0.00,249.12,13.50,-121.88,11.44,-1.00,5.94,63.59,3.58
55.00,1.00,255.12,-1.75,-63.50,-0.50,1.50,0.19,63.59,3.58
55.00,2.00,261.81,-12.00,21.88,1.00,-3.00,2.31,63.59,3.58
55.00,0.00,248.88,13.62,-122.06,11.12,0.75,6.44,64.15,3.60
55.00,1.00,255.12,-1.75,-63.50,-0.56,1.31,0.25,64.15,3.60
55.00,2.00,261.75,-11.94,21.88,0.19,-2.62,2.50,64.15,3.60
55.00,0.00,248.62,13.75,-122.31,9.88,1.50,4.56,64.61,3.62
55.00,1.00,255.12,-1.75,-63.50,-0.19,1.25,0.00,64.61,3.62
55.00,2.00,261.69,-11.94,21.81,0.81,-3.56,2.19,64.61,3.62
55.00,0.00,248.44,13.81,-122.50,10.25,-0.75,4.56,65.08,3.64
55.00,1.00,255.12,-1.75,-63.50,0.12,1.88,-0.06,65.08,3.64
55.00,2.00,261.62,-11.88,21.81,1.06,-3.50,1.94,65.08,3.64
55.00,0.00,248.31,13.88,-122.69,10.31,-0.81,5.75,65.55,3.66
55.00,1.00,255.06,-1.81,-63.50,-0.62,1.62,0.31,65.55,3.66
55.00,2.00,261.56,-11.81,21.75,1.00,-3.69,2.25,65.55,3.66
55.00,0.00,248.12,14.00,-122.88,8.56,-0.12,5.44,65.91,3.68
55.00,1.00,255.06,-1.81,-63.50,-0.12,1.06,0.88,65.91,3.68
55.00,2.00,261.50,-11.75,21.75,1.56,-4.75,2.25,65.91,3.68
55.00,0.00,247.94,14.06,-123.06,8.12,0.88,5.38,66.22,3.70
55.00,1.00,255.06,-1.81,-63.50,-0.19,0.69,0.94,66.22,3.70
55.00,2.00,261.44,-11.69,21.69,2.00,-5.06,2.38,66.22,3.70
55.00,0.00,247.62,14.19,-123.19,8.06,2.75,5.62,66.52,3.72
55.00,1.00,255.00,-1.75,-63.44,-0.56,0.88,1.31,66.52,3.72
55.00,2.00,261.38,-11.62,21.62,2.19,-4.94,2.19,66.52,3.72
55.00,0.00,247.38,14.31,-123.31,6.62,4.12,4.25,66.78,3.74
55.00,1.00,254.94,-1.75,-63.44,-0.06,1.06,1.38,66.78,3.74
55.00,2.00,261.31,-11.50,21.56,1.50,-5.38,2.31,66.78,3.74
55.00,0.00,247.12,14.38,-123.44,6.19,3.19,2.56,67.02,3.76
55.00,1.00,254.94,-1.75,-63.50,-0.50,0.94,1.38,67.02,3.76
55.00,2.00,261.25,-11.44,21.50,1.44,-5.12,2.19,67.02,3.76
55.00,0.00,246.94,14.44,-123.56,8.38,0.94,4.19,67.39,3.78
55.00,1.00,254.88,-1.75,-63.44,-0.88,2.00,1.00,67.39,3.78
55.00,2.00,261.25,-11.38,21.50,1.12,-4.06,1.75,67.39,3.78
55.00,0.00,246.69,14.56,-123.75,8.44,1.62,5.56,67.74,3.80
55.00,1.00,254.88,-1.75,-63.44,-0.81,1.31,1.31,67.74,3.80
55.00,2.00,261.19,-11.31,21.44,1.56,-3.56,1.75,67.74,3.80
55.00,0.00,246.44,14.69,-123.88,7.19,3.94,4.75,68.03,3.82
55.00,1.00,254.81,-1.75,-63.44,-1.00,0.25,1.06,68.03,3.82
55.00,2.00,261.12,-11.25,21.44,1.50,-4.50,2.38,68.03,3.82
55.00,0.00,246.12,14.75,-123.94,4.38,5.44,2.19,68.19,3.84
55.00,1.00,254.81,-1.69,-63.44,-1.25,0.50,0.88,68.19,3.84
55.00,2.00,261.06,-11.19,21.38,1.19,-3.81,1.94,68.19,3.84
55.00,0.00,245.94,14.81,-124.00,4.75,4.12,1.12,68.49,3.86
55.00,1.00,254.75,-1.69,-63.38,-1.50,0.94,0.38,68.49,3.86
55.00,2.00,261.00,-11.19,21.38,-1.12,-3.25,2.06,68.49,3.86
55.00,0.00,245.69,14.88,-124.12,6.75,3.00,2.94,68.81,3.88
55.00,1.00,254.75,-1.69,-63.38,-1.19,1.44,0.75,68.81,3.88
55.00,2.00,261.00,-11.12,21.38,0.38,-4.00,1.88,68.81,3.88
55.00,0.00,245.44,15.00,-124.25,7.06,3.75,4.69,69.12,3.90
55.00,1.00,254.75,-1.69,-63.31,-0.44,0.31,1.00,69.12,3.90
55.00,2.00,260.94,-11.06,21.31,1.12,-4.69,1.31,69.12,3.90
55.00,0.00,245.12,15.12,-124.38,3.56,5.88,2.88,69.24,3.92
55.00,1.00,254.69,-1.69,-63.31,-0.62,-0.25,1.44,69.24,3.92
55.00,2.00,260.88,-10.94,21.31,1.12,-4.75,1.06,69.24,3.92
55.00,0.00,244.88,15.19,-124.38,3.12,5.75,0.38,69.38,3.94
55.00,1.00,254.69,-1.62,-63.31,-0.25,-0.31,1.44,69.38,3.94
55.00,2.00,260.88,-10.88,21.25,0.44,-3.94,1.62,69.38,3.94
55.00,0.00,244.62,15.25,-124.44,4.94,4.81,0.81,69.62,3.96
55.00,1.00,254.62,-1.62,-63.31,-0.75,0.19,1.12,69.62,3.96
55.00,2.00,260.81,-10.81,21.25,0.06,-3.50,1.38,69.62,3.96
55.00,0.00,244.44,15.31,-124.56,5.56,4.31,1.12,69.94,3.98
55.00,1.00,254.62,-1.62,-63.31,-1.38,-0.19,0.75,69.94,3.98
55.00,2.00,260.75,-10.75,21.25,-0.69,-3.50,1.25,69.94,3.98
55.00,0.00,244.19,15.38,-124.62,5.69,3.62,1.06,70.27,4.00
55.00,1.00,254.62,-1.56,-63.25,-1.25,0.31,1.00,70.27,4.00
55.00,2.00,260.75,-10.75,21.25,-0.69,-3.31,1.31,70.27,4.00
55.00,0.00,244.00,15.44,-124.69,4.94,4.06,1.75,70.50,4.02
55.00,1.00,254.56,-1.56,-63.25,-1.38,-0.38,0.94,70.50,4.02
55.00,2.00,260.69,-10.69,21.25,0.25,-2.81,0.94,70.50,4.02
55.00,0.00,243.75,15.50,-124.81,4.81,3.94,1.94,70.70,4.04
55.00,1.00,254.56,-1.56,-63.19,-1.31,-0.44,0.50,70.70,4.04
55.00,2.00,260.69,-10.62,21.25,0.94,-3.12,1.25,70.70,4.04
55.00,0.00,243.56,15.56,-124.88,5.31,2.88,2.69,70.94,4.06
55.00,1.00,254.56,-1.56,-63.19,-0.81,-0.25,0.38,70.94,4.06
55.00,2.00,260.62,-10.62,21.19,0.62,-2.81,1.81,70.94,4.06
55.00,0.00,243.31,15.69,-124.94,4.19,4.12,1.56,71.14,4.08
55.00,1.00,254.56,-1.56,-63.19,-0.31,0.62,0.81,71.14,4.08
55.00,2.00,260.56,-10.56,21.19,0.19,-3.38,2.19,71.14,4.08
55.00,0.00,243.19,15.69,-125.00,3.12,3.69,-0.38,71.32,4.10
55.00,1.00,254.56,-1.56,-63.19,-0.50,0.00,0.94,71.32,4.10
55.00,2.00,260.50,-10.50,21.19,-0.38,-4.44,1.62,71.32,4.10
55.00,0.00,243.06,15.69,-125.06,3.75,1.69,-0.88,71.51,4.12
55.00,1.00,254.50,-1.50,-63.19,-0.19,-0.31,1.12,71.51,4.12
55.00,2.00,260.50,-10.44,21.19,0.00,-4.00,1.38,71.51,4.12
55.00,0.00,243.00,15.75,-125.19,6.44,0.12,2.31,71.84,4.14
55.00,1.00,254.50,-1.50,-63.19,-0.06,-0.06,1.12,71.84,4.14
55.00,2.00,260.44,-10.38,21.19,-0.06,-3.00,0.94,71.84,4.14
55.00,0.00,242.88,15.75,-125.25,7.12,2.44,4.56,72.19,4.16
55.00,1.00,254.50,-1.50,-63.19,-0.25,-0.31,0.88,72.19,4.16
55.00,2.00,260.44,-10.31,21.19,0.38,-3.31,1.56,72.19,4.16
55.00,0.00,242.50,15.94,-125.44,5.94,4.38,3.88,72.42,4.18
55.00,1.00,254.50,-1.50,-63.19,0.00,0.12,0.44,72.42,4.18
55.00,2.00,260.38,-10.25,21.12,1.38,-2.88,1.56,72.42,4.18
55.00,0.00,242.19,16.06,-125.50,6.00,5.06,3.12,72.68,4.20
55.00,1.00,254.44,-1.50,-63.19,-0.44,0.06,0.62,72.68,4.20
55.00,2.00,260.31,-10.25,21.12,0.81,-3.19,1.06,72.68,4.20
55.00,0.00,242.00,16.06,-125.56,6.00,4.44,3.44,72.97,4.22
55.00,1.00,254.44,-1.50,-63.19,-0.31,0.25,1.00,72.97,4.22
55.00,2.00,260.31,-10.19,21.12,0.44,-3.56,1.19,72.97,4.22
55.00,0.00,241.62,16.25,-125.75,5.94,3.69,3.62,73.24,4.24
55.00,1.00,254.44,-1.44,-63.19,-0.12,0.12,1.06,73.24,4.24
55.00,2.00,260.25,-10.12,21.12,0.56,-4.25,1.06,73.24,4.24
55.00,0.00,241.50,16.25,-125.75,5.19,2.25,2.62,73.45,4.26
55.00,1.00,254.44,-1.44,-63.19,-0.06,0.62,1.19,73.45,4.26
55.00,2.00,260.25,-10.06,21.06,0.94,-3.81,0.75,73.45,4.26
55.00,0.00,241.31,16.31,-125.88,6.06,0.81,2.94,73.74,4.28
55.00,1.00,254.38,-1.44,-63.19,-0.06,0.88,1.50,73.74,4.28
55.00,2.00,260.19,-10.00,21.06,0.44,-3.44,0.94,73.74,4.28
55.00,0.00,241.19,16.38,-126.00,6.00,1.56,2.69,74.04,4.30
55.00,1.00,254.38,-1.38,-63.19,-0.12,0.69,1.50,74.04,4.30
55.00,2.00,260.19,-9.94,21.06,0.19,-4.00,1.06,74.04,4.30
55.00,0.00,241.00,16.44,-126.12,5.25,1.75,2.50,74.27,4.32
55.00,1.00,254.31,-1.38,-63.19,0.56,0.38,1.81,74.27,4.32
55.00,2.00,260.12,-9.88,21.06,0.56,-4.06,1.06,74.27,4.32
55.00,0.00,240.81,16.50,-126.19,4.75,1.44,2.12,74.43,4.34
55.00,1.00,254.25,-1.31,-63.19,0.25,0.25,1.75,74.43,4.34
55.00,2.00,260.12,-9.81,21.00,1.69,-3.38,0.88,74.43,4.34
55.00,0.00,240.69,16.56,-126.31,4.81,0.56,1.94,74.61,4.36
55.00,1.00,254.25,-1.31,-63.19,-0.25,0.31,1.75,74.61,4.36
55.00,2.00,260.06,-9.75,21.00,1.25,-2.81,1.06,74.61,4.36
55.00,0.00,240.56,16.56,-126.44,5.62,0.25,3.12,74.87,4.38
55.00,1.00,254.19,-1.31,-63.19,-0.62,1.31,1.50,74.87,4.38
55.00,2.00,260.06,-9.69,21.00,0.56,-2.88,1.00,74.87,4.38
55.00,0.00,240.44,16.62,-126.56,4.50,0.88,1.88,75.05,4.40
55.00,1.00,254.12,-1.25,-63.19,-0.69,1.25,1.62,75.05,4.40
55.00,2.00,260.00,-9.69,20.94,0.88,-3.06,1.44,75.05,4.40
55.00,0.00,240.31,16.69,-126.62,3.88,0.88,1.19,75.26,4.42
55.00,1.00,254.12,-1.25,-63.12,-0.81,0.44,1.25,75.26,4.42
55.00,2.00,260.00,-9.62,20.94,-0.19,-2.56,1.50,75.26,4.42
55.00,0.00,240.25,16.69,-126.69,4.88,0.06,1.75,75.58,4.44
55.00,1.00,254.12,-1.25,-63.12,-1.00,0.56,1.06,75.58,4.44
55.00,2.00,259.94,-9.56,20.94,-1.44,-1.94,1.50,75.58,4.44
55.00,0.00,240.12,16.69,-126.81,5.31,0.81,2.75,75.88,4.46
55.00,1.00,254.06,-1.25,-63.12,-1.31,0.88,0.62,75.88,4.46
55.00,2.00,259.88,-9.56,20.94,-0.50,-1.81,1.31,75.88,4.46
55.00,0.00,240.00,16.75,-126.88,4.12,1.75,1.94,76.08,4.48
55.00,1.00,254.06,-1.25,-63.06,-1.00,1.12,0.81,76.08,4.48
55.00,2.00,259.88,-9.56,20.94,0.19,-2.00,1.69,76.08,4.48
55.00,0.00,239.81,16.81,-126.94,2.62,1.19,1.25,76.24,4.50
55.00,1.00,254.00,-1.19,-63.06,-0.38,0.88,1.06,76.24,4.50
55.00,2.00,259.81,-9.50,20.94,-0.56,-2.31,1.62,76.24,4.50
55.00,0.00,239.75,16.88,-127.00,1.50,1.75,0.56,76.34,4.52
55.00,1.00,254.00,-1.19,-63.12,-0.19,-0.12,1.44,76.34,4.52
55.00,2.00,259.75,-9.44,20.94,-0.56,-3.00,1.62,76.34,4.52
55.00,0.00,239.75,16.81,-126.94,0.12,-0.25,-3.06,76.38,4.54
55.00,1.00,253.94,-1.19,-63.12,-0.31,-0.12,1.12,76.38,4.54
55.00,2.00,259.75,-9.44,20.94,-0.62,-2.12,1.19,76.38,4.54
55.00,0.00,239.81,16.81,-126.94,2.00,-1.75,-2.19,76.54,4.56
55.00,1.00,253.94,-1.12,-63.12,-0.44,-0.31,1.00,76.54,4.56
55.00,2.00,259.75,-9.44,20.94,-1.06,-1.12,0.50,76.54,4.56
55.00,0.00,239.81,16.75,-127.06,5.56,-0.44,3.19,76.87,4.58
55.00,1.00,253.94,-1.12,-63.06,-0.94,-0.31,0.56,76.87,4.58
55.00,2.00,259.75,-9.38,21.00,-1.00,-1.56,0.50,76.87,4.58
55.00,0.00,239.62,16.81,-127.19,4.88,1.38,3.44,77.13,4.60
55.00,1.00,253.94,-1.12,-63.06,-0.56,-1.12,0.12,77.13,4.60
55.00,2.00,259.69,-9.38,21.00,-0.12,-1.81,0.56,77.13,4.60
55.00,0.00,239.44,16.88,-127.25,2.50,3.25,1.44,77.24,4.62
55.00,1.00,253.94,-1.12,-63.06,-0.12,-1.12,0.19,77.24,4.62
55.00,2.00,259.69,-9.31,21.00,0.25,-2.25,0.25,77.24,4.62
55.00,0.00,239.38,16.94,-127.25,0.88,2.00,-1.19,77.32,4.64
55.00,1.00,254.00,-1.12,-63.06,0.06,-1.50,0.56,77.32,4.64
55.00,2.00,259.69,-9.25,21.00,-0.62,-2.44,0.06,77.32,4.64
55.00,0.00,239.38,16.88,-127.25,2.50,-1.25,-1.25,77.52,4.66
55.00,1.00,254.00,-1.06,-63.06,0.00,-1.25,0.75,77.52,4.66
55.00,2.00,259.69,-9.25,21.00,-1.56,-1.38,-0.75,77.52,4.66
55.00,0.00,239.38,16.88,-127.31,4.25,-1.69,1.06,77.81,4.68
55.00,1.00,254.00,-1.06,-63.06,0.12,-1.31,1.00,77.81,4.68
55.00,2.00,259.69,-9.19,21.06,-1.31,-1.38,-0.81,77.81,4.68
55.00,0.00,239.31,16.88,-127.38,3.50,0.31,1.50,77.97,4.70
55.00,1.00,254.00,-1.06,-63.06,0.12,-1.56,0.75,77.97,4.70
55.00,2.00,259.75,-9.19,21.06,0.31,-1.69,-1.19,77.97,4.70
55.00,0.00,239.19,16.94,-127.44,1.81,1.94,0.75,78.02,4.72
55.00,1.00,254.00,-1.00,-63.06,0.75,-2.31,0.50,78.02,4.72
55.00,2.00,259.75,-9.12,21.06,0.75,-1.62,-1.62,78.02,4.72
55.00,0.00,239.12,16.94,-127.44,1.19,2.31,0.19,78.11,4.74
55.00,1.00,254.00,-1.00,-63.12,0.81,-2.25,0.25,78.11,4.74
55.00,2.00,259.75,-9.12,21.06,-0.50,-1.19,-1.25,78.11,4.74
55.00,0.00,239.06,17.00,-127.44,1.69,1.19,0.19,78.19,4.76
55.00,1.00,254.06,-0.94,-63.12,0.69,-2.69,0.38,78.19,4.76
55.00,2.00,259.81,-9.12,21.06,0.06,-1.19,-1.56,78.19,4.76
55.00,0.00,239.00,17.00,-127.50,1.94,1.25,0.69,78.23,4.78
55.00,1.00,254.06,-0.94,-63.12,0.69,-2.69,0.00,78.23,4.78
55.00,2.00,259.81,-9.06,21.06,1.12,-1.06,-1.69,78.23,4.78
55.00,0.00,238.88,17.00,-127.50,1.50,0.69,0.75,78.28,4.80
55.00,1.00,254.12,-0.94,-63.12,0.56,-2.38,0.25,78.28,4.80
55.00,2.00,259.88,-9.00,21.06,0.56,-0.94,-1.25,78.28,4.80
55.00,0.00,238.81,17.06,-127.56,1.75,0.81,1.25,78.36,4.82
55.00,1.00,254.12,-0.88,-63.12,0.75,-1.94,0.25,78.36,4.82
55.00,2.00,259.88,-9.00,21.06,0.19,-1.06,-1.00,78.36,4.82
55.00,0.00,238.75,17.06,-127.56,2.06,1.44,1.62,78.45,4.84
55.00,1.00,254.19,-0.88,-63.12,1.25,-1.38,0.38,78.45,4.84
55.00,2.00,259.88,-9.00,21.06,0.38,-1.19,-0.88,78.45,4.84
55.00,0.00,238.69,17.12,-127.62,2.00,0.06,1.19,78.52,4.86
55.00,1.00,254.19,-0.88,-63.19,1.06,-1.44,0.50,78.52,4.86
55.00,2.00,259.88,-8.94,21.06,0.62,-1.31,-0.62,78.52,4.86
55.00,0.00,238.62,17.12,-127.69,2.56,-0.62,1.75,78.61,4.88
55.00,1.00,254.19,-0.88,-63.19,1.06,-1.56,0.19,78.61,4.88
55.00,2.00,259.88,-8.94,21.06,0.62,-1.88,-0.31,78.61,4.88
55.00,0.00,238.50,17.19,-127.75,2.44,-0.06,2.31,78.71,4.90
55.00,1.00,254.19,-0.88,-63.19,0.88,-1.50,0.06,78.71,4.90
55.00,2.00,259.88,-8.88,21.06,0.56,-2.94,-0.62,78.71,4.90
55.00,0.00,238.44,17.19,-127.81,2.19,0.69,2.62,78.76,4.92
55.00,1.00,254.25,-0.81,-63.25,1.12,-1.50,0.38,78.76,4.92
55.00,2.00,259.88,-8.81,21.06,1.19,-3.25,-1.19,78.76,4.92
55.00,0.00,238.31,17.25,-127.81,2.25,0.88,3.50,78.85,4.94
55.00,1.00,254.25,-0.81,-63.25,1.00,-1.75,0.50,78.85,4.94
55.00,2.00,259.94,-8.75,21.06,0.56,-2.50,-1.62,78.85,4.94
55.00,0.00,238.19,17.31,-127.88,2.75,0.94,3.38,78.97,4.96
55.00,1.00,254.25,-0.81,-63.25,0.75,-1.81,0.38,78.97,4.96
55.00,2.00,259.94,-8.75,21.06,0.25,-2.38,-1.75,78.97,4.96
55.00,0.00,238.00,17.44,-127.94,3.00,1.38,3.25,79.08,4.98
55.00,1.00,254.31,-0.81,-63.31,0.94,-1.38,0.31,79.08,4.98
55.00,2.00,259.94,-8.62,21.00,1.00,-2.50,-1.44,79.08,4.98
55.00,0.00,237.88,17.44,-128.06,3.56,0.50,2.38,79.18,5.00
55.00,1.00,254.31,-0.81,-63.31,1.06,-1.00,0.31,79.18,5.00
55.00,2.00,260.00,-8.56,21.00,1.50,-2.31,-1.06,79.18,5.00
55.00,0.00,237.75,17.50,-128.12,4.75,0.12,4.19,79.39,5.02
55.00,1.00,254.31,-0.75,-63.31,0.88,-1.56,0.81,79.39,5.02
55.00,2.00,260.00,-8.50,21.00,0.69,-2.75,-0.88,79.39,5.02
55.00,0.00,237.56,17.62,-128.25,4.06,1.56,4.69,79.56,5.04
55.00,1.00,254.31,-0.75,-63.38,1.19,-1.88,0.69,79.56,5.04
55.00,2.00,260.00,-8.50,21.00,0.56,-2.38,-0.62,79.56,5.04
55.00,0.00,237.38,17.69,-128.31,3.25,1.56,3.81,79.66,5.06
55.00,1.00,254.31,-0.75,-63.38,0.00,-0.88,0.38,79.66,5.06
55.00,2.00,260.00,-8.44,20.94,1.44,-2.25,-0.44,79.66,5.06
55.00,0.00,237.25,17.75,-128.38,3.00,0.38,3.06,79.78,5.08
55.00,1.00,254.31,-0.69,-63.38,-0.06,0.75,0.75,79.78,5.08
55.00,2.00,260.00,-8.38,20.94,0.56,-2.62,0.00,79.78,5.08
55.00,0.00,237.12,17.75,-128.44,2.94,-0.69,2.69,79.99,5.10
55.00,1.00,254.31,-0.69,-63.38,-0.19,0.19,1.19,79.99,5.10
55.00,2.00,259.94,-8.31,20.94,-1.19,-3.81,1.12,79.99,5.10
55.00,0.00,237.06,17.81,-128.50,2.19,0.31,2.81,80.17,5.12
55.00,1.00,254.25,-0.69,-63.38,0.00,-0.50,1.44,80.17,5.12
55.00,2.00,259.94,-8.25,20.94,-1.38,-4.69,1.56,80.17,5.12
55.00,0.00,236.88,17.88,-128.56,1.81,2.19,3.12,80.25,5.14
55.00,1.00,254.25,-0.62,-63.38,0.38,-0.38,1.31,80.25,5.14
55.00,2.00,259.88,-8.19,20.94,0.19,-3.44,0.69,80.25,5.14
55.00,0.00,236.69,18.00,-128.56,2.25,3.31,3.25,80.30,5.16
55.00,1.00,254.19,-0.62,-63.38,0.19,0.19,1.12,80.30,5.16
55.00,2.00,259.88,-8.12,20.94,1.31,-2.88,0.38,80.30,5.16
55.00,0.00,236.50,18.06,-128.62,2.50,3.25,2.81,80.38,5.18
55.00,1.00,254.19,-0.62,-63.38,0.12,0.44,1.31,80.38,5.18
55.00,2.00,259.88,-8.12,20.94,0.88,-3.12,0.62,80.38,5.18
55.00,0.00,236.25,18.12,-128.69,2.94,3.12,2.56,80.53,5.20
55.00,1.00,254.19,-0.62,-63.38,-0.44,0.81,1.00,80.53,5.20
55.00,2.00,259.81,-8.06,20.88,0.12,-3.25,1.62,80.53,5.20
55.00,0.00,236.12,18.19,-128.75,2.31,2.62,1.75,80.67,5.22
55.00,1.00,254.12,-0.56,-63.44,-0.56,0.69,1.00,80.67,5.22
55.00,2.00,259.81,-8.00,20.88,-0.44,-3.19,1.94,80.67,5.22
55.00,0.00,236.00,18.25,-128.75,2.62,1.12,1.44,80.81,5.24
55.00,1.00,254.12,-0.56,-63.44,-0.62,0.88,1.31,80.81,5.24
55.00,2.00,259.75,-7.94,20.88,-0.25,-2.88,1.56,80.81,5.24
55.00,0.00,235.94,18.25,-128.81,2.88,0.50,1.50,80.94,5.26
55.00,1.00,254.06,-0.56,-63.38,-0.56,0.25,0.81,80.94,5.26
55.00,2.00,259.69,-7.94,20.88,0.44,-2.00,1.38,80.94,5.26
55.00,0.00,235.88,18.31,-128.88,3.12,0.31,0.69,81.05,5.28
55.00,1.00,254.06,-0.56,-63.38,-0.56,1.25,0.44,81.05,5.28
55.00,2.00,259.69,-7.94,20.88,0.88,-1.69,1.81,81.05,5.28
55.00,0.00,235.75,18.31,-129.00,3.56,0.69,1.75,81.16,5.30
55.00,1.00,254.06,-0.56,-63.38,-0.50,1.25,0.19,81.16,5.30
55.00,2.00,259.62,-7.88,20.88,1.44,-1.69,2.25,81.16,5.30
55.00,0.00,235.62,18.31,-129.00,2.00,0.88,0.81,81.17,5.32
55.00,1.00,254.06,-0.56,-63.38,-0.62,1.06,0.19,81.17,5.32
55.00,2.00,259.56,-7.88,20.81,1.75,-2.00,2.31,81.17,5.32
55.00,0.00,235.62,18.31,-129.06,1.31,-0.31,0.00,81.16,5.34
55.00,1.00,254.00,-0.56,-63.38,-0.88,1.56,0.12,81.16,5.34
55.00,2.00,259.50,-7.81,20.75,1.62,-2.25,2.31,81.16,5.34
55.00,0.00,235.62,18.31,-129.12,2.25,-1.19,0.31,81.24,5.36
55.00,1.00,254.00,-0.62,-63.38,-1.19,1.56,-0.25,81.24,5.36
55.00,2.00,259.50,-7.81,20.75,0.62,-2.06,2.56,81.24,5.36
55.00,0.00,235.62,18.31,-129.12,2.94,-0.75,0.69,81.39,5.38
55.00,1.00,254.00,-0.62,-63.38,-1.19,2.06,-0.12,81.39,5.38
55.00,2.00,259.44,-7.81,20.75,0.00,-2.06,2.25,81.39,5.38
55.00,0.00,235.56,18.31,-129.19,2.88,0.19,0.50,81.55,5.40
55.00,1.00,253.94,-0.62,-63.38,-1.44,2.25,0.00,81.55,5.40
55.00,2.00,259.38,-7.81,20.69,-0.38,-1.38,2.62,81.55,5.40
55.00,0.00,235.50,18.31,-129.25,2.31,0.25,0.00,81.65,5.42
55.00,1.00,253.94,-0.69,-63.31,-1.75,2.00,-0.19,81.65,5.42
55.00,2.00,259.31,-7.81,20.69,0.44,-1.31,2.75,81.65,5.42
55.00,0.00,235.50,18.31,-129.31,2.50,-0.81,-0.06,81.75,5.44
55.00,1.00,253.88,-0.69,-63.31,-1.50,2.12,-0.50,81.75,5.44
55.00,2.00,259.25,-7.81,20.69,0.50,-1.50,2.75,81.75,5.44
55.00,0.00,235.50,18.31,-129.38,3.31,-1.31,1.69,81.89,5.46
55.00,1.00,253.88,-0.69,-63.25,-1.81,2.06,-0.56,81.89,5.46
55.00,2.00,259.19,-7.75,20.69,0.69,-1.31,2.94,81.89,5.46
55.00,0.00,235.44,18.38,-129.44,2.81,-0.31,1.00,82.02,5.48
55.00,1.00,253.88,-0.75,-63.25,-1.19,2.31,-0.31,82.02,5.48
55.00,2.00,259.12,-7.75,20.69,0.25,-1.31,2.94,82.02,5.48
55.00,0.00,235.38,18.38,-129.50,2.56,-0.56,0.38,82.14,5.50
55.00,1.00,253.81,-0.75,-63.25,-1.62,1.69,-0.31,82.14,5.50
55.00,2.00,259.06,-7.75,20.69,0.19,-1.00,2.75,82.14,5.50
55.00,0.00,235.31,18.38,-129.56,3.06,-0.44,0.44,82.28,5.52
55.00,1.00,253.81,-0.75,-63.19,-1.88,2.12,-0.50,82.28,5.52
55.00,2.00,259.00,-7.75,20.62,0.31,-1.12,2.81,82.28,5.52
55.00,0.00,235.25,18.38,-129.62,3.94,0.00,0.69,82.48,5.54
55.00,1.00,253.81,-0.81,-63.19,-1.56,1.88,-0.56,82.48,5.54
55.00,2.00,258.94,-7.75,20.62,0.00,-1.81,2.44,82.48,5.54
55.00,0.00,235.19,18.38,-129.69,3.75,0.56,1.06,82.65,5.56
55.00,1.00,253.75,-0.81,-63.12,-1.56,1.81,-0.56,82.65,5.56
55.00,2.00,258.88,-7.75,20.62,0.31,-1.94,2.31,82.65,5.56
55.00,0.00,235.06,18.38,-129.75,3.31,0.81,0.75,82.82,5.58
55.00,1.00,253.75,-0.81,-63.12,-1.12,1.75,-0.06,82.82,5.58
55.00,2.00,258.88,-7.75,20.62,0.06,-1.75,2.06,82.82,5.58
55.00,0.00,235.00,18.44,-129.81,3.00,0.81,0.75,82.99,5.60
55.00,1.00,253.75,-0.88,-63.06,-1.44,1.19,0.06,82.99,5.60
55.00,2.00,258.81,-7.69,20.62,-0.38,-1.94,1.75,82.99,5.60
55.00,0.00,234.88,18.44,-129.88,2.75,1.62,0.56,83.13,5.62
55.00,1.00,253.75,-0.88,-63.06,-1.12,1.75,-0.44,83.13,5.62
55.00,2.00,258.75,-7.69,20.62,0.00,-2.00,1.69,83.13,5.62
55.00,0.00,234.75,18.50,-129.88,1.94,2.31,0.75,83.17,5.64
55.00,1.00,253.69,-0.88,-63.06,-1.19,1.50,0.00,83.17,5.64
55.00,2.00,258.69,-7.69,20.62,1.06,-2.00,2.25,83.17,5.64
55.00,0.00,234.69,18.50,-129.88,1.19,2.12,0.50,83.19,5.66
55.00,1.00,253.69,-0.94,-63.00,-1.06,1.12,0.19,83.19,5.66
55.00,2.00,258.69,-7.62,20.62,0.81,-2.00,2.12,83.19,5.66
55.00,0.00,234.56,18.56,-129.88,1.19,2.69,0.56,83.28,5.68
55.00,1.00,253.69,-0.94,-63.00,-1.94,1.88,0.00,83.28,5.68
55.00,2.00,258.62,-7.62,20.56,-0.50,-0.75,2.19,83.28,5.68
55.00,0.00,234.44,18.56,-129.88,0.88,3.06,0.00,83.35,5.70
55.00,1.00,253.69,-0.94,-63.00,-2.12,2.81,0.00,83.35,5.70
55.00,2.00,258.56,-7.62,20.56,-0.56,-0.62,1.88,83.35,5.70
55.00,0.00,234.44,18.56,-129.88,0.50,1.44,-0.94,83.38,5.72
55.00,1.00,253.62,-1.00,-62.94,-1.38,2.06,0.25,83.38,5.72
55.00,2.00,258.56,-7.62,20.56,-0.12,-0.81,1.75,83.38,5.72
55.00,0.00,234.44,18.56,-129.81,0.50,0.31,-0.31,83.43,5.74
55.00,1.00,253.62,-1.00,-62.94,-0.88,1.62,0.50,83.43,5.74
55.00,2.00,258.50,-7.62,20.56,-0.38,-0.50,1.69,83.43,5.74
55.00,0.00,234.38,18.56,-129.81,0.31,1.94,-0.56,83.46,5.76
55.00,1.00,253.62,-1.00,-62.94,-0.56,1.25,0.44,83.46,5.76
55.00,2.00,258.50,-7.62,20.56,-0.25,-0.50,1.69,83.46,5.76
55.00,0.00,234.31,18.62,-129.81,-0.19,2.81,-1.50,83.44,5.78
55.00,1.00,253.56,-1.06,-62.94,-0.69,1.25,0.38,83.44,5.78
55.00,2.00,258.44,-7.69,20.56,0.06,0.06,2.06,83.44,5.78
55.00,0.00,234.25,18.62,-129.81,-0.12,2.06,-1.31,83.46,5.80
55.00,1.00,253.56,-1.06,-62.88,-0.69,1.19,0.38,83.46,5.80
55.00,2.00,258.38,-7.69,20.56,-0.44,0.12,1.69,83.46,5.80
55.00,0.00,234.25,18.62,-129.75,0.12,1.00,-0.81,83.50,5.82
55.00,1.00,253.56,-1.06,-62.88,-1.00,1.50,0.00,83.50,5.82
55.00,2.00,258.38,-7.69,20.56,-0.62,-0.06,1.88,83.50,5.82
55.00,0.00,234.25,18.62,-129.75,0.25,0.44,-0.75,83.53,5.84
55.00,1.00,253.56,-1.06,-62.88,-0.94,0.94,-0.69,83.53,5.84
55.00,2.00,258.31,-7.69,20.56,-0.38,-0.88,1.62,83.53,5.84
55.00,0.00,234.31,18.56,-129.75,0.06,-0.94,-1.25,83.53,5.86
55.00,1.00,253.56,-1.12,-62.88,-0.81,1.44,-0.50,83.53,5.86
55.00,2.00,258.31,-7.69,20.56,0.12,-0.69,1.25,83.53,5.86
55.00,0.00,234.31,18.56,-129.75,0.44,-2.25,-1.31,83.61,5.88
55.00,1.00,253.50,-1.12,-62.88,-1.12,0.75,0.00,83.61,5.88
55.00,2.00,258.25,-7.69,20.56,-1.12,-0.94,1.06,83.61,5.88
55.00,0.00,234.38,18.50,-129.81,0.81,-0.12,0.12,83.69,5.90
55.00,1.00,253.50,-1.12,-62.81,-1.00,0.00,-0.50,83.69,5.90
55.00,2.00,258.25,-7.69,20.62,-0.94,-1.31,1.00,83.69,5.90
55.00,0.00,234.38,18.56,-129.81,0.38,3.06,0.69,83.73,5.92
55.00,1.00,253.56,-1.12,-62.81,-0.75,0.44,-1.12,83.73,5.92
55.00,2.00,258.19,-7.62,20.62,-0.38,-1.69,1.19,83.73,5.92
55.00,0.00,234.12,18.62,-129.75,0.31,4.19,0.69,83.72,5.94
55.00,1.00,253.56,-1.19,-62.81,-0.81,0.81,-0.81,83.72,5.94
55.00,2.00,258.19,-7.62,20.62,0.50,-1.88,1.31,83.72,5.94
55.00,0.00,234.06,18.62,-129.75,0.44,3.38,1.00,83.77,5.96
55.00,1.00,253.56,-1.19,-62.81,-0.88,0.94,-0.38,83.77,5.96
55.00,2.00,258.12,-7.56,20.56,-0.44,-1.69,1.31,83.77,5.96
55.00,0.00,233.94,18.69,-129.75,1.19,2.75,1.00,83.86,5.98
55.00,1.00,253.56,-1.19,-62.75,-1.00,0.19,-0.44,83.86,5.98
55.00,2.00,258.12,-7.56,20.56,-0.56,-2.19,0.81,83.86,5.98
55.00,0.00,233.81,18.75,-129.75,1.94,1.44,1.12,83.96,6.00
55.00,1.00,253.56,-1.19,-62.75,-0.56,0.50,-0.31,83.96,6.00
55.00,2.00,258.12,-7.50,20.56,-0.12,-1.31,0.00,83.96,6.00
55.00,0.00,233.69,18.75,-129.81,2.31,0.31,1.00,84.05,6.02
55.00,1.00,253.56,-1.19,-62.75,-0.88,-0.31,-0.38,84.05,6.02
55.00,2.00,258.12,-7.50,20.56,0.56,-0.81,-0.25,84.05,6.02
55.00,0.00,233.62,18.81,-129.88,2.06,0.38,0.81,84.15,6.04
55.00,1.00,253.56,-1.19,-62.75,-0.56,-0.06,0.12,84.15,6.04
55.00,2.00,258.12,-7.50,20.56,0.06,-0.94,-0.25,84.15,6.04
55.00,0.00,233.62,18.81,-129.88,1.12,1.25,0.44,84.21,6.06
55.00,1.00,253.56,-1.19,-62.75,-0.56,-0.50,-0.19,84.21,6.06
55.00,2.00,258.12,-7.50,20.56,0.06,-1.75,0.50,84.21,6.06
55.00,0.00,233.56,18.81,-129.88,0.25,1.81,0.31,84.16,6.08
55.00,1.00,253.56,-1.19,-62.75,-0.88,-0.25,-0.44,84.16,6.08
55.00,2.00,258.06,-7.44,20.56,1.19,-1.75,0.69,84.16,6.08
55.00,0.00,233.50,18.88,-129.88,-0.38,0.88,0.62,84.09,6.10
55.00,1.00,253.56,-1.19,-62.75,-1.00,0.25,0.00,84.09,6.10
55.00,2.00,258.06,-7.44,20.56,0.94,-1.38,0.81,84.09,6.10
55.00,0.00,233.44,18.88,-129.88,-0.38,0.62,1.00,84.07,6.12
55.00,1.00,253.56,-1.19,-62.69,-1.06,0.81,0.38,84.07,6.12
55.00,2.00,258.06,-7.38,20.56,0.12,-1.44,1.00,84.07,6.12
55.00,0.00,233.38,18.94,-129.88,-0.44,2.56,1.88,84.07,6.14
55.00,1.00,253.56,-1.25,-62.69,-1.31,1.12,0.44,84.07,6.14
55.00,2.00,258.00,-7.38,20.56,-0.44,-1.44,1.50,84.07,6.14
55.00,0.00,233.19,19.00,-129.88,-1.38,3.12,0.56,84.02,6.16
55.00,1.00,253.50,-1.25,-62.69,-0.81,1.19,0.88,84.02,6.16
55.00,2.00,258.00,-7.38,20.56,-0.44,-0.94,1.56,84.02,6.16
55.00,0.00,233.12,19.00,-129.81,-1.62,2.19,0.38,83.96,6.18
55.00,1.00,253.50,-1.25,-62.62,-0.56,1.50,0.69,83.96,6.18
55.00,2.00,257.94,-7.38,20.56,-0.56,-0.75,1.50,83.96,6.18
55.00,0.00,233.12,19.00,-129.75,-0.81,0.88,0.19,83.94,6.20
55.00,1.00,253.44,-1.25,-62.62,-0.44,1.75,0.62,83.94,6.20
55.00,2.00,257.94,-7.38,20.50,-0.38,-0.75,1.50,83.94,6.20
55.00,0.00,233.12,19.00,-129.75,-0.19,-0.38,0.06,83.93,6.22
55.00,1.00,253.44,-1.25,-62.62,-0.44,1.81,0.31,83.93,6.22
55.00,2.00,257.88,-7.38,20.50,0.12,-1.19,1.56,83.93,6.22
55.00,0.00,233.12,19.00,-129.75,0.12,-1.12,-0.12,83.94,6.24
55.00,1.00,253.44,-1.25,-62.62,-0.81,2.00,0.44,83.94,6.24
55.00,2.00,257.88,-7.38,20.50,-0.19,-0.31,1.50,83.94,6.24
55.00,0.00,233.19,19.00,-129.75,-0.44,-1.81,-0.50,83.95,6.26
55.00,1.00,253.38,-1.25,-62.62,-1.06,1.44,0.62,83.95,6.26
55.00,2.00,257.81,-7.38,20.50,-0.50,-0.44,1.88,83.95,6.26
55.00,0.00,233.25,19.00,-129.81,-0.44,-2.06,-0.44,83.95,6.28
55.00,1.00,253.38,-1.25,-62.62,-1.19,1.38,0.44,83.95,6.28
55.00,2.00,257.81,-7.38,20.50,-0.50,-0.88,2.31,83.95,6.28
55.00,0.00,233.38,18.94,-129.81,-0.81,-2.44,0.12,83.91,6.30
55.00,1.00,253.38,-1.25,-62.56,-1.62,0.69,0.00,83.91,6.30
55.00,2.00,257.69,-7.38,20.50,-0.12,-0.88,2.12,83.91,6.30
55.00,0.00,233.44,18.94,-129.75,-1.94,-1.62,-0.25,83.81,6.32
55.00,1.00,253.38,-1.25,-62.56,-1.69,0.19,0.06,83.81,6.32
55.00,2.00,257.69,-7.38,20.50,0.00,-0.38,2.06,83.81,6.32
55.00,0.00,233.56,18.88,-129.69,-2.56,-1.69,-0.38,83.76,6.34
55.00,1.00,253.38,-1.25,-62.50,-1.69,0.75,-0.19,83.76,6.34
55.00,2.00,257.62,-7.38,20.56,-1.56,1.25,1.38,83.76,6.34
55.00,0.00,233.69,18.88,-129.69,-1.38,-2.44,-0.12,83.78,6.36
55.00,1.00,253.31,-1.31,-62.44,-1.94,1.38,-0.38,83.78,6.36
55.00,2.00,257.62,-7.44,20.56,-1.62,2.81,0.56,83.78,6.36
55.00,0.00,233.81,18.81,-129.69,-0.06,-2.81,0.19,83.83,6.38
55.00,1.00,253.31,-1.31,-62.44,-1.50,1.69,-0.19,83.83,6.38
55.00,2.00,257.62,-7.50,20.56,-1.19,2.62,0.50,83.83,6.38
55.00,0.00,233.94,18.81,-129.69,-0.06,-3.44,0.12,83.85,6.40
55.00,1.00,253.31,-1.31,-62.44,-0.81,0.94,-0.06,83.85,6.40
55.00,2.00,257.69,-7.56,20.62,-0.31,2.69,0.38,83.85,6.40
55.00,0.00,234.06,18.75,-129.69,-0.62,-4.69,0.12,83.84,6.42
55.00,1.00,253.31,-1.31,-62.44,-0.81,0.56,0.06,83.84,6.42
55.00,2.00,257.69,-7.56,20.62,-0.50,1.94,0.56,83.84,6.42
55.00,0.00,234.19,18.69,-129.75,-0.50,-4.06,0.69,83.80,6.44
55.00,1.00,253.31,-1.31,-62.38,-0.38,0.75,-0.31,83.80,6.44
55.00,2.00,257.69,-7.62,20.62,0.38,1.12,0.38,83.80,6.44
55.00,0.00,234.31,18.69,-129.75,-0.56,-2.12,1.12,83.70,6.46
55.00,1.00,253.31,-1.31,-62.38,-0.38,0.44,-0.62,83.70,6.46
55.00,2.00,257.69,-7.62,20.62,1.25,1.19,0.06,83.70,6.46
55.00,0.00,234.25,18.69,-129.75,-0.44,0.00,1.00,83.65,6.48
55.00,1.00,253.31,-1.31,-62.38,-0.75,0.88,-0.38,83.65,6.48
55.00,2.00,257.69,-7.69,20.62,0.69,0.38,0.25,83.65,6.48
55.00,0.00,234.19,18.75,-129.75,-0.38,1.38,0.94,83.63,6.50
55.00,1.00,253.31,-1.31,-62.38,-0.62,0.25,0.12,83.63,6.50
55.00,2.00,257.69,-7.69,20.62,-0.06,0.12,0.06,83.63,6.50
55.00,0.00,234.06,18.81,-129.75,-0.25,2.06,0.94,83.66,6.52
55.00,1.00,253.31,-1.38,-62.38,-0.75,0.75,0.00,83.66,6.52
55.00,2.00,257.69,-7.69,20.62,-0.75,-0.12,0.19,83.66,6.52
55.00,0.00,234.00,18.81,-129.69,0.00,2.38,0.56,83.67,6.54
55.00,1.00,253.25,-1.38,-62.38,-0.56,-0.06,0.19,83.67,6.54
55.00,2.00,257.69,-7.69,20.62,-0.31,-0.25,0.19,83.67,6.54
55.00,0.00,233.94,18.88,-129.69,0.06,2.19,0.38,83.66,6.56
55.00,1.00,253.25,-1.38,-62.38,-0.12,-0.06,-0.25,83.66,6.56
55.00,2.00,257.69,-7.69,20.62,0.31,-0.19,0.38,83.66,6.56
55.00,0.00,233.94,18.88,-129.69,0.12,0.38,0.38,83.62,6.58
55.00,1.00,253.25,-1.38,-62.38,0.25,0.00,-0.19,83.62,6.58
55.00,2.00,257.69,-7.69,20.62,0.88,0.50,-0.12,83.62,6.58
55.00,0.00,233.94,18.88,-129.69,0.81,-0.44,0.31,83.64,6.60
55.00,1.00,253.25,-1.38,-62.38,0.38,0.06,-0.44,83.64,6.60
55.00,2.00,257.69,-7.69,20.62,0.44,0.19,0.12,83.64,6.60
55.00,0.00,233.94,18.81,-129.69,1.25,0.19,-0.38,83.67,6.62
55.00,1.00,253.25,-1.38,-62.38,0.69,-0.44,-0.25,83.67,6.62
55.00,2.00,257.69,-7.69,20.62,0.69,0.94,-0.25,83.67,6.62
55.00,0.00,233.88,18.88,-129.69,1.88,1.56,-1.12,83.76,6.64
55.00,1.00,253.31,-1.38,-62.38,1.12,-1.56,0.06,83.76,6.64
55.00,2.00,257.69,-7.75,20.62,0.12,1.38,-0.62,83.76,6.64
55.00,0.00,233.81,18.88,-129.69,2.44,2.44,-1.44,83.88,6.66
55.00,1.00,253.31,-1.31,-62.38,1.56,-2.06,0.00,83.88,6.66
55.00,2.00,257.69,-7.75,20.69,0.00,0.81,-0.81,83.88,6.66
55.00,0.00,233.69,18.88,-129.75,2.88,2.12,-1.44,84.02,6.68
55.00,1.00,253.31,-1.31,-62.44,1.75,-2.25,0.06,84.02,6.68
55.00,2.00,257.75,-7.75,20.69,0.19,0.56,-1.44,84.02,6.68
55.00,0.00,233.62,18.88,-129.75,2.50,2.44,-1.75,84.12,6.70
55.00,1.00,253.38,-1.31,-62.44,1.62,-2.69,-0.44,84.12,6.70
55.00,2.00,257.75,-7.75,20.75,0.56,0.50,-1.94,84.12,6.70
55.00,0.00,233.50,18.88,-129.69,2.00,3.12,-1.94,84.19,6.72
55.00,1.00,253.44,-1.25,-62.50,2.56,-3.44,0.12,84.19,6.72
55.00,2.00,257.81,-7.75,20.75,0.50,0.56,-2.06,84.19,6.72
