Iteration,IMUNo,OrientationX (deg),OrientationY,OrientationZ,GyroX (20rad/sec),GyroY,GyroZ,Elbow_Pos (rad),Time (sec)
61.00,0.00,280.19,1.62,-98.94,0.25,-0.44,0.12,0.02,1.02
61.00,1.00,261.75,-2.31,-62.81,0.25,0.19,0.38,0.02,1.02
61.00,2.00,260.44,-15.50,23.81,-0.06,-0.06,-0.06,0.02,1.02
61.00,0.00,280.19,1.62,-98.94,0.38,0.31,-0.06,0.03,1.04
61.00,1.00,261.75,-2.31,-62.81,0.12,-0.50,0.00,0.03,1.04
61.00,2.00,260.44,-15.50,23.81,0.12,-0.12,0.06,0.03,1.04
61.00,0.00,280.19,1.62,-98.94,0.12,0.25,-0.31,0.02,1.06
61.00,1.00,261.75,-2.31,-62.81,0.06,-0.56,0.12,0.02,1.06
61.00,2.00,260.44,-15.50,23.81,0.25,0.12,-0.31,0.02,1.06
61.00,0.00,280.19,1.62,-98.94,0.19,-0.12,-0.50,0.01,1.08
61.00,1.00,261.75,-2.25,-62.81,0.31,-0.50,0.06,0.01,1.08
61.00,2.00,260.44,-15.50,23.81,0.44,0.44,-0.25,0.01,1.08
61.00,0.00,280.19,1.62,-98.94,-0.06,-0.81,-0.12,-0.01,1.10
61.00,1.00,261.75,-2.25,-62.81,0.19,-0.38,0.00,-0.01,1.10
61.00,2.00,260.44,-15.50,23.81,0.25,0.56,-0.31,-0.01,1.10
61.00,0.00,280.19,1.62,-98.94,0.06,-1.19,-0.12,-0.01,1.12
61.00,1.00,261.75,-2.25,-62.81,0.19,-0.50,-0.19,-0.01,1.12
61.00,2.00,260.44,-15.50,23.81,0.19,0.62,-0.56,-0.01,1.12
61.00,0.00,280.25,1.56,-98.94,-0.12,-1.69,0.00,-0.04,1.14
61.00,1.00,261.75,-2.25,-62.81,0.25,-0.56,-0.25,-0.04,1.14
61.00,2.00,260.44,-15.50,23.81,0.31,0.69,-0.44,-0.04,1.14
61.00,0.00,280.25,1.56,-98.94,-0.12,-2.06,0.06,-0.07,1.16
61.00,1.00,261.75,-2.25,-62.81,0.25,-0.38,-0.38,-0.07,1.16
61.00,2.00,260.44,-15.50,23.81,0.44,0.44,-0.44,-0.07,1.16
61.00,0.00,280.31,1.56,-98.94,-0.12,-1.81,-0.06,-0.07,1.18
61.00,1.00,261.75,-2.25,-62.81,0.06,-0.56,-0.19,-0.07,1.18
61.00,2.00,260.44,-15.50,23.81,-0.12,0.25,-0.25,-0.07,1.18
61.00,0.00,280.38,1.56,-98.94,-0.38,-1.62,0.19,-0.08,1.20
61.00,1.00,261.75,-2.25,-62.81,0.06,-0.12,-0.12,-0.08,1.20
61.00,2.00,260.44,-15.50,23.81,0.00,0.19,-0.31,-0.08,1.20
61.00,0.00,280.38,1.56,-98.94,-0.19,-1.50,0.38,-0.09,1.22
61.00,1.00,261.75,-2.25,-62.81,0.19,-0.31,-0.06,-0.09,1.22
61.00,2.00,260.44,-15.50,23.81,-0.12,0.44,-0.50,-0.09,1.22
61.00,0.00,280.44,1.56,-98.94,0.12,-1.31,0.19,-0.10,1.24
61.00,1.00,261.75,-2.25,-62.81,0.19,-0.38,-0.38,-0.10,1.24
61.00,2.00,260.44,-15.50,23.81,0.31,0.38,-0.56,-0.10,1.24
61.00,0.00,280.44,1.56,-98.94,-0.19,-1.19,0.19,-0.15,1.26
61.00,1.00,261.81,-2.25,-62.81,0.06,-0.62,-0.25,-0.15,1.26
61.00,2.00,260.44,-15.50,23.81,0.75,0.50,-0.75,-0.15,1.26
61.00,0.00,280.50,1.56,-98.94,0.06,-0.94,0.06,-0.17,1.28
61.00,1.00,261.81,-2.25,-62.81,-0.25,-0.31,-0.19,-0.17,1.28
61.00,2.00,260.44,-15.50,23.81,0.50,0.62,-0.62,-0.17,1.28
61.00,0.00,280.50,1.56,-98.94,-0.50,-1.12,-0.25,-0.21,1.30
61.00,1.00,261.81,-2.25,-62.81,-0.50,-0.25,-0.19,-0.21,1.30
61.00,2.00,260.44,-15.50,23.81,0.31,0.12,-0.56,-0.21,1.30
61.00,0.00,280.50,1.56,-98.94,-0.62,-1.69,-0.44,-0.27,1.32
61.00,1.00,261.81,-2.25,-62.81,-0.19,0.25,0.00,-0.27,1.32
61.00,2.00,260.50,-15.50,23.81,0.44,0.12,-1.19,-0.27,1.32
61.00,0.00,280.56,1.56,-98.94,-0.94,-2.31,-0.62,-0.33,1.34
61.00,1.00,261.81,-2.25,-62.81,-0.56,0.69,-0.06,-0.33,1.34
61.00,2.00,260.50,-15.50,23.81,0.31,0.31,-1.50,-0.33,1.34
61.00,0.00,280.62,1.56,-98.88,-1.44,-2.31,-0.50,-0.38,1.36
61.00,1.00,261.75,-2.25,-62.81,-1.00,0.38,0.38,-0.38,1.36
61.00,2.00,260.50,-15.50,23.81,-0.50,-0.31,-0.69,-0.38,1.36
61.00,0.00,280.69,1.50,-98.88,-1.88,-1.50,-0.62,-0.42,1.38
61.00,1.00,261.75,-2.25,-62.81,-0.81,-0.56,0.00,-0.42,1.38
61.00,2.00,260.50,-15.50,23.81,-1.19,-0.56,-0.31,-0.42,1.38
61.00,0.00,280.69,1.50,-98.81,-1.56,-0.75,-0.69,-0.43,1.40
61.00,1.00,261.75,-2.25,-62.81,-0.56,0.12,-0.25,-0.43,1.40
61.00,2.00,260.50,-15.50,23.88,-1.38,0.50,-0.62,-0.43,1.40
61.00,0.00,280.75,1.50,-98.81,-1.88,-0.62,-0.56,-0.49,1.42
61.00,1.00,261.75,-2.25,-62.75,-0.88,0.56,-0.19,-0.49,1.42
61.00,2.00,260.56,-15.50,23.88,-0.56,0.81,-1.00,-0.49,1.42
61.00,0.00,280.75,1.50,-98.75,-2.88,-1.44,-0.69,-0.69,1.44
61.00,1.00,261.75,-2.25,-62.75,-1.12,-0.25,0.44,-0.69,1.44
61.00,2.00,260.56,-15.50,23.88,0.88,-1.38,-1.81,-0.69,1.44
61.00,0.00,280.88,1.44,-98.69,-3.31,-2.75,-1.88,-1.00,1.46
61.00,1.00,261.75,-2.25,-62.75,-0.94,0.12,1.12,-1.00,1.46
61.00,2.00,260.62,-15.44,23.81,2.75,-1.62,-2.88,-1.00,1.46
61.00,0.00,281.00,1.38,-98.62,-3.88,-3.94,-2.81,-1.35,1.48
61.00,1.00,261.69,-2.25,-62.75,-0.81,1.31,2.00,-1.35,1.48
61.00,2.00,260.69,-15.38,23.81,2.69,-0.19,-3.25,-1.35,1.48
61.00,0.00,281.19,1.31,-98.50,-5.19,-4.50,-4.00,-1.58,1.50
61.00,1.00,261.62,-2.19,-62.69,-0.69,1.06,2.06,-1.58,1.50
61.00,2.00,260.69,-15.31,23.81,-0.62,-2.19,-1.19,-1.58,1.50
61.00,0.00,281.38,1.19,-98.38,-5.69,-4.56,-5.00,-1.76,1.52
61.00,1.00,261.62,-2.19,-62.69,-1.06,0.38,1.25,-1.76,1.52
61.00,2.00,260.69,-15.31,23.81,-2.38,-2.62,-0.25,-1.76,1.52
61.00,0.00,281.56,1.12,-98.31,-5.44,-4.75,-4.44,-1.96,1.54
61.00,1.00,261.62,-2.19,-62.69,-1.44,0.38,0.56,-1.96,1.54
61.00,2.00,260.69,-15.25,23.88,-1.44,-0.56,-1.06,-1.96,1.54
61.00,0.00,281.75,1.00,-98.19,-4.62,-4.19,-3.31,-2.17,1.56
61.00,1.00,261.62,-2.19,-62.62,-0.94,-0.12,-0.12,-2.17,1.56
61.00,2.00,260.75,-15.31,23.94,-0.69,1.06,-1.56,-2.17,1.56
61.00,0.00,281.88,0.94,-98.12,-4.31,-1.81,-2.44,-2.35,1.58
61.00,1.00,261.62,-2.19,-62.62,-1.12,-0.19,-0.50,-2.35,1.58
61.00,2.00,260.75,-15.31,23.94,-0.88,1.88,-0.94,-2.35,1.58
61.00,0.00,281.88,0.94,-98.06,-3.81,0.44,-1.94,-2.48,1.60
61.00,1.00,261.62,-2.19,-62.62,-1.44,-0.56,-0.56,-2.48,1.60
61.00,2.00,260.75,-15.38,24.00,-1.19,1.88,0.00,-2.48,1.60
61.00,0.00,281.94,0.88,-98.00,-3.06,1.44,-1.69,-2.56,1.62
61.00,1.00,261.62,-2.19,-62.62,-0.12,-0.62,-0.62,-2.56,1.62
61.00,2.00,260.75,-15.38,24.00,-1.62,2.06,0.56,-2.56,1.62
61.00,0.00,281.88,0.88,-97.94,-2.19,1.94,-1.31,-2.56,1.64
61.00,1.00,261.62,-2.19,-62.56,-0.62,-0.44,-0.38,-2.56,1.64
61.00,2.00,260.75,-15.44,24.06,-2.12,1.25,1.06,-2.56,1.64
61.00,0.00,281.88,0.88,-97.94,-1.38,2.19,-0.56,-2.53,1.66
61.00,1.00,261.62,-2.19,-62.56,-0.81,-0.31,-0.25,-2.53,1.66
61.00,2.00,260.75,-15.44,24.12,-1.94,0.69,1.38,-2.53,1.66
61.00,0.00,281.81,0.88,-97.94,-0.12,2.62,-0.38,-2.47,1.68
61.00,1.00,261.62,-2.19,-62.56,-0.31,-0.38,-0.31,-2.47,1.68
61.00,2.00,260.69,-15.50,24.12,-1.25,0.62,1.38,-2.47,1.68
61.00,0.00,281.75,0.88,-97.94,0.81,3.50,-0.06,-2.37,1.70
61.00,1.00,261.62,-2.19,-62.56,0.12,-0.31,-0.31,-2.37,1.70
61.00,2.00,260.62,-15.50,24.12,-1.12,0.00,1.69,-2.37,1.70
61.00,0.00,281.69,0.88,-98.00,2.75,3.88,0.62,-2.21,1.72
61.00,1.00,261.62,-2.19,-62.56,0.38,-0.12,-0.75,-2.21,1.72
61.00,2.00,260.62,-15.50,24.12,-0.38,0.12,1.75,-2.21,1.72
61.00,0.00,281.56,0.94,-98.06,4.06,3.75,1.00,-2.01,1.74
61.00,1.00,261.62,-2.19,-62.56,0.38,-0.12,-0.56,-2.01,1.74
61.00,2.00,260.56,-15.56,24.12,0.12,0.31,1.62,-2.01,1.74
61.00,0.00,281.44,0.94,-98.19,4.81,4.25,0.94,-1.79,1.76
61.00,1.00,261.62,-2.19,-62.56,0.12,-0.12,-0.75,-1.79,1.76
61.00,2.00,260.56,-15.56,24.12,0.62,0.19,1.56,-1.79,1.76
61.00,0.00,281.38,1.00,-98.25,5.50,4.56,1.31,-1.55,1.78
61.00,1.00,261.62,-2.19,-62.56,0.31,0.12,-0.50,-1.55,1.78
61.00,2.00,260.50,-15.56,24.12,0.94,0.00,1.88,-1.55,1.78
61.00,0.00,281.19,1.00,-98.38,5.94,5.06,1.31,-1.25,1.80
61.00,1.00,261.62,-2.19,-62.56,0.06,0.38,-0.44,-1.25,1.80
61.00,2.00,260.50,-15.56,24.06,0.25,-0.81,2.69,-1.25,1.80
61.00,0.00,281.06,1.06,-98.50,6.12,5.19,1.56,-0.92,1.82
61.00,1.00,261.62,-2.19,-62.56,0.06,0.44,-0.12,-0.92,1.82
61.00,2.00,260.38,-15.56,24.06,-0.38,-1.38,3.25,-0.92,1.82
61.00,0.00,280.88,1.12,-98.69,7.25,7.00,2.25,-0.51,1.84
61.00,1.00,261.62,-2.19,-62.56,0.88,0.25,0.25,-0.51,1.84
61.00,2.00,260.31,-15.56,24.06,-0.56,-1.94,3.56,-0.51,1.84
61.00,0.00,280.62,1.19,-98.81,7.62,7.81,2.69,-0.10,1.86
61.00,1.00,261.62,-2.19,-62.62,0.81,0.25,0.31,-0.10,1.86
61.00,2.00,260.25,-15.56,24.06,-0.25,-1.88,3.50,-0.10,1.86
61.00,0.00,280.38,1.31,-99.00,8.81,9.62,2.94,0.34,1.88
61.00,1.00,261.62,-2.19,-62.62,0.75,0.12,0.31,0.34,1.88
61.00,2.00,260.19,-15.56,24.00,0.31,-1.69,3.25,0.34,1.88
61.00,0.00,280.06,1.38,-99.12,10.62,10.94,3.12,0.91,1.90
61.00,1.00,261.62,-2.19,-62.62,0.75,0.12,0.44,0.91,1.90
61.00,2.00,260.12,-15.56,24.00,-0.38,-1.56,3.44,0.91,1.90
61.00,0.00,279.75,1.50,-99.38,11.00,11.31,3.38,1.51,1.92
61.00,1.00,261.62,-2.19,-62.62,0.75,-0.62,0.44,1.51,1.92
61.00,2.00,260.06,-15.56,24.00,-0.56,-2.12,3.25,1.51,1.92
61.00,0.00,279.44,1.56,-99.62,12.75,12.56,3.56,2.18,1.94
61.00,1.00,261.69,-2.19,-62.62,-0.06,-1.50,0.44,2.18,1.94
61.00,2.00,259.94,-15.56,24.00,-0.12,-2.69,3.06,2.18,1.94
61.00,0.00,279.06,1.69,-99.88,13.06,12.38,3.56,2.83,1.96
61.00,1.00,261.69,-2.19,-62.69,1.50,-0.94,0.00,2.83,1.96
61.00,2.00,259.88,-15.56,23.94,0.62,-2.50,2.56,2.83,1.96
61.00,0.00,278.69,1.81,-100.12,15.38,11.69,4.06,3.54,1.98
61.00,1.00,261.69,-2.19,-62.69,0.38,-0.94,0.12,3.54,1.98
61.00,2.00,259.88,-15.50,23.94,1.69,-2.31,2.56,3.54,1.98
61.00,0.00,278.31,1.94,-100.44,17.19,10.88,4.94,4.36,2.00
61.00,1.00,261.69,-2.19,-62.69,0.38,-1.56,0.19,4.36,2.00
61.00,2.00,259.81,-15.50,23.88,1.38,-3.31,2.56,4.36,2.00
61.00,0.00,278.00,2.06,-100.75,17.31,11.12,4.62,5.19,2.02
61.00,1.00,261.69,-2.19,-62.69,1.19,-1.62,-0.88,5.19,2.02
61.00,2.00,259.75,-15.44,23.81,1.44,-3.38,2.81,5.19,2.02
61.00,0.00,277.62,2.19,-101.12,17.31,11.62,3.88,5.99,2.04
61.00,1.00,261.75,-2.19,-62.75,1.06,-0.88,-1.06,5.99,2.04
61.00,2.00,259.69,-15.44,23.81,2.00,-3.38,2.69,5.99,2.04
61.00,0.00,277.25,2.31,-101.44,17.81,11.75,4.69,6.80,2.06
61.00,1.00,261.81,-2.19,-62.75,0.88,-0.31,-0.25,6.80,2.06
61.00,2.00,259.62,-15.38,23.75,2.25,-3.88,2.19,6.80,2.06
61.00,0.00,276.81,2.44,-101.81,19.19,11.75,5.94,7.62,2.08
61.00,1.00,261.81,-2.19,-62.75,0.94,-0.69,-0.31,7.62,2.08
61.00,2.00,259.56,-15.31,23.62,3.31,-4.38,2.12,7.62,2.08
61.00,0.00,276.38,2.62,-102.19,19.88,12.75,6.69,8.46,2.10
61.00,1.00,261.81,-2.19,-62.81,1.75,-1.00,-0.50,8.46,2.10
61.00,2.00,259.50,-15.25,23.56,3.75,-4.44,2.88,8.46,2.10
61.00,0.00,275.88,2.81,-102.62,20.50,14.12,7.31,9.34,2.12
61.00,1.00,261.81,-2.19,-62.81,1.88,-0.56,-0.12,9.34,2.12
61.00,2.00,259.44,-15.19,23.44,3.50,-4.62,3.50,9.34,2.12
61.00,0.00,275.31,3.06,-103.00,20.50,16.12,7.12,10.31,2.14
61.00,1.00,261.81,-2.19,-62.88,1.81,-0.62,-0.12,10.31,2.14
61.00,2.00,259.31,-15.12,23.38,2.00,-4.75,4.31,10.31,2.14
61.00,0.00,274.75,3.25,-103.38,20.88,16.69,6.44,11.32,2.16
61.00,1.00,261.81,-2.19,-62.88,1.44,-0.50,0.44,11.32,2.16
61.00,2.00,259.25,-15.12,23.31,1.31,-4.88,4.50,11.32,2.16
61.00,0.00,274.19,3.44,-103.75,20.50,16.94,5.88,12.37,2.18
61.00,1.00,261.81,-2.19,-62.94,1.25,-0.69,0.38,12.37,2.18
61.00,2.00,259.12,-15.06,23.25,0.31,-5.69,4.50,12.37,2.18
61.00,0.00,273.62,3.62,-104.19,22.06,15.94,6.88,13.39,2.20
61.00,1.00,261.81,-2.19,-63.00,0.94,-0.56,0.38,13.39,2.20
61.00,2.00,259.00,-15.00,23.25,2.50,-4.19,4.31,13.39,2.20
61.00,0.00,273.06,3.81,-104.56,21.12,15.56,6.75,14.35,2.22
61.00,1.00,261.81,-2.19,-63.00,1.56,-0.25,1.00,14.35,2.22
61.00,2.00,258.94,-14.94,23.12,2.62,-4.00,4.62,14.35,2.22
61.00,0.00,272.56,4.00,-104.94,20.25,14.75,5.25,15.36,2.24
61.00,1.00,261.81,-2.19,-63.00,0.81,-0.19,1.12,15.36,2.24
61.00,2.00,258.81,-14.94,23.06,0.88,-4.12,5.88,15.36,2.24
61.00,0.00,272.12,4.12,-105.25,19.69,12.88,3.75,16.36,2.26
61.00,1.00,261.81,-2.19,-63.06,0.44,0.50,1.25,16.36,2.26
61.00,2.00,258.69,-14.88,23.00,0.38,-3.62,5.62,16.36,2.26
61.00,0.00,271.75,4.25,-105.62,20.12,10.94,4.00,17.39,2.28
61.00,1.00,261.75,-2.12,-63.06,0.12,0.50,1.19,17.39,2.28
61.00,2.00,258.56,-14.88,23.00,0.44,-3.56,5.00,17.39,2.28
61.00,0.00,271.44,4.31,-106.00,18.88,9.88,3.44,18.32,2.30
61.00,1.00,261.75,-2.12,-63.06,0.38,0.12,0.88,18.32,2.30
61.00,2.00,258.50,-14.81,22.94,0.88,-3.75,4.50,18.32,2.30
61.00,0.00,271.06,4.44,-106.31,18.31,9.50,3.19,19.24,2.32
61.00,1.00,261.75,-2.12,-63.06,0.00,-0.44,0.56,19.24,2.32
61.00,2.00,258.38,-14.81,22.88,0.69,-3.69,4.44,19.24,2.32
61.00,0.00,270.75,4.56,-106.69,18.81,8.62,4.31,20.21,2.34
61.00,1.00,261.75,-2.12,-63.06,0.44,-0.25,0.44,20.21,2.34
61.00,2.00,258.25,-14.75,22.88,0.19,-2.75,4.38,20.21,2.34
61.00,0.00,270.38,4.69,-107.00,17.56,9.62,4.56,21.12,2.36
61.00,1.00,261.75,-2.12,-63.06,0.25,-0.38,0.38,21.12,2.36
61.00,2.00,258.19,-14.75,22.88,0.06,-3.31,4.38,21.12,2.36
61.00,0.00,270.00,4.81,-107.31,16.31,10.19,4.69,21.95,2.38
61.00,1.00,261.75,-2.12,-63.06,0.31,0.06,0.31,21.95,2.38
61.00,2.00,258.06,-14.69,22.81,0.25,-4.00,4.12,21.95,2.38
61.00,0.00,269.56,5.00,-107.56,15.62,10.19,5.50,22.76,2.40
61.00,1.00,261.75,-2.19,-63.06,-0.31,0.00,0.06,22.76,2.40
61.00,2.00,258.00,-14.69,22.81,0.19,-3.50,3.75,22.76,2.40
61.00,0.00,269.19,5.19,-107.88,15.69,9.12,6.38,23.58,2.42
61.00,1.00,261.75,-2.19,-63.06,-0.25,0.06,0.25,23.58,2.42
61.00,2.00,257.88,-14.62,22.75,-0.12,-3.56,3.88,23.58,2.42
61.00,0.00,268.81,5.31,-108.12,14.38,8.62,6.12,24.36,2.44
61.00,1.00,261.75,-2.19,-63.06,-0.44,-0.44,0.31,24.36,2.44
61.00,2.00,257.81,-14.62,22.75,-0.69,-4.31,4.00,24.36,2.44
61.00,0.00,268.44,5.50,-108.38,14.12,7.62,6.12,25.11,2.46
61.00,1.00,261.75,-2.19,-63.06,-0.38,-0.44,0.19,25.11,2.46
61.00,2.00,257.69,-14.56,22.75,-0.25,-4.12,3.75,25.11,2.46
61.00,0.00,268.12,5.62,-108.56,13.31,6.19,5.62,25.80,2.48
61.00,1.00,261.75,-2.19,-63.06,-0.88,-0.06,0.56,25.80,2.48
61.00,2.00,257.62,-14.50,22.69,0.06,-3.25,3.19,25.80,2.48
61.00,0.00,267.88,5.75,-108.81,12.81,5.00,5.38,26.53,2.50
61.00,1.00,261.75,-2.19,-63.06,-0.62,-0.19,0.56,26.53,2.50
61.00,2.00,257.56,-14.50,22.69,-1.25,-3.56,2.88,26.53,2.50
61.00,0.00,267.62,5.88,-109.06,11.94,4.50,5.12,27.20,2.52
61.00,1.00,261.75,-2.19,-63.06,-0.38,-0.31,0.38,27.20,2.52
61.00,2.00,257.50,-14.44,22.69,-0.88,-3.69,2.81,27.20,2.52
61.00,0.00,267.38,6.00,-109.25,11.81,3.62,5.38,27.88,2.54
61.00,1.00,261.75,-2.19,-63.06,-1.00,-0.56,0.19,27.88,2.54
61.00,2.00,257.44,-14.44,22.69,-1.25,-2.81,2.50,27.88,2.54
61.00,0.00,267.12,6.12,-109.44,10.44,3.75,5.31,28.51,2.56
61.00,1.00,261.75,-2.19,-63.06,-1.25,-0.69,0.19,28.51,2.56
61.00,2.00,257.38,-14.38,22.75,-1.69,-2.62,2.62,28.51,2.56
61.00,0.00,266.88,6.25,-109.69,10.69,3.88,6.19,29.14,2.58
61.00,1.00,261.75,-2.19,-63.00,-1.38,-0.44,-0.50,29.14,2.58
61.00,2.00,257.31,-14.38,22.75,-1.50,-3.06,2.75,29.14,2.58
61.00,0.00,266.56,6.44,-109.88,12.06,3.44,8.62,29.73,2.60
61.00,1.00,261.81,-2.19,-63.00,-1.06,0.00,-0.38,29.73,2.60
61.00,2.00,257.25,-14.31,22.75,0.69,-3.00,2.06,29.73,2.60
61.00,0.00,266.19,6.62,-110.12,11.50,4.81,8.75,30.32,2.62
61.00,1.00,261.81,-2.19,-63.00,-1.00,-0.12,-0.38,30.32,2.62
61.00,2.00,257.19,-14.25,22.69,0.25,-3.31,2.19,30.32,2.62
61.00,0.00,265.88,6.81,-110.31,9.56,6.62,7.44,30.92,2.64
61.00,1.00,261.81,-2.19,-62.94,-0.88,-0.56,-0.50,30.92,2.64
61.00,2.00,257.12,-14.19,22.69,-2.12,-3.56,2.81,30.92,2.64
61.00,0.00,265.50,6.94,-110.44,10.31,5.94,7.44,31.55,2.66
61.00,1.00,261.81,-2.19,-62.94,-0.94,-0.50,-0.62,31.55,2.66
61.00,2.00,257.06,-14.19,22.75,-1.81,-2.62,2.81,31.55,2.66
61.00,0.00,265.19,7.12,-110.69,12.50,3.25,9.38,32.23,2.68
61.00,1.00,261.81,-2.19,-62.94,-1.00,0.50,0.00,32.23,2.68
61.00,2.00,257.00,-14.12,22.75,-0.56,-2.38,2.50,32.23,2.68
61.00,0.00,264.94,7.31,-110.94,12.88,1.12,10.56,32.83,2.70
61.00,1.00,261.81,-2.19,-62.94,-0.88,0.06,0.19,32.83,2.70
61.00,2.00,256.94,-14.12,22.69,1.38,-3.88,2.19,32.83,2.70
61.00,0.00,264.69,7.50,-111.19,10.44,1.50,8.06,33.30,2.72
61.00,1.00,261.81,-2.19,-62.94,0.31,0.38,0.38,33.30,2.72
61.00,2.00,256.88,-14.06,22.69,1.50,-3.81,2.38,33.30,2.72
61.00,0.00,264.50,7.62,-111.31,9.00,0.94,4.69,33.73,2.74
61.00,1.00,261.81,-2.19,-62.94,0.00,0.00,0.62,33.73,2.74
61.00,2.00,256.81,-14.00,22.62,0.75,-3.06,2.56,33.73,2.74
61.00,0.00,264.38,7.69,-111.56,11.19,-0.12,4.31,34.28,2.76
61.00,1.00,261.81,-2.19,-62.94,-0.12,-0.19,0.25,34.28,2.76
61.00,2.00,256.75,-14.00,22.62,0.44,-2.69,2.12,34.28,2.76
61.00,0.00,264.25,7.75,-111.81,13.12,-1.75,4.88,34.97,2.78
61.00,1.00,261.81,-2.19,-62.94,-0.88,0.06,-0.12,34.97,2.78
61.00,2.00,256.69,-13.94,22.56,0.00,-2.50,1.75,34.97,2.78
61.00,0.00,264.19,7.81,-112.06,14.56,-4.62,6.62,35.68,2.80
61.00,1.00,261.81,-2.19,-62.94,-0.75,0.31,-0.50,35.68,2.80
61.00,2.00,256.69,-13.94,22.56,0.75,-1.81,1.75,35.68,2.80
61.00,0.00,264.12,7.94,-112.38,14.88,-4.38,7.38,36.48,2.82
61.00,1.00,261.81,-2.19,-62.88,-0.75,-0.12,-0.56,36.48,2.82
61.00,2.00,256.62,-13.94,22.56,-0.38,-0.88,2.38,36.48,2.82
61.00,0.00,264.06,8.00,-112.69,14.56,-2.94,6.44,37.21,2.84
61.00,1.00,261.81,-2.19,-62.88,-0.38,0.25,-0.38,37.21,2.84
61.00,2.00,256.56,-13.88,22.56,0.56,-1.88,2.50,37.21,2.84
61.00,0.00,263.94,8.12,-113.00,15.12,-2.75,5.94,37.93,2.86
61.00,1.00,261.81,-2.19,-62.88,-0.25,0.25,-0.44,37.93,2.86
61.00,2.00,256.50,-13.88,22.50,1.19,-0.88,2.00,37.93,2.86
61.00,0.00,263.88,8.19,-113.25,14.62,-3.06,4.81,38.67,2.88
61.00,1.00,261.81,-2.25,-62.88,-0.44,0.38,-0.25,38.67,2.88
61.00,2.00,256.50,-13.88,22.50,0.38,-0.81,2.00,38.67,2.88
61.00,0.00,263.81,8.19,-113.56,13.69,-3.06,3.75,39.44,2.90
61.00,1.00,261.81,-2.25,-62.94,-0.31,0.12,-0.06,39.44,2.90
61.00,2.00,256.44,-13.88,22.50,-1.12,-2.00,2.75,39.44,2.90
61.00,0.00,263.75,8.25,-113.81,14.06,-3.00,4.06,40.18,2.92
61.00,1.00,261.81,-2.25,-62.94,0.06,-0.62,-0.44,40.18,2.92
61.00,2.00,256.38,-13.88,22.50,-0.06,-2.69,2.81,40.18,2.92
61.00,0.00,263.69,8.31,-114.12,14.94,-3.69,4.94,40.89,2.94
61.00,1.00,261.81,-2.25,-62.94,-0.06,0.06,-0.62,40.89,2.94
61.00,2.00,256.31,-13.81,22.44,1.25,-1.88,2.00,40.89,2.94
61.00,0.00,263.69,8.38,-114.44,14.19,-3.62,4.81,41.61,2.96
61.00,1.00,261.81,-2.25,-62.94,-0.38,0.19,-0.25,41.61,2.96
61.00,2.00,256.25,-13.81,22.44,0.31,-3.00,1.81,41.61,2.96
61.00,0.00,263.62,8.44,-114.69,13.50,-3.19,3.50,42.23,2.98
61.00,1.00,261.81,-2.25,-62.94,-0.69,0.25,-0.44,42.23,2.98
61.00,2.00,256.25,-13.75,22.38,1.56,-3.50,1.69,42.23,2.98
61.00,0.00,263.56,8.50,-115.00,15.00,-2.75,4.81,42.88,3.00
61.00,1.00,261.81,-2.25,-62.94,-0.19,0.62,-0.75,42.88,3.00
61.00,2.00,256.19,-13.69,22.31,2.44,-3.81,1.62,42.88,3.00
61.00,0.00,263.38,8.56,-115.31,15.75,-1.00,7.12,43.61,3.02
61.00,1.00,261.88,-2.31,-62.94,-0.19,0.38,-1.19,43.61,3.02
61.00,2.00,256.12,-13.62,22.25,1.88,-3.38,2.69,43.61,3.02
61.00,0.00,263.12,8.69,-115.62,14.00,1.19,6.50,44.34,3.04
61.00,1.00,261.88,-2.31,-62.94,-0.50,0.81,-1.00,44.34,3.04
61.00,2.00,256.06,-13.62,22.25,-0.06,-3.88,4.12,44.34,3.04
61.00,0.00,262.94,8.81,-115.88,12.69,2.31,4.69,45.04,3.06
61.00,1.00,261.88,-2.38,-62.94,-0.19,1.69,-0.81,45.04,3.06
61.00,2.00,255.94,-13.56,22.25,-0.81,-3.00,4.44,45.04,3.06
61.00,0.00,262.69,8.94,-116.12,15.44,0.31,6.31,45.88,3.08
61.00,1.00,261.88,-2.38,-62.94,-0.62,2.38,-0.94,45.88,3.08
61.00,2.00,255.88,-13.56,22.25,-0.69,-1.06,3.56,45.88,3.08
61.00,0.00,262.50,9.06,-116.50,18.19,-2.81,8.94,46.86,3.10
61.00,1.00,261.88,-2.44,-62.94,-0.38,2.50,-0.81,46.86,3.10
61.00,2.00,255.81,-13.62,22.19,-0.69,-0.75,3.38,46.86,3.10
61.00,0.00,262.31,9.19,-116.88,17.62,-3.12,9.81,47.77,3.12
61.00,1.00,261.81,-2.44,-62.94,-0.44,2.75,-0.56,47.77,3.12
61.00,2.00,255.75,-13.62,22.19,0.00,-1.44,3.50,47.77,3.12
61.00,0.00,262.12,9.31,-117.19,14.56,-1.31,6.31,48.54,3.14
61.00,1.00,261.81,-2.50,-62.94,-1.00,2.12,-0.50,48.54,3.14
61.00,2.00,255.69,-13.62,22.19,-0.12,-1.38,3.25,48.54,3.14
61.00,0.00,262.06,9.38,-117.44,13.19,-1.50,3.62,49.24,3.16
61.00,1.00,261.81,-2.50,-62.88,-1.25,2.12,-0.25,49.24,3.16
61.00,2.00,255.56,-13.62,22.19,-0.25,-1.38,3.12,49.24,3.16
61.00,0.00,262.00,9.38,-117.75,13.75,-2.25,3.38,49.97,3.18
61.00,1.00,261.75,-2.50,-62.88,-0.62,2.06,0.12,49.97,3.18
61.00,2.00,255.50,-13.56,22.12,-0.25,-1.94,3.12,49.97,3.18
61.00,0.00,261.94,9.44,-118.06,15.62,-4.31,4.81,50.83,3.20
61.00,1.00,261.75,-2.56,-62.88,-0.31,2.25,0.38,50.83,3.20
61.00,2.00,255.44,-13.56,22.12,-0.94,-2.75,2.69,50.83,3.20
61.00,0.00,261.88,9.50,-118.31,14.81,-4.38,5.06,51.64,3.22
61.00,1.00,261.69,-2.56,-62.88,-0.38,1.69,0.62,51.64,3.22
61.00,2.00,255.38,-13.56,22.12,-0.88,-3.25,3.06,51.64,3.22
61.00,0.00,261.81,9.50,-118.56,12.31,-2.81,3.12,52.33,3.24
61.00,1.00,261.69,-2.56,-62.88,-0.50,0.62,0.44,52.33,3.24
61.00,2.00,255.31,-13.50,22.12,-0.88,-3.38,2.62,52.33,3.24
61.00,0.00,261.75,9.56,-118.81,12.19,-1.12,3.50,53.02,3.26
61.00,1.00,261.69,-2.56,-62.88,-0.62,0.69,-0.12,53.02,3.26
61.00,2.00,255.25,-13.44,22.12,-1.19,-3.19,2.31,53.02,3.26
61.00,0.00,261.62,9.62,-119.00,11.88,0.50,3.12,53.69,3.28
61.00,1.00,261.69,-2.62,-62.88,-1.44,2.00,-0.06,53.69,3.28
61.00,2.00,255.19,-13.38,22.12,-0.94,-3.25,1.81,53.69,3.28
61.00,0.00,261.50,9.62,-119.19,10.75,1.19,3.00,54.33,3.30
61.00,1.00,261.69,-2.62,-62.81,-0.94,1.56,0.44,54.33,3.30
61.00,2.00,255.12,-13.38,22.19,-1.56,-3.88,1.94,54.33,3.30
61.00,0.00,261.31,9.69,-119.38,9.00,2.38,2.62,54.81,3.32
61.00,1.00,261.62,-2.62,-62.81,0.00,1.00,0.44,54.81,3.32
61.00,2.00,255.12,-13.31,22.19,-0.25,-3.00,2.00,54.81,3.32
61.00,0.00,261.19,9.75,-119.50,8.12,2.12,2.25,55.24,3.34
61.00,1.00,261.62,-2.62,-62.81,-0.38,0.88,0.38,55.24,3.34
61.00,2.00,255.06,-13.25,22.12,-0.12,-2.56,2.06,55.24,3.34
61.00,0.00,261.00,9.81,-119.62,6.81,2.00,1.12,55.67,3.36
61.00,1.00,261.62,-2.62,-62.81,-0.75,1.06,0.44,55.67,3.36
61.00,2.00,255.00,-13.25,22.19,-1.50,-2.38,2.75,55.67,3.36
61.00,0.00,261.00,9.81,-119.69,7.44,1.25,1.12,56.22,3.38
61.00,1.00,261.62,-2.69,-62.81,-1.19,1.19,0.31,56.22,3.38
61.00,2.00,254.94,-13.25,22.19,-3.06,-2.31,3.00,56.22,3.38
61.00,0.00,260.88,9.88,-119.81,7.94,2.00,2.94,56.76,3.40
61.00,1.00,261.62,-2.69,-62.81,-1.19,1.00,0.19,56.76,3.40
61.00,2.00,254.88,-13.19,22.25,-2.44,-2.44,2.38,56.76,3.40
61.00,0.00,260.69,9.94,-119.94,6.88,2.31,3.31,57.23,3.42
61.00,1.00,261.62,-2.69,-62.75,-1.44,0.69,0.00,57.23,3.42
61.00,2.00,254.81,-13.19,22.25,-2.19,-2.38,2.19,57.23,3.42
61.00,0.00,260.50,10.00,-120.06,7.31,2.31,4.12,57.72,3.44
61.00,1.00,261.62,-2.69,-62.75,-1.31,1.06,-0.12,57.72,3.44
61.00,2.00,254.75,-13.12,22.31,-2.19,-2.38,1.75,57.72,3.44
61.00,0.00,260.25,10.12,-120.19,7.19,3.38,5.12,58.24,3.46
61.00,1.00,261.56,-2.69,-62.75,-1.19,0.94,0.06,58.24,3.46
61.00,2.00,254.69,-13.12,22.31,-2.75,-2.75,1.69,58.24,3.46
61.00,0.00,260.06,10.25,-120.31,4.25,4.44,2.81,58.53,3.48
61.00,1.00,261.56,-2.75,-62.75,-0.44,0.06,0.12,58.53,3.48
61.00,2.00,254.62,-13.06,22.38,-1.25,-3.12,1.25,58.53,3.48
61.00,0.00,259.88,10.25,-120.31,2.94,1.88,0.12,58.75,3.50
61.00,1.00,261.62,-2.75,-62.75,-0.50,0.44,0.31,58.75,3.50
61.00,2.00,254.62,-13.00,22.38,-1.44,-2.75,1.38,58.75,3.50
61.00,0.00,259.81,10.25,-120.38,4.50,-1.06,1.62,59.07,3.52
61.00,1.00,261.56,-2.75,-62.69,-0.69,0.50,0.69,59.07,3.52
61.00,2.00,254.56,-13.00,22.38,-1.56,-2.31,0.75,59.07,3.52
61.00,0.00,259.81,10.31,-120.50,4.06,-1.25,2.12,59.33,3.54
61.00,1.00,261.56,-2.75,-62.69,-0.62,-0.50,0.69,59.33,3.54
61.00,2.00,254.56,-12.94,22.38,-0.88,-2.69,0.81,59.33,3.54
61.00,0.00,259.75,10.31,-120.56,3.56,-1.25,2.62,59.54,3.56
61.00,1.00,261.62,-2.75,-62.69,-0.31,-0.62,0.31,59.54,3.56
61.00,2.00,254.50,-12.94,22.38,-0.50,-2.19,0.69,59.54,3.56
61.00,0.00,259.75,10.38,-120.62,3.38,-1.00,2.69,59.76,3.58
61.00,1.00,261.62,-2.69,-62.69,-1.00,-1.12,0.31,59.76,3.58
61.00,2.00,254.50,-12.88,22.44,-0.88,-1.06,0.44,59.76,3.58
61.00,0.00,259.69,10.38,-120.69,3.44,0.38,3.31,59.99,3.60
61.00,1.00,261.62,-2.69,-62.69,-0.56,-0.62,0.06,59.99,3.60
61.00,2.00,254.50,-12.88,22.44,-1.00,-1.56,0.44,59.99,3.60
61.00,0.00,259.56,10.44,-120.75,3.12,0.62,2.88,60.20,3.62
61.00,1.00,261.62,-2.69,-62.69,-0.38,-0.94,-0.06,60.20,3.62
61.00,2.00,254.50,-12.81,22.44,-1.00,-1.81,0.19,60.20,3.62
61.00,0.00,259.50,10.50,-120.81,3.00,-0.31,2.31,60.39,3.64
61.00,1.00,261.62,-2.69,-62.69,-0.56,-0.69,-0.06,60.39,3.64
61.00,2.00,254.50,-12.81,22.44,-0.62,-1.12,0.00,60.39,3.64
61.00,0.00,259.44,10.56,-120.88,3.00,-1.31,2.69,60.60,3.66
61.00,1.00,261.62,-2.69,-62.69,-0.50,-0.38,0.31,60.60,3.66
61.00,2.00,254.50,-12.81,22.50,-0.94,-1.12,0.44,60.60,3.66
61.00,0.00,259.44,10.56,-120.94,2.94,-1.31,3.00,60.78,3.68
61.00,1.00,261.62,-2.69,-62.69,-0.19,-0.56,0.56,60.78,3.68
61.00,2.00,254.50,-12.75,22.50,-0.62,-1.19,0.38,60.78,3.68
61.00,0.00,259.38,10.62,-121.06,4.06,-0.94,4.62,60.96,3.70
61.00,1.00,261.62,-2.69,-62.69,-0.38,0.00,0.44,60.96,3.70
61.00,2.00,254.50,-12.75,22.50,0.56,-1.19,0.00,60.96,3.70
61.00,0.00,259.25,10.69,-121.12,3.56,0.06,4.69,61.16,3.72
61.00,1.00,261.62,-2.69,-62.69,-0.12,-0.31,0.50,61.16,3.72
61.00,2.00,254.50,-12.69,22.50,-0.25,-2.06,0.56,61.16,3.72
61.00,0.00,259.12,10.75,-121.12,1.06,1.94,2.25,61.28,3.74
61.00,1.00,261.62,-2.69,-62.69,-0.50,-0.44,0.88,61.28,3.74
61.00,2.00,254.44,-12.69,22.50,-1.19,-2.56,0.75,61.28,3.74
61.00,0.00,259.12,10.75,-121.12,1.38,-0.31,0.38,61.40,3.76
61.00,1.00,261.62,-2.69,-62.69,-0.31,-0.44,0.69,61.40,3.76
61.00,2.00,254.44,-12.62,22.50,-1.00,-2.44,0.56,61.40,3.76
61.00,0.00,259.06,10.81,-121.19,3.81,-1.56,2.62,61.62,3.78
61.00,1.00,261.62,-2.69,-62.69,-0.56,-0.31,0.81,61.62,3.78
61.00,2.00,254.44,-12.56,22.50,-0.38,-1.81,0.12,61.62,3.78
61.00,0.00,259.00,10.81,-121.31,4.25,-0.88,3.62,61.88,3.80
61.00,1.00,261.56,-2.69,-62.69,-0.44,-0.06,0.56,61.88,3.80
61.00,2.00,254.44,-12.56,22.50,-0.69,-1.88,0.44,61.88,3.80
61.00,0.00,258.88,10.88,-121.38,2.88,1.69,3.00,62.03,3.82
61.00,1.00,261.56,-2.69,-62.69,-0.62,-0.12,0.88,62.03,3.82
61.00,2.00,254.38,-12.50,22.50,0.00,-1.62,0.69,62.03,3.82
61.00,0.00,258.75,10.94,-121.38,1.44,3.56,0.75,62.13,3.84
61.00,1.00,261.56,-2.62,-62.69,-0.62,-0.56,0.75,62.13,3.84
61.00,2.00,254.38,-12.50,22.50,-0.56,-1.38,1.06,62.13,3.84
61.00,0.00,258.69,11.00,-121.44,3.81,0.62,1.12,62.38,3.86
61.00,1.00,261.56,-2.62,-62.69,-0.44,-0.44,0.31,62.38,3.86
61.00,2.00,254.31,-12.50,22.50,-1.06,-0.75,0.88,62.38,3.86
61.00,0.00,258.56,11.00,-121.56,5.44,-0.50,2.88,62.71,3.88
61.00,1.00,261.56,-2.62,-62.69,-0.62,0.56,0.50,62.71,3.88
61.00,2.00,254.31,-12.50,22.56,-0.75,-0.69,0.50,62.71,3.88
61.00,0.00,258.50,11.06,-121.62,4.12,0.31,2.31,63.01,3.90
61.00,1.00,261.56,-2.62,-62.69,-0.69,0.62,0.88,63.01,3.90
61.00,2.00,254.31,-12.50,22.56,-1.75,-1.81,0.94,63.01,3.90
61.00,0.00,258.44,11.06,-121.69,3.12,0.12,1.25,63.18,3.92
61.00,1.00,261.56,-2.62,-62.69,-0.31,-0.50,0.88,63.18,3.92
61.00,2.00,254.31,-12.44,22.56,-0.12,-2.00,0.94,63.18,3.92
61.00,0.00,258.38,11.12,-121.81,5.12,-0.06,2.38,63.40,3.94
61.00,1.00,261.50,-2.62,-62.69,-0.06,-0.38,0.50,63.40,3.94
61.00,2.00,254.25,-12.44,22.56,0.81,-2.12,0.62,63.40,3.94
61.00,0.00,258.25,11.19,-121.88,4.88,1.81,2.38,63.65,3.96
61.00,1.00,261.50,-2.62,-62.69,0.31,-0.19,0.81,63.65,3.96
61.00,2.00,254.25,-12.38,22.56,0.06,-2.75,1.12,63.65,3.96
61.00,0.00,258.12,11.19,-121.94,2.44,2.12,-0.94,63.81,3.98
61.00,1.00,261.50,-2.62,-62.69,-0.12,-0.25,0.88,63.81,3.98
61.00,2.00,254.19,-12.31,22.50,-0.50,-2.69,1.44,63.81,3.98
61.00,0.00,258.12,11.19,-122.00,4.00,0.25,-0.94,64.04,4.00
61.00,1.00,261.50,-2.62,-62.69,-0.12,0.00,0.56,64.04,4.00
61.00,2.00,254.19,-12.31,22.50,-0.44,-1.88,1.00,64.04,4.00
61.00,0.00,258.06,11.19,-122.12,7.06,-1.00,2.19,64.43,4.02
61.00,1.00,261.50,-2.62,-62.69,-0.38,0.06,0.31,64.43,4.02
61.00,2.00,254.12,-12.25,22.50,-0.50,-1.88,0.81,64.43,4.02
61.00,0.00,257.94,11.25,-122.31,7.31,-0.44,4.56,64.85,4.04
61.00,1.00,261.50,-2.62,-62.69,0.12,0.62,0.56,64.85,4.04
61.00,2.00,254.12,-12.25,22.50,-0.81,-1.81,1.50,64.85,4.04
61.00,0.00,257.75,11.31,-122.44,6.38,1.50,4.38,65.20,4.06
61.00,1.00,261.50,-2.62,-62.69,0.25,0.69,0.62,65.20,4.06
61.00,2.00,254.06,-12.25,22.50,-0.31,-2.00,1.62,65.20,4.06
61.00,0.00,257.56,11.44,-122.50,5.38,3.62,2.94,65.47,4.08
61.00,1.00,261.50,-2.62,-62.69,0.19,0.62,0.38,65.47,4.08
61.00,2.00,254.06,-12.19,22.50,0.12,-2.38,1.62,65.47,4.08
61.00,0.00,257.38,11.50,-122.62,4.00,3.25,0.81,65.67,4.10
61.00,1.00,261.44,-2.62,-62.69,0.31,0.75,0.50,65.67,4.10
61.00,2.00,254.00,-12.19,22.50,0.19,-2.62,1.25,65.67,4.10
61.00,0.00,257.31,11.50,-122.69,3.75,1.19,-0.88,65.92,4.12
61.00,1.00,261.44,-2.62,-62.69,-0.12,1.00,0.44,65.92,4.12
61.00,2.00,253.94,-12.12,22.50,-0.94,-3.31,1.75,65.92,4.12
61.00,0.00,257.25,11.50,-122.75,6.75,-1.06,1.38,66.28,4.14
61.00,1.00,261.44,-2.62,-62.69,0.12,0.19,0.38,66.28,4.14
61.00,2.00,253.94,-12.06,22.50,-0.25,-2.25,1.31,66.28,4.14
61.00,0.00,257.12,11.56,-122.94,7.75,0.44,3.94,66.67,4.16
61.00,1.00,261.44,-2.62,-62.69,0.38,0.00,0.19,66.67,4.16
61.00,2.00,253.88,-12.06,22.50,0.25,-2.25,0.94,66.67,4.16
61.00,0.00,256.94,11.62,-123.06,5.25,2.81,2.69,66.94,4.18
61.00,1.00,261.44,-2.62,-62.69,0.00,-0.12,0.38,66.94,4.18
61.00,2.00,253.88,-12.00,22.50,0.06,-2.19,1.06,66.94,4.18
61.00,0.00,256.75,11.69,-123.12,3.69,3.62,1.19,67.10,4.20
61.00,1.00,261.44,-2.62,-62.69,0.00,-0.12,0.19,67.10,4.20
61.00,2.00,253.81,-12.00,22.44,0.62,-1.62,0.69,67.10,4.20
61.00,0.00,256.69,11.69,-123.12,2.62,2.88,-1.31,67.18,4.22
61.00,1.00,261.44,-2.62,-62.69,0.38,0.00,0.12,67.18,4.22
61.00,2.00,253.81,-11.94,22.44,1.00,-1.81,0.62,67.18,4.22
61.00,0.00,256.69,11.69,-123.19,4.00,-0.44,-0.69,67.38,4.24
61.00,1.00,261.44,-2.62,-62.69,-0.31,0.25,0.25,67.38,4.24
61.00,2.00,253.81,-11.94,22.44,0.25,-1.69,1.00,67.38,4.24
61.00,0.00,256.69,11.69,-123.31,5.19,-1.25,1.75,67.69,4.26
61.00,1.00,261.44,-2.62,-62.69,-0.44,-0.19,0.44,67.69,4.26
61.00,2.00,253.75,-11.94,22.44,-0.75,-1.38,0.88,67.69,4.26
61.00,0.00,256.62,11.69,-123.31,2.69,1.12,0.62,67.84,4.28
61.00,1.00,261.44,-2.62,-62.69,-0.19,-0.19,0.12,67.84,4.28
61.00,2.00,253.75,-11.88,22.44,-0.31,-1.81,1.19,67.84,4.28
61.00,0.00,256.50,11.75,-123.38,1.44,2.12,-0.50,67.88,4.30
61.00,1.00,261.44,-2.62,-62.69,-0.31,-0.19,0.00,67.88,4.30
61.00,2.00,253.69,-11.88,22.44,0.69,-1.94,1.19,67.88,4.30
61.00,0.00,256.44,11.75,-123.38,2.94,1.81,-0.25,68.01,4.32
61.00,1.00,261.44,-2.62,-62.69,-0.19,0.25,0.12,68.01,4.32
61.00,2.00,253.69,-11.88,22.44,0.44,-1.69,1.31,68.01,4.32
61.00,0.00,256.31,11.75,-123.50,4.31,1.06,1.56,68.26,4.34
61.00,1.00,261.44,-2.62,-62.69,0.12,0.12,0.25,68.26,4.34
61.00,2.00,253.62,-11.81,22.38,-0.38,-1.81,1.19,68.26,4.34
61.00,0.00,256.19,11.81,-123.56,4.12,2.00,1.94,68.48,4.36
61.00,1.00,261.44,-2.62,-62.69,0.06,-0.19,0.44,68.48,4.36
61.00,2.00,253.62,-11.81,22.38,-0.25,-1.88,0.94,68.48,4.36
61.00,0.00,256.06,11.88,-123.62,2.75,2.62,1.75,68.62,4.38
61.00,1.00,261.44,-2.62,-62.69,-0.25,0.06,0.44,68.62,4.38
61.00,2.00,253.62,-11.75,22.38,0.19,-1.62,0.75,68.62,4.38
61.00,0.00,255.94,11.88,-123.62,1.31,2.62,-0.75,68.69,4.40
61.00,1.00,261.44,-2.62,-62.69,-0.38,-0.12,0.25,68.69,4.40
61.00,2.00,253.56,-11.75,22.38,-0.12,-1.50,0.69,68.69,4.40
61.00,0.00,255.94,11.88,-123.69,3.31,-0.06,-0.19,68.85,4.42
61.00,1.00,261.44,-2.62,-62.69,0.00,0.31,0.06,68.85,4.42
61.00,2.00,253.56,-11.75,22.38,0.19,-1.00,0.81,68.85,4.42
61.00,0.00,255.81,11.94,-123.81,5.62,-0.19,2.69,69.14,4.44
61.00,1.00,261.44,-2.62,-62.69,0.19,0.44,0.44,69.14,4.44
61.00,2.00,253.56,-11.69,22.38,0.06,-1.38,0.56,69.14,4.44
61.00,0.00,255.69,12.00,-123.88,5.12,1.38,3.50,69.41,4.46
61.00,1.00,261.44,-2.62,-62.69,0.06,-0.25,0.69,69.41,4.46
61.00,2.00,253.50,-11.69,22.38,0.06,-1.94,1.06,69.41,4.46
61.00,0.00,255.56,12.06,-124.00,3.56,1.50,2.81,69.63,4.48
61.00,1.00,261.44,-2.62,-62.69,-0.12,-0.12,0.50,69.63,4.48
61.00,2.00,253.50,-11.69,22.38,-0.69,-0.94,0.75,69.63,4.48
61.00,0.00,255.44,12.12,-124.06,3.56,1.25,1.94,69.84,4.50
61.00,1.00,261.44,-2.62,-62.69,-0.06,0.31,0.00,69.84,4.50
61.00,2.00,253.50,-11.69,22.38,-0.56,-0.81,0.25,69.84,4.50
61.00,0.00,255.38,12.12,-124.12,3.94,0.00,1.12,70.01,4.52
61.00,1.00,261.44,-2.62,-62.69,0.06,0.50,0.38,70.01,4.52
61.00,2.00,253.50,-11.62,22.38,0.62,-1.69,-0.25,70.01,4.52
61.00,0.00,255.38,12.12,-124.19,4.94,-2.31,2.25,70.23,4.54
61.00,1.00,261.44,-2.62,-62.69,0.50,-0.56,0.25,70.23,4.54
61.00,2.00,253.50,-11.56,22.38,0.88,-2.38,0.12,70.23,4.54
61.00,0.00,255.31,12.19,-124.31,2.25,-0.69,1.94,70.31,4.56
61.00,1.00,261.44,-2.62,-62.69,0.12,-0.31,0.62,70.31,4.56
61.00,2.00,253.50,-11.56,22.31,0.69,-2.12,0.69,70.31,4.56
61.00,0.00,255.31,12.19,-124.31,1.00,0.12,0.19,70.31,4.58
61.00,1.00,261.44,-2.62,-62.69,0.31,-0.38,0.44,70.31,4.58
61.00,2.00,253.44,-11.50,22.31,0.94,-2.38,1.00,70.31,4.58
61.00,0.00,255.25,12.19,-124.38,3.12,-0.50,1.31,70.38,4.60
61.00,1.00,261.44,-2.62,-62.75,0.62,0.31,0.31,70.38,4.60
61.00,2.00,253.44,-11.50,22.25,1.88,-2.19,0.69,70.38,4.60
61.00,0.00,255.19,12.25,-124.44,4.94,-0.06,2.81,70.55,4.62
61.00,1.00,261.44,-2.62,-62.75,0.75,0.56,0.38,70.55,4.62
61.00,2.00,253.38,-11.44,22.25,1.56,-2.25,0.69,70.55,4.62
61.00,0.00,255.00,12.31,-124.56,4.56,1.06,3.62,70.81,4.64
61.00,1.00,261.44,-2.62,-62.75,0.00,-0.06,0.56,70.81,4.64
61.00,2.00,253.38,-11.44,22.25,-0.38,-1.88,1.19,70.81,4.64
61.00,0.00,254.81,12.38,-124.62,4.06,3.19,3.81,71.03,4.66
61.00,1.00,261.44,-2.62,-62.75,0.31,-0.31,0.38,71.03,4.66
61.00,2.00,253.38,-11.38,22.25,-0.19,-1.94,1.12,71.03,4.66
61.00,0.00,254.56,12.50,-124.69,3.75,3.94,3.31,71.17,4.68
61.00,1.00,261.44,-2.62,-62.75,0.88,0.62,0.31,71.17,4.68
61.00,2.00,253.31,-11.38,22.19,1.12,-2.31,1.12,71.17,4.68
61.00,0.00,254.38,12.56,-124.75,4.25,2.44,3.06,71.31,4.70
61.00,1.00,261.44,-2.62,-62.75,0.69,0.62,0.56,71.31,4.70
61.00,2.00,253.31,-11.31,22.19,1.50,-2.81,1.06,71.31,4.70
61.00,0.00,254.19,12.62,-124.88,5.19,1.06,4.00,71.56,4.72
61.00,1.00,261.44,-2.62,-62.75,0.44,0.19,0.50,71.56,4.72
61.00,2.00,253.25,-11.31,22.12,0.44,-3.06,1.19,71.56,4.72
61.00,0.00,254.06,12.69,-125.00,5.81,1.19,4.19,71.82,4.74
61.00,1.00,261.44,-2.62,-62.75,0.31,-0.06,0.56,71.82,4.74
61.00,2.00,253.25,-11.25,22.12,0.75,-3.31,0.81,71.82,4.74
61.00,0.00,253.88,12.81,-125.12,6.12,1.19,3.81,72.04,4.76
61.00,1.00,261.44,-2.62,-62.75,0.44,-0.44,0.31,72.04,4.76
61.00,2.00,253.25,-11.19,22.12,1.94,-3.06,0.19,72.04,4.76
61.00,0.00,253.75,12.88,-125.25,6.56,0.50,3.81,72.29,4.78
61.00,1.00,261.44,-2.62,-62.81,0.75,-0.94,0.38,72.29,4.78
61.00,2.00,253.19,-11.12,22.06,1.62,-2.56,-0.06,72.29,4.78
61.00,0.00,253.56,12.94,-125.38,6.56,1.25,3.12,72.58,4.80
61.00,1.00,261.44,-2.62,-62.81,0.81,-0.94,0.12,72.58,4.80
61.00,2.00,253.19,-11.06,22.00,1.12,-2.81,0.31,72.58,4.80
61.00,0.00,253.44,12.94,-125.50,6.50,1.19,2.31,72.84,4.82
61.00,1.00,261.44,-2.62,-62.81,1.38,-1.06,-0.06,72.84,4.82
61.00,2.00,253.19,-11.00,22.00,1.38,-2.56,-0.44,72.84,4.82
61.00,0.00,253.38,13.00,-125.62,6.81,0.00,2.31,73.13,4.84
61.00,1.00,261.44,-2.56,-62.88,1.44,-1.31,-0.19,73.13,4.84
61.00,2.00,253.19,-11.00,22.00,1.25,-1.94,-0.56,73.13,4.84
61.00,0.00,253.25,13.00,-125.75,7.62,-0.19,3.44,73.46,4.86
61.00,1.00,261.50,-2.56,-62.88,0.94,-1.38,-0.19,73.46,4.86
61.00,2.00,253.19,-10.94,21.94,1.25,-1.38,-0.88,73.46,4.86
61.00,0.00,253.12,13.06,-125.88,6.75,0.94,2.62,73.75,4.88
61.00,1.00,261.50,-2.56,-62.88,1.06,-1.81,-0.38,73.75,4.88
61.00,2.00,253.19,-10.94,21.94,1.31,-2.06,-0.94,73.75,4.88
61.00,0.00,253.00,13.06,-126.00,5.81,1.06,1.69,73.99,4.90
61.00,1.00,261.50,-2.56,-62.88,0.88,-2.00,-0.56,73.99,4.90
61.00,2.00,253.25,-10.88,21.88,1.06,-1.75,-0.81,73.99,4.90
61.00,0.00,252.88,13.12,-126.06,4.19,1.00,0.69,74.16,4.92
61.00,1.00,261.56,-2.50,-62.88,0.69,-1.88,-0.38,74.16,4.92
61.00,2.00,253.25,-10.81,21.88,1.06,-1.75,-0.44,74.16,4.92
61.00,0.00,252.81,13.12,-126.12,3.00,1.00,-0.44,74.26,4.94
61.00,1.00,261.56,-2.50,-62.94,0.62,-2.19,-0.56,74.26,4.94
61.00,2.00,253.25,-10.81,21.88,0.94,-2.12,-0.56,74.26,4.94
61.00,0.00,252.81,13.12,-126.12,3.06,-0.25,-1.00,74.35,4.96
61.00,1.00,261.62,-2.50,-62.94,0.94,-1.75,-0.38,74.35,4.96
61.00,2.00,253.25,-10.75,21.81,1.38,-1.19,-0.69,74.35,4.96
61.00,0.00,252.81,13.12,-126.25,4.69,-1.50,1.19,74.53,4.98
61.00,1.00,261.62,-2.50,-62.94,0.81,-1.75,-0.62,74.53,4.98
61.00,2.00,253.25,-10.75,21.81,1.31,-0.69,-0.75,74.53,4.98
61.00,0.00,252.69,13.12,-126.38,5.44,0.69,3.62,74.74,5.00
61.00,1.00,261.62,-2.50,-62.94,0.88,-1.50,-0.44,74.74,5.00
61.00,2.00,253.25,-10.75,21.81,1.38,-1.38,-0.38,74.74,5.00
61.00,0.00,252.50,13.25,-126.44,2.44,3.00,2.50,74.82,5.02
61.00,1.00,261.69,-2.44,-63.00,0.81,-1.50,-0.50,74.82,5.02
61.00,2.00,253.25,-10.69,21.75,0.81,-2.19,-0.31,74.82,5.02
61.00,0.00,252.38,13.25,-126.44,2.56,1.75,1.19,74.93,5.04
61.00,1.00,261.69,-2.44,-63.00,0.94,-1.50,-0.38,74.93,5.04
61.00,2.00,253.25,-10.62,21.75,0.56,-1.50,-0.62,74.93,5.04
61.00,0.00,252.25,13.31,-126.50,4.12,1.44,2.75,75.10,5.06
61.00,1.00,261.69,-2.44,-63.00,0.75,-1.31,-0.31,75.10,5.06
61.00,2.00,253.25,-10.62,21.75,0.81,-1.94,-1.50,75.10,5.06
61.00,0.00,252.19,13.38,-126.56,4.38,1.81,2.75,75.30,5.08
61.00,1.00,261.69,-2.44,-63.00,0.94,-1.25,-0.50,75.30,5.08
61.00,2.00,253.31,-10.56,21.75,0.50,-2.62,-1.69,75.30,5.08
61.00,0.00,252.00,13.44,-126.62,4.06,1.31,3.00,75.47,5.10
61.00,1.00,261.75,-2.38,-63.06,1.31,-2.00,0.06,75.47,5.10
61.00,2.00,253.31,-10.50,21.75,0.81,-2.25,-1.50,75.47,5.10
61.00,0.00,251.88,13.50,-126.75,4.12,1.19,3.12,75.64,5.12
61.00,1.00,261.75,-2.38,-63.06,1.50,-3.56,0.25,75.64,5.12
61.00,2.00,253.38,-10.44,21.75,0.75,-2.00,-2.31,75.64,5.12
61.00,0.00,251.75,13.56,-126.81,4.06,1.62,3.50,75.79,5.14
61.00,1.00,261.81,-2.38,-63.12,1.62,-3.38,-0.12,75.79,5.14
61.00,2.00,253.38,-10.38,21.69,1.25,-2.06,-2.81,75.79,5.14
61.00,0.00,251.56,13.62,-126.88,4.31,0.50,3.38,75.87,5.16
61.00,1.00,261.88,-2.31,-63.12,1.56,-2.81,-0.25,75.87,5.16
61.00,2.00,253.44,-10.31,21.69,2.69,-1.88,-2.69,75.87,5.16
61.00,0.00,251.50,13.62,-127.00,4.19,-0.75,3.56,75.95,5.18
61.00,1.00,261.88,-2.31,-63.12,1.38,-2.88,0.50,75.95,5.18
61.00,2.00,253.50,-10.25,21.62,2.81,-3.00,-2.62,75.95,5.18
61.00,0.00,251.38,13.69,-127.06,4.00,-0.38,3.81,75.99,5.20
61.00,1.00,261.94,-2.25,-63.19,2.62,-3.75,1.00,75.99,5.20
61.00,2.00,253.56,-10.19,21.56,3.06,-2.94,-2.56,75.99,5.20
61.00,0.00,251.25,13.75,-127.19,3.81,0.56,3.50,76.01,5.22
61.00,1.00,261.94,-2.19,-63.25,3.00,-3.88,1.06,76.01,5.22
61.00,2.00,253.56,-10.12,21.50,3.56,-3.56,-2.06,76.01,5.22
61.00,0.00,251.12,13.81,-127.25,4.81,1.31,3.75,76.06,5.24
61.00,1.00,262.00,-2.19,-63.31,3.00,-3.50,0.62,76.06,5.24
61.00,2.00,253.62,-10.06,21.44,3.75,-3.19,-1.88,76.06,5.24
61.00,0.00,250.94,13.88,-127.38,6.06,1.44,4.19,76.16,5.26
61.00,1.00,262.00,-2.12,-63.38,3.00,-2.69,0.75,76.16,5.26
61.00,2.00,253.62,-10.00,21.38,4.12,-3.12,-1.94,76.16,5.26
61.00,0.00,250.69,14.00,-127.50,6.81,1.75,5.00,76.28,5.28
61.00,1.00,262.00,-2.12,-63.44,2.94,-2.19,0.81,76.28,5.28
61.00,2.00,253.69,-9.88,21.25,4.56,-3.56,-1.75,76.28,5.28
61.00,0.00,250.44,14.12,-127.62,6.06,1.69,5.00,76.38,5.30
61.00,1.00,262.00,-2.06,-63.50,3.06,-2.06,1.06,76.38,5.30
61.00,2.00,253.69,-9.81,21.19,4.12,-3.56,-0.88,76.38,5.30
61.00,0.00,250.25,14.19,-127.75,5.06,1.56,4.06,76.41,5.32
61.00,1.00,262.00,-2.00,-63.56,2.81,-1.31,1.62,76.41,5.32
61.00,2.00,253.69,-9.75,21.12,4.50,-3.81,-0.19,76.41,5.32
61.00,0.00,250.06,14.25,-127.88,5.56,0.62,4.19,76.47,5.34
61.00,1.00,262.00,-2.00,-63.62,2.75,-0.88,2.06,76.47,5.34
61.00,2.00,253.69,-9.69,21.00,4.44,-3.94,0.12,76.47,5.34
61.00,0.00,249.88,14.38,-128.00,6.06,1.44,6.12,76.61,5.36
61.00,1.00,261.94,-1.94,-63.69,2.56,-0.50,1.88,76.61,5.36
61.00,2.00,253.62,-9.62,20.94,3.44,-3.56,1.25,76.61,5.36
61.00,0.00,249.56,14.50,-128.12,5.38,2.94,6.06,76.70,5.38
61.00,1.00,261.94,-1.94,-63.75,2.81,1.00,1.69,76.70,5.38
61.00,2.00,253.62,-9.56,20.81,3.62,-3.38,1.69,76.70,5.38
61.00,0.00,249.25,14.62,-128.25,4.69,5.44,5.38,76.74,5.40
61.00,1.00,261.88,-1.88,-63.81,1.69,1.75,1.25,76.74,5.40
61.00,2.00,253.56,-9.50,20.75,3.94,-3.81,2.50,76.74,5.40
61.00,0.00,248.88,14.75,-128.38,4.88,5.00,5.69,76.80,5.42
61.00,1.00,261.81,-1.88,-63.88,0.62,2.25,1.31,76.80,5.42
61.00,2.00,253.50,-9.44,20.62,3.56,-3.81,2.56,76.80,5.42
61.00,0.00,248.50,14.94,-128.44,4.62,4.69,5.88,76.91,5.44
61.00,1.00,261.75,-1.88,-63.94,0.75,2.44,1.12,76.91,5.44
61.00,2.00,253.44,-9.44,20.56,2.50,-3.69,3.12,76.91,5.44
61.00,0.00,248.19,15.06,-128.56,4.62,5.06,5.94,77.04,5.46
61.00,1.00,261.69,-1.88,-63.94,-0.31,2.88,0.88,77.04,5.46
61.00,2.00,253.38,-9.38,20.50,2.25,-3.19,3.44,77.04,5.48
61.00,0.00,247.88,15.19,-128.62,4.38,3.25,5.25,77.18,5.48
61.00,1.00,261.62,-1.88,-64.00,-0.75,3.31,0.69,77.18,5.48
61.00,2.00,253.31,-9.38,20.44,1.69,-2.50,3.56,77.18,5.48
61.00,0.00,247.75,15.25,-128.75,4.56,1.25,4.56,77.34,5.50
61.00,1.00,261.62,-1.94,-64.00,-0.88,3.38,0.56,77.34,5.50
61.00,2.00,253.19,-9.31,20.38,1.50,-2.56,3.75,77.34,5.50
61.00,0.00,247.62,15.31,-128.88,4.44,0.12,3.75,77.52,5.52
61.00,1.00,261.56,-1.94,-64.00,-1.44,3.12,0.44,77.52,5.52
61.00,2.00,253.12,-9.31,20.38,1.00,-2.69,3.94,77.52,5.52
61.00,0.00,247.50,15.31,-128.94,4.38,-0.12,3.19,77.68,5.54
61.00,1.00,261.50,-2.00,-63.94,-2.12,3.19,0.31,77.68,5.54
61.00,2.00,253.06,-9.31,20.31,1.12,-2.50,4.12,77.68,5.54
61.00,0.00,247.44,15.38,-129.06,3.44,-0.75,2.25,77.83,5.56
61.00,1.00,261.50,-2.00,-63.94,-2.94,3.06,0.12,77.83,5.56
61.00,2.00,252.94,-9.25,20.31,0.69,-2.69,4.31,77.83,5.58
61.00,0.00,247.38,15.38,-129.12,2.94,-1.31,1.81,77.99,5.58
61.00,1.00,261.44,-2.06,-63.88,-3.69,3.31,-0.12,77.99,5.58
61.00,2.00,252.88,-9.25,20.25,-0.25,-1.88,4.31,77.99,5.58
61.00,0.00,247.38,15.38,-129.19,2.88,-1.88,1.38,78.19,5.60
61.00,1.00,261.38,-2.06,-63.81,-3.50,3.94,-0.06,78.19,5.60
61.00,2.00,252.75,-9.25,20.25,-0.88,-0.94,4.44,78.19,5.60
61.00,0.00,247.38,15.38,-129.31,4.19,-1.56,3.00,78.50,5.62
61.00,1.00,261.31,-2.12,-63.75,-4.06,3.69,-0.06,78.50,5.62
61.00,2.00,252.69,-9.25,20.25,-1.75,-0.75,4.56,78.50,5.62
61.00,0.00,247.31,15.44,-129.38,3.06,-0.31,1.88,78.79,5.64
61.00,1.00,261.31,-2.12,-63.69,-3.81,4.12,-0.19,78.79,5.64
61.00,2.00,252.56,-9.31,20.31,-2.62,-0.81,4.81,78.79,5.64
61.00,0.00,247.25,15.44,-129.44,2.44,0.06,1.25,79.00,5.66
61.00,1.00,261.25,-2.19,-63.62,-3.31,3.56,-0.38,79.00,5.66
61.00,2.00,252.50,-9.31,20.31,-1.56,-0.69,4.75,79.00,5.66
61.00,0.00,247.19,15.44,-129.44,2.44,-0.81,0.81,79.17,5.68
61.00,1.00,261.19,-2.19,-63.56,-3.25,4.06,-0.62,79.17,5.68
61.00,2.00,252.38,-9.38,20.38,-0.75,-0.50,4.38,79.17,5.68
61.00,0.00,247.19,15.44,-129.56,4.00,-2.12,2.06,79.45,5.70
61.00,1.00,261.12,-2.25,-63.50,-3.00,4.50,-0.69,79.45,5.70
61.00,2.00,252.31,-9.38,20.38,-1.50,-0.31,4.12,79.45,5.70
61.00,0.00,247.12,15.50,-129.62,3.69,0.06,2.44,79.69,5.72
61.00,1.00,261.12,-2.31,-63.44,-2.44,4.62,-0.50,79.69,5.72
61.00,2.00,252.25,-9.38,20.38,-0.81,-0.12,4.44,79.69,5.72
61.00,0.00,247.06,15.50,-129.69,2.38,-0.44,0.06,79.84,5.74
61.00,1.00,261.06,-2.31,-63.44,-2.69,3.62,-0.62,79.84,5.74
61.00,2.00,252.12,-9.44,20.38,-0.56,-1.19,4.81,79.84,5.74
61.00,0.00,247.06,15.44,-129.75,3.62,-2.06,0.50,80.13,5.76
61.00,1.00,261.00,-2.38,-63.38,-3.06,3.56,-0.75,80.13,5.76
61.00,2.00,252.00,-9.44,20.38,-1.94,-1.06,4.44,80.13,5.76
61.00,0.00,247.06,15.50,-129.88,5.19,-0.88,2.00,80.51,5.78
61.00,1.00,261.00,-2.44,-63.31,-3.38,4.19,-1.06,80.51,5.78
61.00,2.00,251.94,-9.44,20.44,-2.19,-0.38,4.38,80.51,5.78
61.00,0.00,246.94,15.50,-129.94,4.44,0.56,0.62,80.75,5.80
61.00,1.00,261.00,-2.50,-63.25,-3.25,3.81,-1.00,80.75,5.80
61.00,2.00,251.88,-9.50,20.50,-0.19,0.00,3.50,80.75,5.80
61.00,0.00,246.94,15.50,-130.00,2.44,-0.50,-1.25,80.86,5.82
61.00,1.00,260.94,-2.56,-63.19,-2.81,2.94,-0.44,80.86,5.82
61.00,2.00,251.81,-9.50,20.50,0.38,-0.25,3.31,80.86,5.82
61.00,0.00,247.00,15.44,-130.00,1.75,-1.12,-1.94,80.92,5.84
61.00,1.00,260.94,-2.56,-63.12,-1.81,2.62,-0.19,80.92,5.84
61.00,2.00,251.75,-9.56,20.50,0.62,-0.81,3.44,80.92,5.84
61.00,0.00,247.00,15.44,-130.06,3.31,-1.25,-0.62,81.02,5.86
61.00,1.00,260.88,-2.56,-63.06,-1.62,2.44,-0.25,81.02,5.86
61.00,2.00,251.69,-9.56,20.50,1.44,-1.38,3.56,81.02,5.86
61.00,0.00,246.94,15.44,-130.19,4.06,0.25,1.12,81.17,5.88
61.00,1.00,260.88,-2.62,-63.06,-1.69,2.69,-0.31,81.17,5.88
61.00,2.00,251.62,-9.56,20.44,1.19,-0.56,3.25,81.17,5.88
61.00,0.00,246.88,15.44,-130.19,2.00,1.81,-0.50,81.29,5.90
61.00,1.00,260.81,-2.62,-63.00,-2.31,2.62,0.00,81.29,5.90
61.00,2.00,251.50,-9.56,20.44,-0.44,-0.69,3.50,81.29,5.90
61.00,0.00,246.81,15.44,-130.19,2.06,1.50,-1.12,81.49,5.92
61.00,1.00,260.81,-2.69,-63.00,-2.38,1.62,-0.19,81.49,5.92
61.00,2.00,251.44,-9.56,20.44,-1.81,-1.31,3.19,81.49,5.92
61.00,0.00,246.69,15.50,-130.19,2.94,2.06,-0.38,81.73,5.94
61.00,1.00,260.81,-2.69,-62.94,-1.69,1.19,-0.38,81.73,5.94
61.00,2.00,251.38,-9.56,20.50,-1.69,-2.19,2.44,81.73,5.94
61.00,0.00,246.62,15.50,-130.19,1.62,2.38,0.06,81.83,5.96
61.00,1.00,260.81,-2.69,-62.88,-1.06,1.25,0.00,81.83,5.96
61.00,2.00,251.38,-9.50,20.50,-0.31,-2.94,1.75,81.83,5.96
61.00,0.00,246.56,15.50,-130.19,1.19,0.88,0.06,81.98,5.98
61.00,1.00,260.75,-2.75,-62.88,-1.12,0.88,-0.06,81.98,5.98
61.00,2.00,251.31,-9.50,20.50,-1.56,-3.00,1.44,81.98,5.98
61.00,0.00,246.44,15.56,-130.19,1.50,3.25,1.81,82.17,6.00
61.00,1.00,260.81,-2.75,-62.88,-0.62,-0.12,0.12,82.17,6.00
61.00,2.00,251.25,-9.50,20.62,-2.12,-2.88,0.94,82.17,6.00
61.00,0.00,246.19,15.62,-130.19,0.06,6.06,1.12,82.24,6.02
61.00,1.00,260.81,-2.75,-62.81,-0.62,-0.75,-0.38,82.24,6.02
61.00,2.00,251.25,-9.44,20.69,-1.38,-3.31,0.19,82.24,6.02
61.00,0.00,246.06,15.69,-130.12,0.31,4.25,0.94,82.26,6.04
61.00,1.00,260.88,-2.81,-62.81,-0.56,-1.44,-0.75,82.26,6.04
61.00,2.00,251.25,-9.38,20.69,-0.06,-2.38,-0.56,82.26,6.04
61.00,0.00,245.94,15.75,-130.06,0.62,3.31,0.81,82.31,6.06
61.00,1.00,260.88,-2.81,-62.81,-0.44,-2.25,-0.81,82.31,6.06
61.00,2.00,251.25,-9.38,20.69,-0.31,-1.50,-1.56,82.31,6.06
61.00,0.00,245.81,15.75,-130.06,1.00,3.06,0.38,82.37,6.08
61.00,1.00,260.94,-2.81,-62.81,-0.44,-2.25,-0.94,82.37,6.08
61.00,2.00,251.31,-9.38,20.75,-0.25,-0.94,-2.00,82.37,6.08
61.00,0.00,245.75,15.81,-130.06,1.62,1.81,0.94,82.47,6.10
61.00,1.00,261.00,-2.81,-62.81,-0.38,-2.44,-1.12,82.47,6.10
61.00,2.00,251.31,-9.31,20.75,-0.19,-0.25,-2.19,82.47,6.10
61.00,0.00,245.69,15.81,-130.06,1.38,1.31,1.38,82.53,6.12
61.00,1.00,261.06,-2.81,-62.81,-0.31,-2.44,-1.25,82.53,6.12
61.00,2.00,251.38,-9.31,20.75,0.25,-0.62,-2.81,82.53,6.12
61.00,0.00,245.62,15.88,-130.12,1.00,0.81,1.50,82.57,6.14
61.00,1.00,261.12,-2.81,-62.81,-0.12,-2.62,-1.00,82.57,6.14
61.00,2.00,251.44,-9.31,20.75,0.25,-0.44,-2.75,82.57,6.14
61.00,0.00,245.56,15.88,-130.12,0.81,0.31,1.44,82.57,6.16
61.00,1.00,261.19,-2.81,-62.81,0.31,-2.31,-0.75,82.57,6.16
61.00,2.00,251.50,-9.31,20.81,0.81,0.06,-2.88,82.57,6.16
61.00,0.00,245.56,15.88,-130.12,0.38,-0.75,1.19,82.52,6.18
61.00,1.00,261.19,-2.81,-62.81,0.50,-2.12,-0.56,82.52,6.18
61.00,2.00,251.50,-9.31,20.75,1.19,-0.44,-2.12,82.52,6.18
61.00,0.00,245.56,15.88,-130.12,-0.12,-1.00,1.31,82.48,6.20
61.00,1.00,261.25,-2.81,-62.81,0.69,-1.81,-0.31,82.48,6.20
61.00,2.00,251.56,-9.25,20.75,0.81,-1.25,-1.50,82.48,6.20
61.00,0.00,245.56,15.88,-130.12,-0.06,-0.75,1.25,82.45,6.22
61.00,1.00,261.25,-2.81,-62.81,0.25,-1.50,-0.12,82.45,6.22
61.00,2.00,251.56,-9.25,20.75,0.50,-0.94,-1.19,82.45,6.22
61.00,0.00,245.56,15.94,-130.19,0.94,-1.00,2.19,82.47,6.24
61.00,1.00,261.25,-2.81,-62.81,0.44,-1.50,0.38,82.47,6.24
61.00,2.00,251.62,-9.25,20.75,0.44,-0.56,-1.56,82.47,6.24
61.00,0.00,245.56,15.94,-130.19,1.12,-0.81,1.88,82.51,6.26
61.00,1.00,261.31,-2.75,-62.81,0.50,-1.38,0.44,82.51,6.26
61.00,2.00,251.62,-9.19,20.75,0.31,-0.69,-1.94,82.51,6.26
61.00,0.00,245.56,15.94,-130.25,0.81,-0.62,1.75,82.54,6.28
61.00,1.00,261.31,-2.75,-62.81,0.62,-1.56,0.31,82.54,6.28
61.00,2.00,251.69,-9.19,20.75,0.31,-0.94,-1.94,82.54,6.28
61.00,0.00,245.50,16.00,-130.25,0.94,0.00,1.62,82.54,6.30
61.00,1.00,261.31,-2.75,-62.81,0.75,-1.69,0.31,82.54,6.30
61.00,2.00,251.69,-9.12,20.75,0.88,-1.69,-1.56,82.54,6.30
61.00,0.00,245.44,16.00,-130.25,0.38,0.56,1.81,82.52,6.32
61.00,1.00,261.31,-2.75,-62.81,0.94,-1.62,0.69,82.52,6.32
61.00,2.00,251.75,-9.12,20.75,0.81,-2.19,-1.06,82.52,6.32
61.00,0.00,245.38,16.06,-130.25,0.44,0.75,2.25,82.50,6.34
61.00,1.00,261.38,-2.69,-62.88,0.81,-1.38,1.12,82.50,6.34
61.00,2.00,251.75,-9.06,20.75,0.75,-2.19,-1.12,82.50,6.34
61.00,0.00,245.25,16.12,-130.31,0.31,0.94,2.62,82.46,6.36
61.00,1.00,261.38,-2.69,-62.88,0.81,-1.25,1.25,82.46,6.36
61.00,2.00,251.75,-9.00,20.69,1.25,-1.50,-1.06,82.46,6.36
61.00,0.00,245.19,16.19,-130.31,0.31,0.94,2.75,82.41,6.38
61.00,1.00,261.31,-2.69,-62.88,0.62,-1.00,1.19,82.41,6.38
61.00,2.00,251.75,-9.00,20.69,1.12,-2.38,-0.25,82.41,6.38
61.00,0.00,245.06,16.25,-130.31,0.62,1.25,2.81,82.43,6.40
61.00,1.00,261.31,-2.62,-62.88,0.25,-1.00,1.50,82.43,6.40
61.00,2.00,251.75,-8.94,20.69,0.31,-3.12,0.12,82.43,6.40
61.00,0.00,244.94,16.25,-130.38,0.75,1.50,2.69,82.48,6.42
61.00,1.00,261.31,-2.62,-62.88,0.44,-0.81,1.31,82.48,6.42
61.00,2.00,251.75,-8.88,20.69,-0.19,-2.69,-0.19,82.48,6.42
61.00,0.00,244.81,16.31,-130.38,0.94,1.38,2.81,82.55,6.44
61.00,1.00,261.31,-2.56,-62.94,-0.88,-0.44,1.38,82.55,6.44
61.00,2.00,251.75,-8.81,20.62,-0.44,-1.94,-0.31,82.55,6.44
61.00,0.00,244.69,16.38,-130.44,0.94,1.00,2.75,82.60,6.46
61.00,1.00,261.25,-2.56,-62.94,-0.69,0.38,1.69,82.60,6.46
61.00,2.00,251.69,-8.81,20.62,0.00,-2.31,0.19,82.60,6.46
61.00,0.00,244.56,16.44,-130.44,0.38,1.06,2.44,82.58,6.48
61.00,1.00,261.25,-2.50,-62.94,-0.06,-0.38,1.62,82.58,6.48
61.00,2.00,251.69,-8.75,20.62,0.75,-2.75,0.62,82.58,6.48
61.00,0.00,244.50,16.50,-130.44,0.06,0.81,2.19,82.56,6.50
61.00,1.00,261.19,-2.50,-62.94,0.12,-0.25,1.69,82.56,6.50
61.00,2.00,251.69,-8.69,20.62,0.44,-2.44,0.56,82.56,6.50
61.00,0.00,244.44,16.56,-130.44,0.38,1.19,2.12,82.57,6.52
61.00,1.00,261.12,-2.44,-62.94,0.12,0.38,2.00,82.57,6.52
61.00,2.00,251.69,-8.62,20.62,0.25,-2.44,0.81,82.57,6.52
61.00,0.00,244.31,16.56,-130.44,0.62,1.31,1.75,82.59,6.54
61.00,1.00,261.12,-2.44,-62.94,-0.31,0.31,1.81,82.59,6.54
61.00,2.00,251.62,-8.62,20.62,0.25,-2.19,1.12,82.59,6.54
61.00,0.00,244.19,16.62,-130.50,1.12,1.38,1.88,82.64,6.56
61.00,1.00,261.06,-2.38,-62.94,-0.44,0.69,1.44,82.64,6.56
61.00,2.00,251.56,-8.56,20.62,0.06,-2.50,1.69,82.64,6.56
61.00,0.00,244.12,16.69,-130.50,1.19,1.38,2.06,82.74,6.58
61.00,1.00,261.06,-2.38,-62.94,-0.75,0.88,1.31,82.74,6.58
61.00,2.00,251.56,-8.56,20.62,-0.81,-2.88,1.75,82.74,6.58
61.00,0.00,244.00,16.75,-130.56,1.81,1.44,2.00,82.89,6.60
61.00,1.00,261.00,-2.38,-62.94,-1.06,0.12,1.06,82.89,6.60
61.00,2.00,251.50,-8.50,20.62,-1.06,-2.56,1.56,82.89,6.60
61.00,0.00,243.88,16.75,-130.56,1.94,1.25,1.31,82.99,6.62
61.00,1.00,261.00,-2.31,-62.94,-1.19,0.31,1.06,82.99,6.62
61.00,2.00,251.50,-8.44,20.62,0.06,-2.94,1.19,82.99,6.62
61.00,0.00,243.81,16.81,-130.62,1.31,0.31,0.88,83.06,6.64
61.00,1.00,261.00,-2.31,-62.88,-0.94,-0.31,1.00,83.06,6.64
61.00,2.00,251.44,-8.44,20.62,-0.06,-2.31,1.38,83.06,6.64
61.00,0.00,243.75,16.81,-130.62,1.19,1.12,0.88,83.11,6.66
61.00,1.00,260.94,-2.31,-62.88,-0.94,-0.19,0.56,83.11,6.66
61.00,2.00,251.38,-8.38,20.62,0.31,-2.75,1.81,83.11,6.66
61.00,0.00,243.69,16.88,-130.69,1.06,1.25,1.19,83.11,6.68
61.00,1.00,260.94,-2.31,-62.88,-0.75,0.12,0.44,83.11,6.68
61.00,2.00,251.38,-8.38,20.56,1.00,-2.88,1.62,83.11,6.68
61.00,0.00,243.56,16.88,-130.69,0.81,1.75,0.94,83.13,6.70
61.00,1.00,260.94,-2.31,-62.81,-1.00,0.75,0.50,83.13,6.70
61.00,2.00,251.31,-8.31,20.56,0.50,-2.38,1.56,83.13,6.70
61.00,0.00,243.44,16.94,-130.69,1.44,1.94,1.19,83.23,6.72
61.00,1.00,260.94,-2.31,-62.81,-1.25,0.50,0.56,83.23,6.72
61.00,2.00,251.25,-8.31,20.56,-0.56,-2.19,1.62,83.23,6.72
61.00,0.00,243.31,17.00,-130.69,1.38,2.62,0.81,83.35,6.74
61.00,1.00,260.94,-2.31,-62.81,-1.25,0.38,0.62,83.35,6.74
61.00,2.00,251.25,-8.25,20.56,-0.94,-2.75,1.81,83.35,6.74
61.00,0.00,243.19,17.00,-130.69,1.19,3.00,0.19,83.42,6.76
61.00,1.00,260.94,-2.31,-62.75,-1.50,0.56,0.00,83.42,6.76
61.00,2.00,251.19,-8.25,20.56,-0.06,-2.25,1.56,83.42,6.76
61.00,0.00,243.06,17.06,-130.75,1.81,2.38,0.31,83.46,6.78
61.00,1.00,260.94,-2.31,-62.75,-1.31,1.00,0.00,83.46,6.78
61.00,2.00,251.12,-8.19,20.56,0.94,-1.56,1.31,83.46,6.78
61.00,0.00,243.00,17.06,-130.75,1.62,2.00,1.69,83.51,6.80
61.00,1.00,260.88,-2.31,-62.75,-1.75,1.19,-0.12,83.51,6.80
61.00,2.00,251.12,-8.19,20.56,0.69,-1.50,2.00,83.51,6.80
61.00,0.00,242.88,17.12,-130.81,0.19,2.12,1.75,83.51,6.82
61.00,1.00,260.88,-2.31,-62.69,-1.44,1.75,0.19,83.51,6.82
61.00,2.00,251.06,-8.19,20.50,0.31,-1.62,2.94,83.51,6.82
61.00,0.00,242.75,17.19,-130.81,-0.62,1.62,0.50,83.46,6.84
61.00,1.00,260.88,-2.31,-62.69,-1.19,1.62,0.06,83.46,6.84
61.00,2.00,251.00,-8.19,20.50,0.19,-1.62,3.19,83.46,6.84
61.00,0.00,242.75,17.19,-130.75,-0.50,-0.38,-0.38,83.43,6.86
61.00,1.00,260.81,-2.38,-62.62,-1.56,2.69,0.44,83.43,6.86
61.00,2.00,250.94,-8.19,20.50,0.06,-0.88,2.44,83.43,6.86
61.00,0.00,242.75,17.19,-130.75,0.81,-1.94,-0.25,83.52,6.88
61.00,1.00,260.81,-2.38,-62.62,-1.56,2.44,0.62,83.52,6.88
61.00,2.00,250.88,-8.19,20.50,-0.88,-0.69,2.31,83.52,6.88
61.00,0.00,242.81,17.12,-130.81,1.62,-0.81,-0.06,83.68,6.90
61.00,1.00,260.75,-2.38,-62.56,-1.81,2.44,0.44,83.68,6.90
61.00,2.00,250.81,-8.19,20.56,-1.44,-0.25,2.50,83.68,6.90
61.00,0.00,242.81,17.12,-130.81,1.44,-0.12,-0.75,83.79,6.92
61.00,1.00,260.75,-2.44,-62.56,-1.50,1.94,0.06,83.79,6.92
61.00,2.00,250.81,-8.19,20.56,-0.75,0.50,2.25,83.79,6.92
61.00,0.00,242.81,17.12,-130.81,1.19,0.06,-1.19,83.90,6.94
61.00,1.00,260.69,-2.44,-62.56,-1.81,1.44,0.12,83.90,6.94
61.00,2.00,250.75,-8.25,20.56,-0.75,0.56,2.56,83.90,6.94
61.00,0.00,242.81,17.12,-130.88,0.00,1.25,-1.69,83.92,6.96
61.00,1.00,260.69,-2.44,-62.50,-1.62,1.12,-0.06,83.92,6.96
61.00,2.00,250.69,-8.25,20.56,-0.50,-0.50,3.31,83.92,6.96
61.00,0.00,242.81,17.12,-130.81,-1.19,1.69,-1.81,83.84,6.98
61.00,1.00,260.69,-2.44,-62.50,-1.81,0.75,-0.38,83.84,6.98
61.00,2.00,250.62,-8.25,20.56,0.38,-0.44,3.62,83.84,6.98
61.00,0.00,242.81,17.12,-130.81,-1.81,1.31,-1.62,83.73,7.00
61.00,1.00,260.69,-2.44,-62.44,-1.69,1.12,-0.31,83.73,7.00
61.00,2.00,250.56,-8.31,20.56,0.31,-0.25,3.56,83.73,7.00
61.00,0.00,242.94,17.06,-130.75,-2.06,-3.81,-0.44,83.64,7.02
61.00,1.00,260.69,-2.50,-62.38,-2.00,1.50,-0.06,83.64,7.02
61.00,2.00,250.50,-8.31,20.56,-0.38,0.62,3.00,83.64,7.02
61.00,0.00,243.12,17.00,-130.69,-1.94,-4.44,0.19,83.58,7.04
61.00,1.00,260.62,-2.50,-62.38,-1.56,2.19,0.19,83.58,7.04
61.00,2.00,250.44,-8.38,20.56,-0.69,1.06,2.19,83.58,7.04
61.00,0.00,243.25,16.94,-130.69,-0.81,-2.50,-0.81,83.62,7.06
61.00,1.00,260.62,-2.50,-62.38,-1.56,2.31,0.44,83.62,7.06
61.00,2.00,250.44,-8.38,20.56,-1.56,1.50,1.75,83.62,7.06
61.00,0.00,243.38,16.94,-130.69,-0.38,-2.50,-0.56,83.70,7.08
61.00,1.00,260.56,-2.56,-62.31,-1.44,1.62,0.50,83.70,7.08
61.00,2.00,250.38,-8.44,20.62,-1.94,1.62,1.25,83.70,7.08
61.00,0.00,243.50,16.88,-130.69,-0.06,-2.62,-0.44,83.70,7.10
61.00,1.00,260.56,-2.56,-62.31,-1.12,0.94,0.19,83.70,7.10
61.00,2.00,250.38,-8.44,20.69,-0.19,1.00,0.50,83.70,7.10
61.00,0.00,243.56,16.88,-130.69,-1.31,-2.25,-0.12,83.56,7.12
61.00,1.00,260.56,-2.56,-62.25,-1.06,0.94,-0.50,83.56,7.12
61.00,2.00,250.38,-8.50,20.62,1.50,1.88,0.25,83.56,7.12
61.00,0.00,243.69,16.81,-130.62,-1.31,-2.31,-0.06,83.51,7.14
61.00,1.00,260.56,-2.56,-62.25,-0.88,1.25,-0.12,83.51,7.14
61.00,2.00,250.38,-8.50,20.62,-0.44,1.19,0.56,83.51,7.14
61.00,0.00,243.75,16.81,-130.62,-1.38,-1.50,0.31,83.51,7.16
61.00,1.00,260.56,-2.56,-62.25,-1.25,-0.19,0.06,83.51,7.16
61.00,2.00,250.38,-8.50,20.69,-1.31,0.56,0.12,83.51,7.16
61.00,0.00,243.75,16.88,-130.62,-0.88,-0.25,1.06,83.49,7.18
61.00,1.00,260.56,-2.62,-62.25,-1.31,-0.31,-0.81,83.49,7.18
61.00,2.00,250.38,-8.56,20.69,-0.44,1.12,-0.44,83.49,7.18
61.00,0.00,243.69,16.88,-130.62,-0.44,1.06,1.00,83.48,7.20
61.00,1.00,260.56,-2.62,-62.19,-1.50,0.62,-0.81,83.48,7.20
61.00,2.00,250.44,-8.56,20.69,-0.25,0.69,-0.75,83.48,7.20
61.00,0.00,243.62,16.88,-130.56,-0.62,1.19,0.56,83.48,7.22
61.00,1.00,260.56,-2.62,-62.19,-1.19,0.50,-0.62,83.48,7.22
61.00,2.00,250.44,-8.56,20.69,-0.69,0.00,-0.38,83.48,7.22
61.00,0.00,243.56,16.94,-130.56,-0.38,1.69,0.38,83.47,7.24
61.00,1.00,260.56,-2.62,-62.12,0.00,-0.56,-0.44,83.47,7.24
61.00,2.00,250.44,-8.56,20.75,-0.12,0.06,-0.38,83.47,7.24
61.00,0.00,243.50,16.94,-130.56,0.50,2.12,0.81,83.47,7.26
61.00,1.00,260.56,-2.62,-62.12,0.44,-1.00,-0.38,83.47,7.26
61.00,2.00,250.44,-8.56,20.75,0.44,0.25,-0.31,83.47,7.26
61.00,0.00,243.38,17.00,-130.56,1.19,2.00,0.94,83.48,7.28
61.00,1.00,260.62,-2.62,-62.12,0.31,-0.69,-0.56,83.48,7.28
61.00,2.00,250.44,-8.56,20.75,1.00,0.38,-0.56,83.48,7.30
61.00,0.00,243.31,17.00,-130.56,1.81,0.88,-0.19,83.54,7.30
61.00,1.00,260.62,-2.62,-62.12,0.44,-1.06,-0.44,83.54,7.30
61.00,2.00,250.44,-8.56,20.75,0.69,0.69,-1.06,83.54,7.30
61.00,0.00,243.38,17.00,-130.62,2.50,-0.19,-0.75,83.70,7.32
61.00,1.00,260.62,-2.62,-62.19,0.69,-1.19,-0.06,83.70,7.32
61.00,2.00,250.44,-8.56,20.75,-0.69,0.38,-1.06,83.70,7.32
61.00,0.00,243.31,16.94,-130.69,3.69,0.00,-0.56,83.94,7.34
61.00,1.00,260.62,-2.62,-62.19,1.12,-1.94,-0.06,83.94,7.34
61.00,2.00,250.50,-8.56,20.81,-0.94,0.19,-1.31,83.94,7.34
61.00,0.00,243.25,16.94,-130.75,4.00,0.44,-0.62,84.14,7.36
61.00,1.00,260.69,-2.56,-62.19,2.00,-3.25,-0.06,84.14,7.36
61.00,2.00,250.50,-8.56,20.81,0.25,0.25,-2.06,84.14,7.36
