Iteration,IMUNo,OrientationX (deg),OrientationY,OrientationZ,GyroX (20rad/sec),GyroY,GyroZ,Elbow_Pos (rad),Time (sec)
65.00,0.00,284.94,1.31,-100.38,0.00,-1.19,0.25,-0.04,1.02
65.00,1.00,265.00,-2.25,-63.31,0.12,-1.00,-0.44,-0.04,1.02
65.00,2.00,255.69,-15.75,22.88,0.81,-0.38,-0.88,-0.04,1.02
65.00,0.00,285.00,1.31,-100.38,-0.25,-0.56,0.19,-0.10,1.04
65.00,1.00,265.06,-2.25,-63.31,0.19,-1.00,-0.31,-0.10,1.04
65.00,2.00,255.75,-15.75,22.88,0.94,-0.25,-0.88,-0.10,1.04
65.00,0.00,285.00,1.31,-100.38,-0.62,-1.06,0.38,-0.14,1.06
65.00,1.00,265.06,-2.25,-63.31,-0.31,-0.69,-0.19,-0.14,1.06
65.00,2.00,255.75,-15.75,22.88,0.25,-0.12,-0.50,-0.14,1.06
65.00,0.00,285.00,1.31,-100.38,-0.56,-0.94,0.38,-0.16,1.08
65.00,1.00,265.06,-2.25,-63.31,-0.31,-0.69,-0.25,-0.16,1.08
65.00,2.00,255.75,-15.75,22.88,-0.06,-0.31,-0.44,-0.16,1.08
65.00,0.00,285.06,1.31,-100.38,-0.62,-1.31,0.31,-0.20,1.10
65.00,1.00,265.06,-2.25,-63.31,-0.50,-0.56,-0.12,-0.20,1.10
65.00,2.00,255.75,-15.75,22.88,0.19,-0.25,-0.69,-0.20,1.10
65.00,0.00,285.06,1.31,-100.38,-0.81,-0.94,0.12,-0.26,1.12
65.00,1.00,265.06,-2.25,-63.31,-0.31,0.19,-0.12,-0.26,1.12
65.00,2.00,255.75,-15.75,22.88,0.25,-0.25,-0.50,-0.26,1.12
65.00,0.00,285.12,1.31,-100.31,-1.06,-0.81,-0.12,-0.32,1.14
65.00,1.00,265.06,-2.25,-63.31,-0.50,-0.06,0.25,-0.32,1.14
65.00,2.00,255.75,-15.75,22.88,0.19,-0.56,-0.31,-0.32,1.14
65.00,0.00,285.12,1.31,-100.31,-1.12,0.38,0.19,-0.36,1.16
65.00,1.00,265.06,-2.25,-63.25,-0.88,-0.75,0.31,-0.36,1.16
65.00,2.00,255.75,-15.75,22.88,-0.19,-0.62,0.50,-0.36,1.16
65.00,0.00,285.06,1.31,-100.31,-0.69,1.06,0.44,-0.33,1.18
65.00,1.00,265.06,-2.25,-63.25,-0.38,-0.06,0.19,-0.33,1.18
65.00,2.00,255.75,-15.75,22.88,-1.31,-0.31,0.62,-0.33,1.18
65.00,0.00,285.06,1.31,-100.31,-0.94,0.44,0.69,-0.32,1.20
65.00,1.00,265.06,-2.25,-63.25,-0.44,0.31,-0.12,-0.32,1.20
65.00,2.00,255.75,-15.75,22.94,-1.12,0.00,0.56,-0.32,1.20
65.00,0.00,285.06,1.31,-100.25,-1.00,0.06,0.12,-0.36,1.22
65.00,1.00,265.06,-2.25,-63.25,-1.06,0.50,0.12,-0.36,1.22
65.00,2.00,255.75,-15.75,22.94,-0.25,-0.06,0.31,-0.36,1.22
65.00,0.00,285.06,1.31,-100.25,-1.12,-0.19,-1.06,-0.44,1.24
65.00,1.00,265.06,-2.25,-63.25,-0.88,0.31,0.62,-0.44,1.24
65.00,2.00,255.75,-15.75,22.94,0.50,-1.00,0.12,-0.44,1.24
65.00,0.00,285.06,1.31,-100.25,-0.69,0.25,-1.12,-0.51,1.26
65.00,1.00,265.06,-2.25,-63.25,-0.25,0.50,0.69,-0.51,1.26
65.00,2.00,255.75,-15.75,22.88,0.81,-0.44,0.75,-0.51,1.26
65.00,0.00,285.12,1.25,-100.25,-0.31,0.56,-0.88,-0.51,1.28
65.00,1.00,265.06,-2.25,-63.25,-0.06,0.25,0.25,-0.51,1.28
65.00,2.00,255.69,-15.75,22.88,-0.31,-0.12,1.12,-0.51,1.28
65.00,0.00,285.12,1.25,-100.25,0.38,0.56,-0.50,-0.44,1.30
65.00,1.00,265.06,-2.25,-63.25,-0.38,0.12,0.12,-0.44,1.30
65.00,2.00,255.69,-15.75,22.94,-1.12,-0.31,1.12,-0.44,1.30
65.00,0.00,285.12,1.25,-100.25,0.69,1.00,-0.75,-0.41,1.32
65.00,1.00,265.06,-2.25,-63.25,-0.81,-0.19,-0.44,-0.41,1.32
65.00,2.00,255.69,-15.75,22.94,0.06,-0.19,0.25,-0.41,1.32
65.00,0.00,285.06,1.25,-100.25,0.81,1.19,-0.69,-0.41,1.34
65.00,1.00,265.06,-2.25,-63.19,-0.62,-0.31,-0.56,-0.41,1.34
65.00,2.00,255.69,-15.75,22.94,0.94,0.00,0.00,-0.41,1.34
65.00,0.00,285.06,1.25,-100.25,0.19,1.56,-1.00,-0.43,1.36
65.00,1.00,265.06,-2.25,-63.19,-0.62,-0.19,-0.19,-0.43,1.36
65.00,2.00,255.69,-15.75,22.88,0.56,0.00,0.75,-0.43,1.36
65.00,0.00,285.06,1.25,-100.25,-0.06,1.19,-0.62,-0.43,1.38
65.00,1.00,265.06,-2.25,-63.19,-0.62,0.00,0.31,-0.43,1.38
65.00,2.00,255.62,-15.75,22.88,-0.19,-0.31,1.44,-0.43,1.38
65.00,0.00,285.06,1.19,-100.25,-0.12,0.12,-0.44,-0.39,1.40
65.00,1.00,265.06,-2.25,-63.19,-0.31,-0.19,0.19,-0.39,1.40
65.00,2.00,255.62,-15.75,22.88,-0.94,-0.31,1.44,-0.39,1.40
65.00,0.00,285.06,1.19,-100.25,0.12,0.06,0.00,-0.36,1.42
65.00,1.00,265.06,-2.25,-63.19,-0.19,0.25,0.19,-0.36,1.42
65.00,2.00,255.56,-15.81,22.88,-0.44,0.00,0.94,-0.36,1.42
65.00,0.00,285.06,1.19,-100.25,-0.25,0.12,0.00,-0.35,1.44
65.00,1.00,265.06,-2.25,-63.19,-0.75,-0.19,0.00,-0.35,1.44
65.00,2.00,255.56,-15.81,22.88,-0.44,-0.31,0.62,-0.35,1.44
65.00,0.00,285.06,1.19,-100.25,-0.19,0.19,-0.19,-0.37,1.46
65.00,1.00,265.06,-2.25,-63.19,-0.69,-0.50,0.00,-0.37,1.46
65.00,2.00,255.56,-15.81,22.88,0.25,-0.25,0.50,-0.37,1.46
65.00,0.00,285.06,1.19,-100.25,0.06,0.44,-0.06,-0.38,1.48
65.00,1.00,265.06,-2.25,-63.19,-0.62,-0.25,-0.25,-0.38,1.48
65.00,2.00,255.56,-15.81,22.88,0.25,-0.31,0.50,-0.38,1.48
65.00,0.00,285.06,1.19,-100.25,0.25,0.25,0.06,-0.37,1.50
65.00,1.00,265.06,-2.25,-63.19,-0.69,-0.12,-0.38,-0.37,1.50
65.00,2.00,255.56,-15.81,22.88,0.12,0.00,0.31,-0.37,1.50
65.00,0.00,285.06,1.19,-100.25,0.56,0.06,0.38,-0.36,1.52
65.00,1.00,265.06,-2.25,-63.12,-0.69,-0.38,-0.44,-0.36,1.52
65.00,2.00,255.56,-15.81,22.88,0.25,0.19,0.31,-0.36,1.52
65.00,0.00,285.06,1.19,-100.25,0.81,-0.06,0.31,-0.33,1.54
65.00,1.00,265.06,-2.25,-63.12,-0.69,-0.06,-0.50,-0.33,1.54
65.00,2.00,255.56,-15.81,22.88,0.25,-0.19,0.06,-0.33,1.54
65.00,0.00,285.06,1.19,-100.31,1.25,-0.19,0.19,-0.28,1.56
65.00,1.00,265.06,-2.25,-63.12,-0.69,-0.31,-0.50,-0.28,1.56
65.00,2.00,255.56,-15.81,22.88,0.19,0.06,0.12,-0.28,1.56
65.00,0.00,285.06,1.19,-100.31,1.81,-0.50,0.38,-0.20,1.58
65.00,1.00,265.06,-2.25,-63.12,-0.44,0.00,-0.19,-0.20,1.58
65.00,2.00,255.56,-15.81,22.88,0.19,-0.12,0.44,-0.20,1.58
65.00,0.00,285.06,1.25,-100.38,2.44,-0.12,0.88,-0.10,1.60
65.00,1.00,265.06,-2.25,-63.12,-0.38,-0.06,-0.19,-0.10,1.60
65.00,2.00,255.56,-15.81,22.88,0.31,-0.19,0.62,-0.10,1.60
65.00,0.00,285.00,1.25,-100.44,3.19,-0.12,1.12,0.02,1.62
65.00,1.00,265.06,-2.25,-63.12,-0.38,0.19,-0.31,0.02,1.62
65.00,2.00,255.56,-15.81,22.88,0.69,-0.19,0.81,0.02,1.62
65.00,0.00,285.00,1.25,-100.50,4.19,-0.31,1.69,0.20,1.64
65.00,1.00,265.06,-2.25,-63.12,0.19,0.00,-0.25,0.20,1.64
65.00,2.00,255.56,-15.81,22.88,0.50,0.00,0.75,0.20,1.64
65.00,0.00,284.94,1.31,-100.62,4.81,-0.88,2.31,0.40,1.66
65.00,1.00,265.06,-2.25,-63.12,0.31,-0.12,-0.38,0.40,1.66
65.00,2.00,255.56,-15.81,22.88,0.75,-0.50,0.62,0.40,1.66
65.00,0.00,284.88,1.38,-100.75,6.00,-0.69,3.00,0.64,1.68
65.00,1.00,265.06,-2.25,-63.12,0.06,0.12,-0.25,0.64,1.68
65.00,2.00,255.56,-15.81,22.81,1.06,-0.56,0.50,0.64,1.68
65.00,0.00,284.81,1.44,-100.88,6.56,-0.62,3.62,0.92,1.70
65.00,1.00,265.06,-2.25,-63.12,-0.19,-0.12,-0.25,0.92,1.70
65.00,2.00,255.56,-15.81,22.81,0.81,-0.81,0.44,0.92,1.70
65.00,0.00,284.75,1.56,-101.00,7.25,-0.06,4.31,1.26,1.72
65.00,1.00,265.06,-2.25,-63.12,0.12,-0.12,0.00,1.26,1.72
65.00,2.00,255.50,-15.81,22.81,0.38,-0.50,0.75,1.26,1.72
65.00,0.00,284.62,1.62,-101.19,8.00,0.38,4.94,1.67,1.74
65.00,1.00,265.06,-2.25,-63.12,0.25,0.62,0.12,1.67,1.74
65.00,2.00,255.50,-15.81,22.81,-0.44,-0.69,0.62,1.67,1.74
65.00,0.00,284.44,1.75,-101.38,8.75,1.19,5.62,2.05,1.76
65.00,1.00,265.06,-2.25,-63.12,0.00,0.06,0.38,2.05,1.76
65.00,2.00,255.50,-15.81,22.81,1.00,-0.62,0.50,2.05,1.76
65.00,0.00,284.25,1.94,-101.62,9.69,1.88,6.75,2.49,1.78
65.00,1.00,265.06,-2.25,-63.12,-0.31,-0.44,0.19,2.49,1.78
65.00,2.00,255.50,-15.75,22.75,0.56,-1.62,1.06,2.49,1.78
65.00,0.00,284.06,2.06,-101.81,11.12,2.25,7.94,3.06,1.80
65.00,1.00,265.06,-2.25,-63.12,0.25,-0.56,0.00,3.06,1.80
65.00,2.00,255.44,-15.75,22.75,-0.50,-2.00,1.56,3.06,1.80
65.00,0.00,283.81,2.25,-102.06,11.75,2.19,9.06,3.69,1.82
65.00,1.00,265.06,-2.25,-63.12,0.31,0.44,-0.44,3.69,1.82
65.00,2.00,255.44,-15.75,22.75,-1.06,-1.19,1.75,3.69,1.82
65.00,0.00,283.56,2.44,-102.31,11.06,2.56,8.19,4.23,1.84
65.00,1.00,265.06,-2.25,-63.12,0.00,0.88,-0.19,4.23,1.84
65.00,2.00,255.38,-15.75,22.75,-0.06,-1.38,1.31,4.23,1.84
65.00,0.00,283.31,2.56,-102.50,10.44,3.38,7.31,4.67,1.86
65.00,1.00,265.00,-2.25,-63.12,-0.38,-0.06,0.25,4.67,1.86
65.00,2.00,255.38,-15.69,22.75,1.44,-2.19,0.75,4.67,1.86
65.00,0.00,283.12,2.69,-102.75,11.06,3.38,6.81,5.09,1.88
65.00,1.00,265.00,-2.25,-63.12,0.81,0.19,0.31,5.09,1.88
65.00,2.00,255.31,-15.62,22.69,2.44,-2.50,0.94,5.09,1.88
65.00,0.00,282.88,2.88,-103.00,12.06,4.19,7.06,5.59,1.90
65.00,1.00,265.00,-2.25,-63.12,1.44,-0.06,0.38,5.59,1.90
65.00,2.00,255.31,-15.62,22.62,1.69,-2.38,1.81,5.59,1.90
65.00,0.00,282.56,3.06,-103.25,14.06,3.75,8.25,6.24,1.92
65.00,1.00,265.00,-2.25,-63.19,0.75,-0.44,0.31,6.24,1.92
65.00,2.00,255.25,-15.62,22.56,0.81,-2.00,2.19,6.24,1.92
65.00,0.00,282.38,3.19,-103.56,15.38,1.44,8.31,6.93,1.94
65.00,1.00,265.00,-2.25,-63.19,0.50,-0.19,0.00,6.93,1.94
65.00,2.00,255.19,-15.56,22.56,1.12,-1.31,2.00,6.93,1.94
65.00,0.00,282.19,3.31,-103.88,15.56,1.00,7.44,7.62,1.96
65.00,1.00,265.00,-2.25,-63.19,0.00,-0.06,-0.31,7.62,1.96
65.00,2.00,255.19,-15.56,22.50,1.44,-1.81,1.50,7.62,1.96
65.00,0.00,282.00,3.50,-104.19,16.44,0.81,7.75,8.34,1.98
65.00,1.00,265.00,-2.25,-63.19,0.44,-0.06,-0.44,8.34,1.98
65.00,2.00,255.12,-15.56,22.50,1.81,-1.75,1.25,8.34,1.98
65.00,0.00,281.75,3.62,-104.50,16.31,1.81,6.62,9.03,2.00
65.00,1.00,265.06,-2.25,-63.19,0.62,-0.25,-0.62,9.03,2.00
65.00,2.00,255.12,-15.50,22.44,2.06,-2.06,1.38,9.03,2.00
65.00,0.00,281.56,3.75,-104.81,16.25,1.12,6.19,9.72,2.02
65.00,1.00,265.06,-2.25,-63.19,0.88,-0.62,-0.56,9.72,2.02
65.00,2.00,255.06,-15.50,22.38,2.06,-2.38,1.56,9.72,2.02
65.00,0.00,281.38,3.88,-105.12,15.81,2.50,6.75,10.36,2.04
65.00,1.00,265.06,-2.25,-63.19,0.75,-0.50,-0.56,10.36,2.04
65.00,2.00,255.06,-15.44,22.31,2.81,-1.81,1.88,10.36,2.04
65.00,0.00,281.12,4.06,-105.44,16.12,4.31,7.25,11.08,2.06
65.00,1.00,265.06,-2.25,-63.25,1.12,-0.12,-0.31,11.08,2.06
65.00,2.00,255.00,-15.44,22.25,1.38,-2.44,2.44,11.08,2.06
65.00,0.00,280.75,4.25,-105.75,16.81,6.25,8.38,11.92,2.08
65.00,1.00,265.06,-2.25,-63.25,0.62,-0.44,-0.81,11.92,2.08
65.00,2.00,254.94,-15.44,22.25,-0.50,-2.94,2.88,11.92,2.08
65.00,0.00,280.38,4.44,-106.06,17.94,6.81,8.88,12.83,2.10
65.00,1.00,265.06,-2.25,-63.25,1.06,-1.00,-0.81,12.83,2.10
65.00,2.00,254.88,-15.38,22.25,-0.69,-3.12,2.50,12.83,2.10
65.00,0.00,279.94,4.69,-106.44,17.25,7.88,8.88,13.68,2.12
65.00,1.00,265.12,-2.25,-63.31,1.12,-0.88,-0.88,13.68,2.12
65.00,2.00,254.81,-15.31,22.25,-0.25,-3.00,2.19,13.68,2.12
65.00,0.00,279.50,4.88,-106.75,17.50,8.44,8.56,14.56,2.14
65.00,1.00,265.12,-2.25,-63.31,1.00,-1.31,-0.94,14.56,2.14
65.00,2.00,254.75,-15.31,22.19,-0.50,-2.88,2.12,14.56,2.14
65.00,0.00,279.12,5.06,-107.12,18.62,7.44,9.31,15.50,2.16
65.00,1.00,265.19,-2.25,-63.31,0.69,-0.88,-0.88,15.50,2.16
65.00,2.00,254.69,-15.25,22.19,-0.62,-2.69,2.31,15.50,2.16
65.00,0.00,278.69,5.31,-107.50,18.88,7.69,9.56,16.44,2.18
65.00,1.00,265.19,-2.25,-63.31,0.81,-0.75,-0.69,16.44,2.18
65.00,2.00,254.69,-15.25,22.19,-0.38,-3.31,2.56,16.44,2.18
65.00,0.00,278.19,5.50,-107.81,18.25,8.75,9.38,17.36,2.20
65.00,1.00,265.19,-2.25,-63.38,0.94,-1.12,-0.69,17.36,2.20
65.00,2.00,254.56,-15.19,22.19,-0.69,-4.06,2.88,17.36,2.20
65.00,0.00,277.75,5.75,-108.19,17.69,9.81,8.75,18.30,2.22
65.00,1.00,265.25,-2.25,-63.38,1.12,-1.19,-0.69,18.30,2.22
65.00,2.00,254.50,-15.12,22.19,-1.44,-4.06,3.19,18.30,2.22
65.00,0.00,277.25,5.94,-108.50,18.62,9.31,9.19,19.25,2.24
65.00,1.00,265.25,-2.31,-63.38,0.81,-1.06,-0.75,19.25,2.24
65.00,2.00,254.44,-15.06,22.19,-0.94,-4.12,3.06,19.25,2.24
65.00,0.00,276.81,6.19,-108.88,20.44,7.12,10.06,20.23,2.26
65.00,1.00,265.31,-2.31,-63.38,1.31,-0.81,-1.12,20.23,2.26
65.00,2.00,254.38,-15.00,22.12,0.31,-4.19,2.88,20.23,2.26
65.00,0.00,276.44,6.38,-109.31,20.81,5.56,9.75,21.23,2.28
65.00,1.00,265.31,-2.31,-63.44,1.31,-0.62,-0.81,21.23,2.28
65.00,2.00,254.31,-14.94,22.12,0.31,-3.69,2.44,21.23,2.28
65.00,0.00,276.06,6.56,-109.69,20.25,4.31,8.19,22.21,2.30
65.00,1.00,265.31,-2.31,-63.44,1.00,-0.62,-0.69,22.21,2.30
65.00,2.00,254.25,-14.94,22.12,0.12,-4.12,2.25,22.21,2.30
65.00,0.00,275.81,6.69,-110.06,20.25,2.56,7.75,23.19,2.32
65.00,1.00,265.38,-2.31,-63.44,0.62,-0.69,-0.25,23.19,2.32
65.00,2.00,254.19,-14.88,22.06,0.31,-4.06,2.56,23.19,2.32
65.00,0.00,275.56,6.88,-110.50,20.12,1.00,7.69,24.21,2.34
65.00,1.00,265.38,-2.31,-63.44,0.62,-0.69,-0.31,24.21,2.34
65.00,2.00,254.12,-14.81,22.06,-0.88,-4.81,3.00,24.21,2.34
65.00,0.00,275.31,7.00,-110.88,20.50,1.25,8.38,25.30,2.36
65.00,1.00,265.38,-2.31,-63.50,0.88,-0.88,-0.56,25.30,2.36
65.00,2.00,254.00,-14.69,22.06,-1.75,-5.38,3.06,25.30,2.36
65.00,0.00,275.00,7.19,-111.25,20.19,1.94,8.19,26.34,2.38
65.00,1.00,265.38,-2.31,-63.50,0.62,-0.31,-0.62,26.34,2.38
65.00,2.00,253.94,-14.62,22.06,-1.19,-4.44,3.00,26.34,2.38
65.00,0.00,274.69,7.31,-111.69,19.69,3.44,7.69,27.33,2.40
65.00,1.00,265.38,-2.31,-63.50,0.44,-0.19,-0.19,27.33,2.40
65.00,2.00,253.88,-14.62,22.06,-0.69,-3.75,2.88,27.33,2.40
65.00,0.00,274.38,7.50,-112.06,19.62,3.44,7.56,28.36,2.42
65.00,1.00,265.38,-2.31,-63.50,-0.06,-0.94,-0.56,28.36,2.42
65.00,2.00,253.81,-14.56,22.06,-1.38,-3.12,2.25,28.36,2.42
65.00,0.00,274.06,7.69,-112.44,20.31,2.56,8.81,29.45,2.44
65.00,1.00,265.44,-2.31,-63.50,0.31,-1.25,-1.06,29.45,2.44
65.00,2.00,253.75,-14.50,22.12,-2.19,-2.94,2.31,29.45,2.44
65.00,0.00,273.69,7.88,-112.88,20.69,1.88,9.75,30.53,2.46
65.00,1.00,265.44,-2.31,-63.50,-0.31,-0.31,-0.88,30.53,2.46
65.00,2.00,253.69,-14.50,22.12,-1.44,-3.62,2.25,30.53,2.46
65.00,0.00,273.38,8.00,-113.25,18.75,2.88,8.00,31.45,2.48
65.00,1.00,265.44,-2.38,-63.50,-0.38,0.06,-0.44,31.45,2.48
65.00,2.00,253.62,-14.44,22.12,-0.06,-4.56,2.69,31.45,2.48
65.00,0.00,273.12,8.12,-113.56,18.06,2.06,6.25,32.32,2.50
65.00,1.00,265.44,-2.38,-63.50,-0.19,-0.62,-0.06,32.32,2.50
65.00,2.00,253.56,-14.38,22.06,0.12,-3.75,2.62,32.32,2.50
65.00,0.00,272.88,8.31,-113.94,19.44,0.94,7.56,33.32,2.52
65.00,1.00,265.50,-2.38,-63.50,0.44,0.00,0.38,33.32,2.52
65.00,2.00,253.44,-14.31,22.06,-1.06,-3.69,3.19,33.32,2.52
65.00,0.00,272.62,8.44,-114.31,19.81,1.00,7.12,34.38,2.54
65.00,1.00,265.50,-2.38,-63.50,0.25,-0.31,0.38,34.38,2.54
65.00,2.00,253.38,-14.25,22.06,-1.88,-4.31,3.81,34.38,2.54
65.00,0.00,272.31,8.56,-114.75,19.50,2.31,5.69,35.40,2.56
65.00,1.00,265.50,-2.38,-63.56,0.38,-0.38,0.06,35.40,2.56
65.00,2.00,253.31,-14.25,22.06,-1.38,-3.50,2.88,35.40,2.56
65.00,0.00,272.06,8.69,-115.06,18.81,3.19,4.75,36.34,2.58
65.00,1.00,265.50,-2.38,-63.56,0.19,0.12,-0.06,36.34,2.58
65.00,2.00,253.25,-14.19,22.06,-0.50,-2.94,2.38,36.34,2.58
65.00,0.00,271.75,8.75,-115.44,19.19,2.81,5.12,37.29,2.60
65.00,1.00,265.50,-2.38,-63.56,-0.50,0.06,0.06,37.29,2.60
65.00,2.00,253.19,-14.19,22.06,-0.31,-3.12,2.69,37.29,2.60
65.00,0.00,271.50,8.88,-115.81,19.88,1.94,7.06,38.31,2.62
65.00,1.00,265.50,-2.38,-63.56,-0.25,0.62,0.31,38.31,2.62
65.00,2.00,253.06,-14.12,22.06,-0.88,-3.69,3.56,38.31,2.62
65.00,0.00,271.19,9.00,-116.19,18.44,2.75,6.06,39.29,2.64
65.00,1.00,265.44,-2.38,-63.56,0.00,0.94,0.62,39.29,2.64
65.00,2.00,253.00,-14.06,22.06,-1.75,-4.38,4.06,39.29,2.64
65.00,0.00,270.88,9.12,-116.50,16.06,4.00,3.81,40.15,2.66
65.00,1.00,265.44,-2.38,-63.56,-0.06,0.62,0.75,40.15,2.66
65.00,2.00,252.88,-14.00,22.06,-1.56,-4.00,3.69,40.15,2.66
65.00,0.00,270.62,9.19,-116.81,15.06,3.81,2.75,40.93,2.68
65.00,1.00,265.44,-2.38,-63.56,-0.38,0.44,0.25,40.93,2.68
65.00,2.00,252.81,-14.00,22.06,-0.94,-3.69,3.19,40.93,2.68
65.00,0.00,270.38,9.31,-117.12,16.31,3.25,3.62,41.71,2.70
65.00,1.00,265.44,-2.38,-63.62,-0.19,0.62,0.25,41.71,2.70
65.00,2.00,252.75,-13.94,22.06,0.31,-4.19,3.19,41.71,2.70
65.00,0.00,270.12,9.38,-117.38,15.50,4.38,4.00,42.48,2.72
65.00,1.00,265.44,-2.44,-63.62,-0.19,0.44,0.25,42.48,2.72
65.00,2.00,252.62,-13.88,22.00,-0.19,-4.25,3.44,42.48,2.72
65.00,0.00,269.81,9.50,-117.62,13.00,5.12,1.62,43.18,2.74
65.00,1.00,265.44,-2.44,-63.62,0.19,0.62,0.38,43.18,2.74
65.00,2.00,252.56,-13.81,22.00,-1.38,-4.06,3.44,43.18,2.74
65.00,0.00,269.50,9.56,-117.88,13.19,6.12,1.94,43.90,2.76
65.00,1.00,265.44,-2.44,-63.62,-0.38,0.50,0.19,43.90,2.76
65.00,2.00,252.50,-13.81,22.06,-1.69,-3.62,2.94,43.90,2.76
65.00,0.00,269.25,9.62,-118.06,12.81,6.31,1.50,44.57,2.78
65.00,1.00,265.44,-2.44,-63.62,-0.69,0.12,-0.12,44.57,2.78
65.00,2.00,252.44,-13.75,22.06,-0.88,-3.75,3.06,44.57,2.78
65.00,0.00,269.00,9.69,-118.31,12.50,5.00,1.19,45.19,2.80
65.00,1.00,265.44,-2.44,-63.62,-0.38,0.19,-0.12,45.19,2.80
65.00,2.00,252.31,-13.69,22.00,-0.12,-3.94,2.81,45.19,2.80
65.00,0.00,268.75,9.75,-118.56,12.81,3.62,1.38,45.81,2.82
65.00,1.00,265.44,-2.44,-63.62,-0.62,1.00,-0.25,45.81,2.82
65.00,2.00,252.25,-13.62,22.00,0.00,-3.69,2.31,45.81,2.82
65.00,0.00,268.56,9.81,-118.75,11.19,3.38,0.56,46.36,2.84
65.00,1.00,265.44,-2.44,-63.62,-0.94,0.69,0.12,46.36,2.84
65.00,2.00,252.19,-13.56,22.00,-0.06,-4.25,2.50,46.36,2.84
65.00,0.00,268.50,9.81,-118.88,9.81,3.25,-1.25,46.82,2.86
65.00,1.00,265.44,-2.50,-63.62,-0.81,0.38,0.19,46.82,2.86
65.00,2.00,252.12,-13.56,21.94,0.31,-3.94,2.81,46.82,2.86
65.00,0.00,268.31,9.81,-119.12,9.50,2.25,-1.38,47.27,2.88
65.00,1.00,265.44,-2.50,-63.62,-1.06,0.81,-0.06,47.27,2.88
65.00,2.00,252.06,-13.50,21.94,0.25,-3.31,3.38,47.27,2.88
65.00,0.00,268.31,9.81,-119.19,10.06,1.06,-0.94,47.77,2.90
65.00,1.00,265.44,-2.50,-63.56,-1.31,1.38,0.12,47.77,2.90
65.00,2.00,252.00,-13.44,21.94,-0.19,-3.75,3.69,47.77,2.90
65.00,0.00,268.19,9.81,-119.44,11.75,-0.12,0.75,48.38,2.92
65.00,1.00,265.38,-2.50,-63.56,-1.00,1.81,0.12,48.38,2.92
65.00,2.00,251.88,-13.44,21.88,-0.62,-3.44,3.81,48.38,2.92
65.00,0.00,268.12,9.81,-119.69,12.38,1.25,2.19,48.97,2.94
65.00,1.00,265.38,-2.50,-63.56,-1.12,1.88,-0.19,48.97,2.94
65.00,2.00,251.81,-13.38,21.88,0.19,-3.25,3.88,48.97,2.94
65.00,0.00,267.88,9.88,-119.88,11.00,4.62,1.75,49.50,2.96
65.00,1.00,265.38,-2.56,-63.56,-0.94,2.38,-0.25,49.50,2.96
65.00,2.00,251.69,-13.38,21.88,0.19,-3.62,4.06,49.50,2.96
65.00,0.00,267.56,10.00,-120.06,9.50,6.12,0.38,50.00,2.98
65.00,1.00,265.31,-2.56,-63.50,-2.12,2.44,0.12,50.00,2.98
65.00,2.00,251.62,-13.31,21.81,-0.75,-4.62,4.75,50.00,2.98
65.00,0.00,267.31,10.06,-120.25,10.44,6.56,1.00,50.57,3.00
65.00,1.00,265.31,-2.62,-63.50,-1.69,2.25,0.12,50.57,3.00
65.00,2.00,251.50,-13.25,21.81,-1.19,-4.88,4.88,50.57,3.00
65.00,0.00,267.00,10.12,-120.50,13.25,5.94,3.62,51.28,3.02
65.00,1.00,265.31,-2.62,-63.50,-1.50,2.00,0.00,51.28,3.02
65.00,2.00,251.38,-13.19,21.81,-1.31,-4.56,4.62,51.28,3.02
65.00,0.00,266.62,10.25,-120.75,13.62,5.81,5.31,52.00,3.04
65.00,1.00,265.25,-2.69,-63.44,-1.56,2.56,0.25,52.00,3.04
65.00,2.00,251.25,-13.12,21.81,-1.25,-4.88,4.75,52.00,3.04
65.00,0.00,266.19,10.44,-121.00,12.94,6.81,4.75,52.68,3.06
65.00,1.00,265.25,-2.69,-63.44,-1.62,2.19,0.25,52.68,3.06
65.00,2.00,251.19,-13.12,21.81,-0.88,-4.56,4.56,52.68,3.06
65.00,0.00,265.81,10.56,-121.19,10.25,7.69,1.31,53.21,3.08
65.00,1.00,265.19,-2.69,-63.44,-1.75,2.56,-0.12,53.21,3.08
65.00,2.00,251.06,-13.06,21.81,-0.81,-3.31,4.62,53.21,3.08
65.00,0.00,265.50,10.62,-121.38,11.06,6.62,1.50,53.80,3.10
65.00,1.00,265.19,-2.75,-63.38,-3.19,3.44,-0.50,53.80,3.10
65.00,2.00,250.94,-13.06,21.81,-0.88,-2.75,4.69,53.80,3.10
65.00,0.00,265.19,10.69,-121.56,12.12,3.19,2.56,54.45,3.12
65.00,1.00,265.12,-2.75,-63.38,-2.69,4.06,0.19,54.45,3.12
65.00,2.00,250.81,-13.00,21.81,-1.25,-4.19,5.69,54.45,3.12
65.00,0.00,264.94,10.75,-121.81,9.94,3.06,1.38,54.95,3.14
65.00,1.00,265.06,-2.81,-63.31,-2.19,3.19,0.19,54.95,3.14
65.00,2.00,250.69,-13.00,21.75,-0.25,-4.12,5.69,54.95,3.14
65.00,0.00,264.81,10.81,-121.94,8.81,3.69,0.31,55.41,3.16
65.00,1.00,265.00,-2.81,-63.25,-2.00,3.44,0.81,55.41,3.16
65.00,2.00,250.56,-13.00,21.75,-0.75,-3.06,5.75,55.41,3.16
65.00,0.00,264.69,10.81,-122.06,6.50,2.06,-3.81,55.82,3.18
65.00,1.00,264.94,-2.88,-63.25,-2.06,3.62,0.75,55.82,3.18
65.00,2.00,250.44,-12.94,21.75,-1.88,-3.75,6.25,55.82,3.18
65.00,0.00,264.69,10.75,-122.19,8.56,-0.12,-3.12,56.38,3.20
65.00,1.00,264.94,-2.88,-63.19,-2.38,3.19,0.25,56.38,3.20
65.00,2.00,250.31,-12.94,21.75,-2.94,-2.88,5.94,56.38,3.20
65.00,0.00,264.62,10.75,-122.38,11.12,-1.06,2.00,57.10,3.22
65.00,1.00,264.88,-2.94,-63.19,-2.69,3.06,-0.25,57.10,3.22
65.00,2.00,250.19,-12.94,21.81,-3.50,-2.81,4.81,57.10,3.22
65.00,0.00,264.56,10.75,-122.62,9.00,0.06,1.19,57.72,3.24
65.00,1.00,264.88,-2.94,-63.12,-2.44,1.94,-0.25,57.72,3.24
65.00,2.00,250.06,-12.94,21.88,-3.81,-3.62,4.38,57.72,3.24
65.00,0.00,264.50,10.75,-122.75,5.94,1.19,-1.50,58.16,3.26
65.00,1.00,264.88,-2.94,-63.06,-2.69,1.44,-0.19,58.16,3.26
65.00,2.00,249.94,-12.88,21.94,-3.00,-3.25,4.00,58.16,3.26
65.00,0.00,264.44,10.75,-122.88,8.38,0.31,-0.25,58.64,3.28
65.00,1.00,264.81,-3.00,-63.00,-2.38,1.12,-0.25,58.64,3.28
65.00,2.00,249.88,-12.88,21.94,-1.50,-2.56,3.19,58.64,3.28
65.00,0.00,264.31,10.75,-123.06,11.31,0.56,2.62,59.28,3.30
65.00,1.00,264.81,-3.00,-63.00,-1.81,1.00,-0.19,59.28,3.30
65.00,2.00,249.81,-12.81,22.00,-1.81,-3.06,2.62,59.28,3.30
65.00,0.00,264.12,10.81,-123.25,9.12,2.19,1.56,59.80,3.32
65.00,1.00,264.81,-3.00,-62.94,-1.31,0.56,-0.25,59.80,3.32
65.00,2.00,249.75,-12.81,22.00,-1.62,-3.12,1.88,59.80,3.32
65.00,0.00,264.00,10.88,-123.44,7.62,1.88,-0.94,60.20,3.34
65.00,1.00,264.81,-3.00,-62.94,-1.56,0.25,-0.31,60.20,3.34
65.00,2.00,249.75,-12.75,22.06,-0.50,-1.69,0.94,60.20,3.34
65.00,0.00,263.88,10.88,-123.62,10.06,-0.19,2.44,60.63,3.36
65.00,1.00,264.88,-3.00,-62.88,-1.56,-0.62,-0.69,60.63,3.36
65.00,2.00,249.75,-12.75,22.06,1.19,-1.62,0.12,60.63,3.36
65.00,0.00,263.69,10.94,-123.81,11.00,-0.12,5.00,61.08,3.38
65.00,1.00,264.88,-3.06,-62.88,-1.44,-0.06,-1.00,61.08,3.38
65.00,2.00,249.69,-12.69,22.00,1.88,-2.62,0.56,61.08,3.38
65.00,0.00,263.44,11.06,-124.00,9.56,2.44,5.69,61.46,3.40
65.00,1.00,264.88,-3.06,-62.81,-1.12,0.88,-1.06,61.46,3.40
65.00,2.00,249.69,-12.62,21.94,1.69,-3.12,1.25,61.46,3.40
65.00,0.00,263.19,11.19,-124.12,6.56,5.12,3.25,61.69,3.42
65.00,1.00,264.88,-3.12,-62.81,-1.31,1.12,-0.94,61.69,3.42
65.00,2.00,249.69,-12.62,21.94,1.81,-2.81,1.44,61.69,3.42
65.00,0.00,262.88,11.25,-124.25,5.56,4.75,1.88,61.85,3.44
65.00,1.00,264.88,-3.12,-62.81,-1.19,1.69,-0.50,61.85,3.44
65.00,2.00,249.62,-12.56,21.88,2.31,-3.44,1.94,61.85,3.44
65.00,0.00,262.69,11.31,-124.38,7.56,1.62,4.25,62.08,3.46
65.00,1.00,264.88,-3.12,-62.81,-1.19,2.50,0.00,62.08,3.46
65.00,2.00,249.56,-12.50,21.81,2.81,-2.94,2.50,62.08,3.46
65.00,0.00,262.44,11.44,-124.56,8.50,0.62,7.44,62.36,3.48
65.00,1.00,264.81,-3.19,-62.75,-1.62,2.94,0.38,62.36,3.48
65.00,2.00,249.50,-12.50,21.75,2.75,-3.06,2.81,62.36,3.48
65.00,0.00,262.19,11.62,-124.75,7.38,1.50,8.38,62.56,3.50
65.00,1.00,264.75,-3.19,-62.75,-1.88,3.31,0.94,62.56,3.50
65.00,2.00,249.44,-12.44,21.62,3.25,-3.06,3.50,62.56,3.50
65.00,0.00,261.94,11.75,-124.81,3.31,3.12,5.00,62.61,3.52
65.00,1.00,264.69,-3.19,-62.75,-2.00,3.94,1.38,62.61,3.52
65.00,2.00,249.38,-12.44,21.56,2.38,-3.25,4.31,62.61,3.52
65.00,0.00,261.81,11.75,-124.88,2.25,1.38,1.62,62.62,3.54
65.00,1.00,264.62,-3.19,-62.69,-1.62,3.56,1.56,62.62,3.54
65.00,2.00,249.25,-12.38,21.50,2.00,-3.38,4.44,62.62,3.54
65.00,0.00,261.75,11.81,-124.94,4.69,-1.44,2.75,62.79,3.56
65.00,1.00,264.56,-3.25,-62.69,-1.69,2.94,1.88,62.79,3.56
65.00,2.00,249.19,-12.38,21.44,1.19,-3.38,4.12,62.79,3.56
65.00,0.00,261.69,11.81,-125.12,6.75,-2.50,4.25,63.05,3.58
65.00,1.00,264.50,-3.25,-62.69,-1.38,2.69,1.81,63.05,3.58
65.00,2.00,249.06,-12.31,21.38,1.56,-3.06,3.94,63.05,3.58
65.00,0.00,261.62,11.88,-125.19,4.38,-1.62,3.38,63.17,3.60
65.00,1.00,264.44,-3.19,-62.69,-2.31,2.44,2.00,63.17,3.60
65.00,2.00,249.00,-12.31,21.31,1.75,-3.25,4.19,63.17,3.60
65.00,0.00,261.56,11.88,-125.25,2.94,0.25,1.31,63.25,3.62
65.00,1.00,264.38,-3.19,-62.62,-2.12,2.31,1.75,63.25,3.62
65.00,2.00,248.88,-12.31,21.31,1.44,-3.06,4.56,63.25,3.62
65.00,0.00,261.50,11.94,-125.31,3.50,1.56,1.12,63.37,3.64
65.00,1.00,264.31,-3.19,-62.62,-2.62,2.12,1.25,63.37,3.64
65.00,2.00,248.81,-12.25,21.25,1.00,-3.12,4.62,63.37,3.64
65.00,0.00,261.38,12.00,-125.44,5.31,1.50,1.88,63.57,3.66
65.00,1.00,264.31,-3.19,-62.56,-2.38,2.38,0.81,63.57,3.66
65.00,2.00,248.69,-12.25,21.19,1.12,-3.06,4.19,63.57,3.66
65.00,0.00,261.19,12.06,-125.56,5.75,2.19,2.69,63.80,3.68
65.00,1.00,264.25,-3.25,-62.56,-2.50,2.19,0.94,63.80,3.68
65.00,2.00,248.62,-12.19,21.12,1.06,-3.00,4.06,63.80,3.68
65.00,0.00,260.94,12.12,-125.62,4.56,4.69,1.81,63.94,3.70
65.00,1.00,264.19,-3.25,-62.50,-3.06,1.31,0.81,63.94,3.70
65.00,2.00,248.56,-12.19,21.12,1.62,-2.62,3.75,63.94,3.70
65.00,0.00,260.69,12.19,-125.69,3.88,5.81,0.94,64.12,3.72
65.00,1.00,264.19,-3.25,-62.50,-2.94,1.62,0.75,64.12,3.72
65.00,2.00,248.44,-12.19,21.06,0.25,-1.75,3.62,64.12,3.72
65.00,0.00,260.38,12.31,-125.75,3.88,6.06,0.81,64.34,3.74
65.00,1.00,264.12,-3.25,-62.38,-4.19,2.44,0.38,64.34,3.74
65.00,2.00,248.38,-12.19,21.06,-0.62,-2.12,4.19,64.34,3.74
65.00,0.00,260.12,12.38,-125.81,4.19,5.12,1.00,64.57,3.76
65.00,1.00,264.12,-3.31,-62.38,-4.31,3.25,0.50,64.57,3.76
65.00,2.00,248.25,-12.12,21.06,-0.44,-3.25,4.75,64.57,3.76
65.00,0.00,259.94,12.44,-125.88,4.00,5.12,1.06,64.71,3.78
65.00,1.00,264.06,-3.31,-62.25,-3.69,2.62,0.88,64.71,3.78
65.00,2.00,248.19,-12.12,21.00,1.00,-3.31,4.56,64.71,3.78
65.00,0.00,259.69,12.50,-125.94,2.56,4.94,0.31,64.76,3.80
65.00,1.00,264.00,-3.31,-62.25,-3.56,2.81,1.44,64.76,3.80
65.00,2.00,248.06,-12.06,20.94,1.50,-2.81,4.56,64.76,3.80
65.00,0.00,259.50,12.56,-125.94,2.12,5.50,-0.75,64.91,3.82
65.00,1.00,263.94,-3.31,-62.19,-3.62,3.38,1.50,64.91,3.82
65.00,2.00,247.94,-12.06,20.94,-0.94,-2.81,5.38,64.91,3.82
65.00,0.00,259.31,12.56,-125.94,2.31,5.94,-1.94,65.12,3.84
65.00,1.00,263.88,-3.31,-62.12,-3.56,2.94,1.06,65.12,3.84
65.00,2.00,247.81,-12.06,20.94,-1.81,-2.25,5.38,65.12,3.84
65.00,0.00,259.12,12.62,-126.00,3.31,5.25,-2.12,65.33,3.86
65.00,1.00,263.81,-3.31,-62.06,-4.44,3.38,0.56,65.33,3.86
65.00,2.00,247.75,-12.06,20.94,-1.12,-1.06,4.62,65.33,3.86
65.00,0.00,259.00,12.62,-126.00,3.94,4.62,-0.94,65.58,3.88
65.00,1.00,263.75,-3.38,-61.94,-3.88,3.50,0.50,65.58,3.88
65.00,2.00,247.62,-12.06,20.94,-1.19,-0.69,4.69,65.58,3.88
65.00,0.00,258.81,12.62,-126.06,2.62,4.94,-1.31,65.77,3.90
65.00,1.00,263.69,-3.38,-61.88,-5.06,3.62,0.62,65.77,3.90
65.00,2.00,247.56,-12.12,21.00,-1.31,-0.25,5.00,65.77,3.90
65.00,0.00,258.75,12.62,-126.06,1.06,3.94,-2.56,65.91,3.92
65.00,1.00,263.62,-3.44,-61.81,-5.00,4.12,0.69,65.91,3.92
65.00,2.00,247.44,-12.19,21.00,-1.81,-0.19,5.44,65.91,3.92
65.00,0.00,258.75,12.62,-126.06,1.44,1.44,-2.94,66.11,3.94
65.00,1.00,263.56,-3.44,-61.69,-4.62,3.69,1.06,66.11,3.94
65.00,2.00,247.31,-12.19,21.00,-2.62,0.19,5.62,66.11,3.94
65.00,0.00,258.81,12.56,-126.06,1.56,0.44,-2.25,66.33,3.96
65.00,1.00,263.50,-3.44,-61.62,-4.44,3.88,1.25,66.33,3.96
65.00,2.00,247.19,-12.25,21.06,-2.94,0.31,5.12,66.33,3.96
65.00,0.00,258.81,12.50,-126.00,-1.75,1.62,-4.94,66.39,3.98
65.00,1.00,263.44,-3.50,-61.56,-4.62,3.94,1.38,66.39,3.98
65.00,2.00,247.12,-12.25,21.12,-2.88,0.25,5.00,66.39,3.98
65.00,0.00,258.94,12.44,-125.94,-2.75,0.31,-6.62,66.30,4.00
65.00,1.00,263.38,-3.50,-61.44,-4.38,3.25,1.00,66.30,4.00
65.00,2.00,247.00,-12.31,21.12,-1.00,0.62,4.81,66.30,4.00
65.00,0.00,259.12,12.31,-125.94,-0.81,-1.12,-3.69,66.28,4.02
65.00,1.00,263.31,-3.50,-61.38,-4.50,3.75,0.81,66.28,4.02
65.00,2.00,246.94,-12.38,21.06,-0.44,0.94,5.31,66.28,4.02
65.00,0.00,259.12,12.31,-125.94,-0.31,0.44,-1.12,66.35,4.04
65.00,1.00,263.25,-3.56,-61.31,-4.69,4.00,0.62,66.35,4.04
65.00,2.00,246.81,-12.44,21.12,-1.69,0.69,5.75,66.35,4.04
65.00,0.00,259.06,12.31,-125.88,-1.38,2.31,-0.94,66.40,4.06
65.00,1.00,263.19,-3.62,-61.25,-4.69,4.62,0.38,66.40,4.06
65.00,2.00,246.69,-12.50,21.12,-2.38,1.50,5.62,66.40,4.06
65.00,0.00,259.06,12.31,-125.81,-2.06,2.38,-2.19,66.41,4.08
65.00,1.00,263.12,-3.62,-61.12,-4.62,4.56,0.38,66.41,4.08
65.00,2.00,246.56,-12.56,21.19,-2.38,1.38,4.75,66.41,4.08
65.00,0.00,259.00,12.31,-125.81,-1.88,1.88,-2.31,66.39,4.10
65.00,1.00,263.06,-3.69,-61.06,-5.12,4.75,-0.19,66.39,4.10
65.00,2.00,246.50,-12.62,21.19,-1.38,1.50,4.19,66.39,4.10
65.00,0.00,259.06,12.31,-125.75,-1.62,-0.44,-2.62,66.40,4.12
65.00,1.00,263.06,-3.75,-60.94,-4.50,4.62,-0.19,66.40,4.12
65.00,2.00,246.44,-12.62,21.19,-1.81,0.69,4.69,66.40,4.12
65.00,0.00,259.19,12.25,-125.75,0.25,-3.00,-0.75,66.50,4.14
65.00,1.00,263.00,-3.75,-60.88,-4.56,4.19,0.06,66.50,4.14
65.00,2.00,246.31,-12.69,21.19,-1.88,0.75,4.81,66.50,4.14
65.00,0.00,259.31,12.19,-125.75,-0.19,-2.00,0.00,66.60,4.16
65.00,1.00,262.94,-3.81,-60.81,-4.62,4.31,0.38,66.60,4.16
65.00,2.00,246.25,-12.75,21.25,-2.25,0.38,4.50,66.60,4.16
65.00,0.00,259.38,12.19,-125.75,-0.81,-1.06,-1.12,66.69,4.18
65.00,1.00,262.88,-3.88,-60.69,-4.31,3.56,0.38,66.69,4.18
65.00,2.00,246.12,-12.75,21.31,-2.69,-0.19,4.06,66.69,4.18
65.00,0.00,259.44,12.12,-125.69,-0.06,-1.25,-1.50,66.80,4.20
65.00,1.00,262.81,-3.88,-60.62,-4.19,3.31,0.12,66.80,4.20
65.00,2.00,246.06,-12.81,21.31,-2.31,0.31,3.19,66.80,4.20
65.00,0.00,259.50,12.12,-125.75,1.44,-2.19,-0.88,66.97,4.22
65.00,1.00,262.81,-3.94,-60.56,-3.38,2.75,-0.38,66.97,4.22
65.00,2.00,246.00,-12.81,21.38,-1.88,0.06,2.06,66.97,4.22
65.00,0.00,259.56,12.06,-125.75,2.00,-2.00,0.06,67.16,4.24
65.00,1.00,262.75,-3.94,-60.50,-3.69,2.19,-0.25,67.16,4.24
65.00,2.00,246.00,-12.81,21.44,-1.94,0.06,1.75,67.16,4.24
65.00,0.00,259.56,12.06,-125.81,1.44,-0.81,-0.06,67.31,4.26
65.00,1.00,262.75,-3.94,-60.44,-3.62,1.44,-0.50,67.31,4.26
65.00,2.00,245.94,-12.81,21.44,-1.75,-0.25,1.31,67.31,4.26
65.00,0.00,259.56,12.06,-125.81,1.00,0.00,0.06,67.44,4.28
65.00,1.00,262.75,-4.00,-60.38,-3.69,1.94,-0.69,67.44,4.28
65.00,2.00,245.94,-12.81,21.50,-1.50,-0.62,1.12,67.44,4.28
65.00,0.00,259.56,12.06,-125.81,0.88,0.38,0.44,67.58,4.30
65.00,1.00,262.75,-4.00,-60.31,-3.81,1.44,-0.44,67.58,4.30
65.00,2.00,245.88,-12.81,21.50,-2.06,-1.38,1.44,67.58,4.30
65.00,0.00,259.50,12.12,-125.81,0.62,1.00,0.56,67.72,4.32
65.00,1.00,262.69,-4.00,-60.19,-3.56,0.38,-0.31,67.72,4.32
65.00,2.00,245.88,-12.81,21.56,-2.31,-0.94,0.94,67.72,4.32
65.00,0.00,259.44,12.12,-125.81,0.06,1.62,0.94,67.84,4.34
65.00,1.00,262.69,-4.00,-60.12,-3.44,-0.06,-0.50,67.84,4.34
65.00,2.00,245.81,-12.81,21.62,-2.38,-0.25,1.00,67.84,4.34
65.00,0.00,259.38,12.19,-125.81,-0.25,1.81,1.31,67.88,4.36
65.00,1.00,262.69,-4.00,-60.06,-4.00,2.25,-0.38,67.88,4.36
65.00,2.00,245.81,-12.81,21.62,-1.12,-0.25,0.81,67.88,4.36
65.00,0.00,259.31,12.19,-125.75,-1.31,1.94,1.00,67.87,4.38
65.00,1.00,262.69,-4.06,-60.00,-3.38,2.06,-0.06,67.87,4.38
65.00,2.00,245.75,-12.81,21.62,-1.00,-1.38,1.56,67.87,4.38
65.00,0.00,259.25,12.25,-125.75,-1.62,1.50,0.62,67.83,4.40
65.00,1.00,262.62,-4.06,-59.94,-2.50,1.75,0.19,67.83,4.40
65.00,2.00,245.75,-12.81,21.62,-0.81,-1.75,1.62,67.83,4.40
65.00,0.00,259.19,12.25,-125.69,-1.75,1.31,0.44,67.81,4.42
65.00,1.00,262.62,-4.06,-59.94,-2.19,1.56,0.50,67.81,4.42
65.00,2.00,245.69,-12.75,21.62,-1.31,-1.44,1.69,67.81,4.42
65.00,0.00,259.19,12.25,-125.69,-0.62,0.19,0.88,67.90,4.44
65.00,1.00,262.56,-4.06,-59.88,-2.69,1.69,0.62,67.90,4.44
65.00,2.00,245.62,-12.75,21.69,-2.50,-1.06,2.06,67.90,4.44
65.00,0.00,259.19,12.25,-125.69,-0.25,1.00,0.88,67.97,4.46
65.00,1.00,262.56,-4.12,-59.81,-3.19,1.88,0.12,67.97,4.46
65.00,2.00,245.62,-12.75,21.75,-1.81,-1.06,2.38,67.97,4.46
65.00,0.00,259.12,12.31,-125.69,-0.69,2.25,0.06,67.99,4.48
65.00,1.00,262.56,-4.12,-59.75,-2.94,2.81,0.06,67.99,4.48
65.00,2.00,245.56,-12.75,21.75,-0.94,-1.25,2.44,67.99,4.48
65.00,0.00,259.06,12.31,-125.62,-0.75,1.94,-0.06,68.02,4.50
65.00,1.00,262.50,-4.19,-59.69,-2.56,3.31,0.00,68.02,4.50
65.00,2.00,245.50,-12.75,21.75,-1.44,-0.94,2.75,68.02,4.50
65.00,0.00,259.00,12.31,-125.62,-0.75,0.75,0.06,68.17,4.52
65.00,1.00,262.44,-4.19,-59.62,-2.25,3.25,0.25,68.17,4.52
65.00,2.00,245.44,-12.75,21.81,-3.81,-1.31,3.00,68.17,4.52
65.00,0.00,259.00,12.31,-125.62,-0.38,0.88,0.00,68.31,4.54
65.00,1.00,262.44,-4.25,-59.62,-1.94,2.88,0.06,68.31,4.54
65.00,2.00,245.38,-12.75,21.88,-3.31,-0.94,2.69,68.31,4.54
65.00,0.00,258.94,12.38,-125.62,-0.25,1.44,-0.50,68.38,4.56
65.00,1.00,262.38,-4.25,-59.62,-1.25,2.88,-0.12,68.38,4.56
65.00,2.00,245.31,-12.75,21.88,-1.56,0.38,2.06,68.38,4.56
65.00,0.00,258.88,12.38,-125.56,-0.62,1.06,-0.56,68.42,4.58
65.00,1.00,262.38,-4.31,-59.56,-1.31,3.25,-0.44,68.42,4.58
65.00,2.00,245.25,-12.81,21.88,-1.44,0.31,2.06,68.42,4.58
65.00,0.00,258.88,12.38,-125.56,-0.69,2.06,-0.50,68.50,4.60
65.00,1.00,262.31,-4.31,-59.56,-1.62,2.88,-0.19,68.50,4.60
65.00,2.00,245.19,-12.81,21.94,-2.38,-0.50,2.25,68.50,4.60
65.00,0.00,258.81,12.38,-125.56,-1.31,2.00,-0.44,68.53,4.62
65.00,1.00,262.31,-4.31,-59.50,-1.25,2.25,-0.12,68.53,4.62
65.00,2.00,245.19,-12.81,21.94,-1.94,-0.19,2.12,68.53,4.62
65.00,0.00,258.81,12.38,-125.50,-1.50,0.75,-0.69,68.55,4.64
65.00,1.00,262.25,-4.38,-59.50,-1.38,2.31,0.06,68.55,4.64
65.00,2.00,245.12,-12.88,22.00,-1.94,0.19,1.88,68.55,4.64
65.00,0.00,258.81,12.38,-125.50,-1.38,-0.06,-0.81,68.58,4.66
65.00,1.00,262.25,-4.38,-59.50,-1.75,1.81,-0.31,68.58,4.66
65.00,2.00,245.06,-12.88,22.00,-2.00,0.69,1.50,68.58,4.66
65.00,0.00,258.88,12.38,-125.44,-1.69,-0.44,-1.31,68.56,4.68
65.00,1.00,262.25,-4.38,-59.44,-1.69,1.62,-0.69,68.56,4.68
65.00,2.00,245.06,-12.88,22.06,-1.19,1.12,0.88,68.56,4.68
65.00,0.00,258.88,12.38,-125.38,-1.56,-0.94,-1.38,68.53,4.70
65.00,1.00,262.19,-4.44,-59.44,-1.25,2.06,-0.75,68.53,4.70
65.00,2.00,245.06,-12.94,22.06,-1.00,1.19,0.75,68.53,4.70
65.00,0.00,259.00,12.31,-125.38,-1.56,-1.19,-1.06,68.52,4.72
65.00,1.00,262.19,-4.44,-59.38,-1.69,1.62,-0.81,68.52,4.72
65.00,2.00,245.06,-12.94,22.06,-1.38,0.75,1.00,68.52,4.72
65.00,0.00,259.06,12.31,-125.31,-1.88,-1.12,-1.25,68.50,4.74
65.00,1.00,262.19,-4.50,-59.38,-1.75,1.88,-0.44,68.50,4.74
65.00,2.00,245.00,-12.94,22.12,-1.44,0.62,1.50,68.50,4.74
65.00,0.00,259.12,12.25,-125.31,-2.12,-0.88,-1.50,68.46,4.76
65.00,1.00,262.19,-4.50,-59.31,-1.56,1.31,-0.31,68.46,4.76
65.00,2.00,245.00,-13.00,22.12,-1.38,1.12,1.50,68.46,4.76
65.00,0.00,259.25,12.19,-125.25,-1.44,-1.94,-1.94,68.46,4.78
65.00,1.00,262.12,-4.50,-59.31,-1.62,1.44,-0.12,68.46,4.78
65.00,2.00,244.94,-13.00,22.12,-1.31,1.06,1.62,68.46,4.78
65.00,0.00,259.38,12.19,-125.25,0.06,-1.69,-0.81,68.49,4.80
65.00,1.00,262.12,-4.50,-59.31,-0.69,1.81,-0.12,68.49,4.80
65.00,2.00,244.94,-13.06,22.19,-0.69,1.19,1.44,68.49,4.80
65.00,0.00,259.44,12.12,-125.25,-0.50,-0.31,-1.12,68.50,4.82
65.00,1.00,262.12,-4.56,-59.25,-1.19,1.94,0.19,68.50,4.82
65.00,2.00,244.88,-13.06,22.19,-0.56,0.75,1.44,68.50,4.82
65.00,0.00,259.44,12.12,-125.25,-0.75,0.12,-1.38,68.54,4.84
65.00,1.00,262.06,-4.56,-59.25,-1.00,1.81,0.38,68.54,4.84
65.00,2.00,244.88,-13.12,22.19,-1.69,0.25,2.25,68.54,4.84
65.00,0.00,259.44,12.12,-125.25,-0.38,0.69,-1.19,68.62,4.86
65.00,1.00,262.06,-4.56,-59.25,-1.44,1.88,0.50,68.62,4.86
65.00,2.00,244.81,-13.12,22.19,-2.06,0.00,2.06,68.62,4.86
65.00,0.00,259.44,12.12,-125.25,-0.19,1.06,-0.88,68.69,4.88
65.00,1.00,262.06,-4.62,-59.19,-1.38,2.62,0.12,68.69,4.88
65.00,2.00,244.75,-13.12,22.25,-1.44,0.12,1.88,68.69,4.88
65.00,0.00,259.44,12.06,-125.19,-0.44,1.00,-0.81,68.72,4.90
65.00,1.00,262.00,-4.62,-59.19,-1.19,2.75,0.56,68.72,4.90
65.00,2.00,244.75,-13.12,22.25,-1.06,-0.69,1.94,68.72,4.90
65.00,0.00,259.44,12.06,-125.19,-1.12,1.50,-0.69,68.77,4.92
65.00,1.00,262.00,-4.62,-59.12,-1.44,1.38,0.88,68.77,4.92
65.00,2.00,244.69,-13.12,22.25,-2.31,-1.19,2.44,68.77,4.92
65.00,0.00,259.38,12.12,-125.19,-0.50,2.50,-0.19,68.90,4.94
65.00,1.00,261.94,-4.69,-59.12,-1.69,0.88,0.44,68.90,4.94
65.00,2.00,244.62,-13.12,22.31,-3.12,-0.69,2.31,68.90,4.94
65.00,0.00,259.25,12.12,-125.19,-0.38,3.00,-0.12,68.97,4.96
65.00,1.00,261.94,-4.69,-59.12,-2.12,2.25,0.56,68.97,4.96
65.00,2.00,244.56,-13.12,22.38,-1.88,-0.25,1.38,68.97,4.96
65.00,0.00,259.19,12.19,-125.12,-0.69,2.69,-0.31,69.00,4.98
65.00,1.00,261.94,-4.75,-59.06,-2.12,2.44,0.62,69.00,4.98
65.00,2.00,244.56,-13.12,22.38,-1.12,-0.62,1.50,69.00,4.98
65.00,0.00,259.12,12.19,-125.12,-1.62,2.06,-0.44,68.98,5.00
65.00,1.00,261.88,-4.75,-59.06,-1.50,1.12,0.62,68.98,5.00
65.00,2.00,244.50,-13.12,22.38,-1.25,-1.38,1.75,68.98,5.00
65.00,0.00,259.06,12.19,-125.06,-1.88,1.56,-0.44,68.95,5.02
65.00,1.00,261.88,-4.75,-59.06,-1.25,1.44,0.50,68.95,5.02
65.00,2.00,244.50,-13.12,22.38,-1.38,-0.81,1.62,68.95,5.02
65.00,0.00,259.00,12.25,-125.06,-1.06,1.12,-0.62,68.95,5.04
65.00,1.00,261.88,-4.75,-59.00,-1.00,1.31,0.12,68.95,5.04
65.00,2.00,244.44,-13.12,22.44,-1.00,-0.44,1.44,68.95,5.04
65.00,0.00,259.06,12.19,-125.00,0.00,0.38,-0.75,69.01,5.06
65.00,1.00,261.81,-4.75,-59.00,-1.38,1.25,0.31,69.01,5.06
65.00,2.00,244.38,-13.12,22.44,-1.31,0.25,1.19,69.01,5.06
65.00,0.00,259.06,12.19,-125.06,0.50,-0.06,-0.56,69.12,5.08
65.00,1.00,261.81,-4.81,-59.00,-1.50,1.25,0.31,69.12,5.08
65.00,2.00,244.38,-13.19,22.50,-1.62,0.19,1.00,69.12,5.08
65.00,0.00,259.06,12.19,-125.06,0.50,0.19,-0.25,69.22,5.10
65.00,1.00,261.81,-4.81,-59.00,0.12,-0.62,0.81,69.22,5.10
65.00,2.00,244.38,-13.19,22.50,-1.62,-0.12,1.31,69.22,5.10
65.00,0.00,259.06,12.19,-125.06,0.00,0.38,-0.44,69.32,5.12
65.00,1.00,261.81,-4.75,-59.00,1.00,-1.56,1.69,69.32,5.12
65.00,2.00,244.31,-13.19,22.50,-2.00,-0.56,1.62,69.32,5.12
65.00,0.00,259.06,12.19,-125.00,-0.69,-0.44,-0.94,69.40,5.14
65.00,1.00,261.81,-4.75,-59.00,-0.56,-0.25,1.44,69.40,5.14
65.00,2.00,244.25,-13.19,22.56,-2.25,-0.75,1.50,69.40,5.14
65.00,0.00,259.12,12.19,-125.00,-1.50,-0.94,-1.00,69.47,5.16
65.00,1.00,261.81,-4.75,-59.00,-0.94,0.38,0.62,69.47,5.16
65.00,2.00,244.25,-13.19,22.62,-3.00,-1.06,1.62,69.47,5.16
65.00,0.00,259.19,12.19,-125.00,-1.25,-0.69,-0.69,69.52,5.18
65.00,1.00,261.81,-4.75,-59.00,-1.56,0.94,0.31,69.52,5.18
65.00,2.00,244.19,-13.19,22.62,-2.25,0.06,1.19,69.52,5.18
65.00,0.00,259.19,12.12,-124.94,-1.06,-0.50,-0.19,69.53,5.20
65.00,1.00,261.75,-4.75,-58.94,-1.81,1.44,-0.06,69.53,5.20
65.00,2.00,244.19,-13.19,22.69,-1.31,-0.12,0.75,69.53,5.20
65.00,0.00,259.25,12.12,-124.94,-1.19,-0.88,0.19,69.53,5.22
65.00,1.00,261.75,-4.75,-58.94,-1.31,1.19,0.12,69.53,5.22
65.00,2.00,244.19,-13.19,22.69,-1.19,-0.06,0.81,69.53,5.22
65.00,0.00,259.25,12.12,-124.94,-0.88,-0.56,0.38,69.59,5.24
65.00,1.00,261.75,-4.81,-58.88,-1.62,1.25,0.06,69.59,5.24
65.00,2.00,244.12,-13.19,22.75,-2.19,-0.12,1.31,69.59,5.24
65.00,0.00,259.25,12.12,-124.88,-0.81,0.44,0.19,69.66,5.26
65.00,1.00,261.75,-4.81,-58.88,-1.25,1.19,-0.25,69.66,5.26
65.00,2.00,244.12,-13.19,22.75,-2.12,0.00,1.31,69.66,5.26
65.00,0.00,259.25,12.12,-124.88,-0.44,-0.38,0.00,69.71,5.28
65.00,1.00,261.69,-4.81,-58.88,-1.75,1.19,-0.44,69.71,5.28
65.00,2.00,244.06,-13.19,22.81,-1.50,0.25,0.75,69.71,5.28
65.00,0.00,259.31,12.12,-124.88,-0.88,-1.56,0.06,69.74,5.30
65.00,1.00,261.69,-4.88,-58.81,-2.19,0.75,-0.62,69.74,5.30
65.00,2.00,244.06,-13.25,22.81,-1.50,0.38,0.50,69.74,5.30
65.00,0.00,259.38,12.12,-124.88,-2.00,-1.69,0.06,69.75,5.32
65.00,1.00,261.69,-4.88,-58.75,-2.62,0.81,-0.56,69.75,5.32
65.00,2.00,244.06,-13.25,22.81,-2.25,0.62,0.62,69.75,5.32
65.00,0.00,259.44,12.06,-124.81,-2.19,-1.00,-0.06,69.77,5.34
65.00,1.00,261.69,-4.88,-58.75,-2.44,1.00,-0.88,69.77,5.34
65.00,2.00,244.06,-13.25,22.94,-2.56,0.44,0.88,69.77,5.34
65.00,0.00,259.50,12.06,-124.81,-2.12,-0.69,-0.44,69.78,5.36
65.00,1.00,261.69,-4.94,-58.69,-2.38,0.94,-0.88,69.78,5.36
65.00,2.00,244.00,-13.25,22.94,-2.38,0.69,0.50,69.78,5.36
65.00,0.00,259.56,12.06,-124.75,-2.31,-0.06,-0.44,69.78,5.38
65.00,1.00,261.75,-4.94,-58.62,-2.38,1.06,-0.75,69.78,5.38
65.00,2.00,244.00,-13.25,23.00,-2.25,1.12,0.38,69.78,5.38
65.00,0.00,259.56,12.06,-124.69,-2.81,0.06,-0.56,69.77,5.40
65.00,1.00,261.75,-4.94,-58.62,-2.06,0.56,-0.88,69.77,5.40
65.00,2.00,244.00,-13.25,23.06,-2.56,0.50,0.69,69.77,5.40
65.00,0.00,259.62,12.06,-124.62,-2.19,-1.50,-0.81,69.75,5.42
65.00,1.00,261.75,-5.00,-58.56,-1.62,0.75,-1.12,69.75,5.42
65.00,2.00,244.00,-13.31,23.06,-1.81,1.19,0.50,69.75,5.42
65.00,0.00,259.75,12.00,-124.62,-1.31,-2.31,0.75,69.78,5.44
65.00,1.00,261.75,-5.00,-58.56,-1.94,0.81,-1.44,69.78,5.44
65.00,2.00,244.00,-13.31,23.12,-1.88,1.31,0.12,69.78,5.44
65.00,0.00,259.81,12.00,-124.62,-0.69,-2.00,-0.06,69.83,5.46
65.00,1.00,261.75,-5.06,-58.50,-2.00,0.94,-1.38,69.83,5.46
65.00,2.00,244.00,-13.31,23.12,-1.81,1.50,0.00,69.83,5.46
65.00,0.00,259.88,12.00,-124.62,-0.25,-2.19,-0.38,69.90,5.48
65.00,1.00,261.81,-5.06,-58.44,-2.19,0.44,-1.31,69.90,5.48
65.00,2.00,244.00,-13.38,23.19,-1.75,1.62,-0.38,69.90,5.48
65.00,0.00,260.00,11.94,-124.62,-0.12,-2.31,-0.69,69.98,5.50
65.00,1.00,261.81,-5.12,-58.44,-2.31,0.88,-1.50,69.98,5.50
65.00,2.00,244.00,-13.38,23.25,-1.75,1.50,-0.31,69.98,5.50
65.00,0.00,260.06,11.94,-124.62,-0.38,-2.06,-0.31,70.08,5.52
65.00,1.00,261.88,-5.12,-58.38,-2.50,0.12,-1.25,70.08,5.52
65.00,2.00,244.00,-13.44,23.25,-2.25,0.81,0.62,70.08,5.52
65.00,0.00,260.12,11.88,-124.62,-1.19,-1.19,-0.44,70.12,5.54
65.00,1.00,261.88,-5.19,-58.31,-2.25,-0.94,-1.69,70.12,5.54
65.00,2.00,244.00,-13.44,23.31,-2.06,0.94,0.38,70.12,5.54
65.00,0.00,260.19,11.88,-124.62,-1.62,-0.56,-0.31,70.15,5.56
65.00,1.00,261.94,-5.19,-58.25,-3.00,0.00,-1.75,70.15,5.56
65.00,2.00,244.00,-13.44,23.38,-2.31,1.25,0.31,70.15,5.56
65.00,0.00,260.19,11.88,-124.56,-1.25,-0.62,-0.12,70.21,5.58
65.00,1.00,261.94,-5.25,-58.19,-2.88,1.50,-1.31,70.21,5.58
65.00,2.00,244.00,-13.50,23.38,-2.38,1.38,-0.12,70.21,5.58
65.00,0.00,260.19,11.88,-124.56,-1.12,-0.50,0.00,70.26,5.60
65.00,1.00,261.94,-5.25,-58.19,-2.94,0.94,-1.06,70.26,5.60
65.00,2.00,244.00,-13.50,23.50,-2.31,1.00,0.00,70.26,5.60
65.00,0.00,260.25,11.88,-124.56,-0.81,-0.56,-0.06,70.30,5.62
65.00,1.00,261.94,-5.31,-58.12,-2.00,0.38,-1.12,70.30,5.62
65.00,2.00,244.00,-13.50,23.56,-1.62,1.06,-0.19,70.30,5.62
65.00,0.00,260.25,11.88,-124.50,-0.88,0.31,0.06,70.33,5.64
65.00,1.00,262.00,-5.31,-58.06,-1.62,0.25,-1.25,70.33,5.64
65.00,2.00,244.00,-13.56,23.62,-1.44,0.75,-0.06,70.33,5.64
65.00,0.00,260.25,11.88,-124.50,-0.38,0.31,0.19,70.38,5.66
65.00,1.00,262.00,-5.38,-58.06,-1.56,-0.06,-1.38,70.38,5.66
65.00,2.00,244.00,-13.56,23.62,-1.31,1.31,-0.06,70.38,5.66
65.00,0.00,260.25,11.88,-124.50,0.81,0.19,0.19,70.46,5.68
65.00,1.00,262.06,-5.38,-58.00,-1.69,0.19,-1.50,70.46,5.68
65.00,2.00,244.00,-13.62,23.69,-0.94,1.56,-0.69,70.46,5.68
65.00,0.00,260.19,11.88,-124.56,1.75,0.81,-0.12,70.59,5.70
65.00,1.00,262.06,-5.44,-57.94,-1.12,-0.12,-1.50,70.59,5.70
65.00,2.00,244.06,-13.62,23.75,-0.81,1.06,-0.69,70.59,5.70
65.00,0.00,260.19,11.88,-124.56,2.19,2.00,-1.00,70.77,5.72
65.00,1.00,262.12,-5.44,-57.94,-0.94,-1.00,-1.25,70.77,5.72
65.00,2.00,244.06,-13.62,23.75,-1.56,0.88,-0.12,70.77,5.72
65.00,0.00,260.06,11.88,-124.56,3.19,2.56,-1.50,70.98,5.74
65.00,1.00,262.12,-5.44,-57.94,-0.31,-1.75,-1.12,70.98,5.74
65.00,2.00,244.06,-13.69,23.81,-1.19,0.88,-0.56,70.98,5.74
65.00,0.00,260.00,11.88,-124.62,3.50,2.19,-1.69,71.16,5.76
65.00,1.00,262.25,-5.50,-57.88,0.56,-2.44,-1.31,71.16,5.76
65.00,2.00,244.06,-13.69,23.88,-0.12,1.00,-0.94,71.16,5.76
65.00,0.00,260.00,11.88,-124.69,4.00,1.88,-1.56,71.31,5.78
65.00,1.00,262.25,-5.50,-57.88,1.38,-2.94,-1.62,71.31,5.78
65.00,2.00,244.06,-13.69,23.94,0.94,0.75,-1.38,71.31,5.78
65.00,0.00,259.94,11.88,-124.69,3.75,2.06,-2.12,71.42,5.80
65.00,1.00,262.38,-5.50,-57.88,2.38,-3.25,-1.31,71.42,5.80
65.00,2.00,244.12,-13.75,23.94,1.50,0.69,-1.50,71.42,5.80
65.00,0.00,259.88,11.81,-124.75,3.38,2.12,-2.62,71.53,5.82
65.00,1.00,262.44,-5.56,-57.94,3.12,-3.88,-0.94,71.53,5.82
65.00,2.00,244.19,-13.75,23.94,1.19,0.25,-1.75,71.53,5.82
65.00,0.00,259.88,11.81,-124.75,3.12,1.75,-2.94,71.63,5.84
65.00,1.00,262.50,-5.50,-57.94,3.38,-4.31,-0.94,71.63,5.84
65.00,2.00,244.19,-13.75,23.94,1.06,0.12,-2.56,71.63,5.84
