Iteration,IMUNo,OrientationX (deg),OrientationY,OrientationZ,GyroX (20rad/sec),GyroY,GyroZ,Elbow_Pos (rad),Time (sec)
74.00,0.00,291.62,2.31,-96.94,0.44,0.62,0.06,0.00,0.00
74.00,1.00,271.81,-1.88,-62.38,0.19,0.25,0.00,0.00,0.00
74.00,2.00,245.62,-14.88,23.31,0.50,-1.00,1.12,0.00,0.02
74.00,0.00,290.75,2.56,-96.69,-0.50,-0.50,-0.25,-0.01,1.02
74.00,1.00,271.62,-1.69,-62.00,-0.88,0.00,0.56,-0.01,1.02
74.00,2.00,245.00,-14.38,23.25,-0.44,0.12,-0.19,-0.01,1.02
74.00,0.00,290.81,2.56,-96.69,-0.44,-0.94,0.00,-0.01,1.04
74.00,1.00,271.62,-1.69,-62.00,-0.19,-0.19,0.44,-0.01,1.04
74.00,2.00,245.00,-14.38,23.25,-0.44,0.12,-0.38,-0.01,1.04
74.00,0.00,290.81,2.56,-96.69,0.06,-0.75,0.50,-0.01,1.06
74.00,1.00,271.62,-1.69,-62.00,0.12,0.19,0.12,-0.01,1.06
74.00,2.00,245.00,-14.38,23.25,0.19,0.44,-1.31,-0.01,1.06
74.00,0.00,290.81,2.56,-96.69,-0.38,-0.19,0.31,-0.03,1.08
74.00,1.00,271.62,-1.69,-62.00,-0.75,-0.19,0.75,-0.03,1.08
74.00,2.00,245.00,-14.38,23.25,0.06,0.19,-1.12,-0.03,1.08
74.00,0.00,290.81,2.56,-96.69,-0.56,0.31,0.00,-0.02,1.10
74.00,1.00,271.56,-1.69,-62.00,-1.19,-0.38,0.62,-0.02,1.10
74.00,2.00,245.06,-14.38,23.25,-0.88,-0.50,-0.81,-0.02,1.10
74.00,0.00,290.81,2.56,-96.69,0.06,-0.12,0.12,0.07,1.12
74.00,1.00,271.62,-1.62,-61.94,-1.00,-0.81,0.31,0.07,1.12
74.00,2.00,245.06,-14.38,23.31,-1.69,0.12,-0.12,0.07,1.12
74.00,0.00,290.81,2.56,-96.69,-0.56,-0.25,0.94,0.10,1.14
74.00,1.00,271.62,-1.62,-61.94,-0.50,0.25,0.38,0.10,1.14
74.00,2.00,245.06,-14.38,23.31,-1.19,0.25,-0.25,0.10,1.14
74.00,0.00,290.81,2.62,-96.69,-1.56,0.06,0.69,0.05,1.16
74.00,1.00,271.56,-1.62,-61.94,-1.12,0.69,1.25,0.05,1.16
74.00,2.00,245.06,-14.38,23.31,-0.69,-0.69,-0.12,0.05,1.16
74.00,0.00,290.81,2.62,-96.62,-1.81,-0.38,-0.12,-0.02,1.18
74.00,1.00,271.56,-1.62,-61.94,-1.38,0.56,1.38,-0.02,1.18
74.00,2.00,245.06,-14.31,23.31,-0.31,-0.69,0.25,-0.02,1.18
74.00,0.00,290.81,2.62,-96.62,-0.81,-0.38,-0.50,0.00,1.20
74.00,1.00,271.50,-1.62,-61.94,-0.56,0.94,1.38,0.00,1.20
74.00,2.00,245.00,-14.31,23.31,-1.12,-0.44,0.50,0.00,1.20
74.00,0.00,290.81,2.62,-96.62,0.12,0.19,0.50,0.05,1.22
74.00,1.00,271.44,-1.56,-61.94,-0.12,0.88,1.44,0.05,1.22
74.00,2.00,245.00,-14.31,23.38,-1.06,-0.25,0.50,0.05,1.22
74.00,0.00,290.75,2.62,-96.62,0.31,1.31,0.44,0.08,1.24
74.00,1.00,271.44,-1.56,-61.94,-0.56,-0.06,0.69,0.08,1.24
74.00,2.00,245.00,-14.31,23.38,-0.31,-0.31,-0.06,0.08,1.24
74.00,0.00,290.75,2.62,-96.62,0.38,1.56,0.19,0.10,1.26
74.00,1.00,271.44,-1.56,-61.88,-1.06,0.38,0.25,0.10,1.26
74.00,2.00,245.00,-14.31,23.38,0.12,-0.38,0.06,0.10,1.26
74.00,0.00,290.69,2.62,-96.62,0.44,0.75,0.44,0.13,1.28
74.00,1.00,271.44,-1.56,-61.88,-0.38,0.56,0.62,0.13,1.28
74.00,2.00,245.00,-14.31,23.38,-0.38,-0.31,0.75,0.13,1.28
74.00,0.00,290.69,2.62,-96.62,-0.25,1.25,0.56,0.19,1.30
74.00,1.00,271.44,-1.56,-61.88,-0.50,0.75,0.75,0.19,1.30
74.00,2.00,245.00,-14.38,23.38,-1.44,-0.25,1.38,0.19,1.30
74.00,0.00,290.62,2.62,-96.56,-0.69,1.88,0.25,0.25,1.32
74.00,1.00,271.38,-1.56,-61.88,-0.88,0.75,1.19,0.25,1.32
74.00,2.00,244.94,-14.38,23.38,-1.88,-0.69,1.81,0.25,1.32
74.00,0.00,290.62,2.62,-96.56,0.06,1.19,-0.06,0.30,1.34
74.00,1.00,271.38,-1.56,-61.88,-0.44,0.94,1.38,0.30,1.34
74.00,2.00,244.94,-14.38,23.44,-1.12,-0.75,1.06,0.30,1.34
74.00,0.00,290.62,2.62,-96.62,1.44,-0.38,0.62,0.36,1.36
74.00,1.00,271.31,-1.50,-61.88,-0.69,1.00,1.06,0.36,1.36
74.00,2.00,244.94,-14.31,23.44,0.19,-1.69,0.25,0.36,1.36
74.00,0.00,290.56,2.62,-96.62,1.31,0.62,1.00,0.34,1.38
74.00,1.00,271.31,-1.50,-61.88,-0.56,0.06,0.31,0.34,1.38
74.00,2.00,244.88,-14.31,23.38,1.69,-2.31,-0.06,0.34,1.38
74.00,0.00,290.50,2.69,-96.69,1.69,2.12,1.25,0.34,1.40
74.00,1.00,271.31,-1.50,-61.88,-0.50,-0.31,0.00,0.34,1.40
74.00,2.00,244.88,-14.25,23.38,1.88,-1.81,0.75,0.34,1.40
74.00,0.00,290.38,2.75,-96.75,3.56,3.19,2.56,0.51,1.42
74.00,1.00,271.31,-1.50,-61.88,0.31,0.06,0.25,0.51,1.42
74.00,2.00,244.88,-14.25,23.31,-0.06,-1.44,1.94,0.51,1.42
74.00,0.00,290.19,2.88,-96.81,5.06,3.88,4.50,0.76,1.44
74.00,1.00,271.31,-1.50,-61.88,0.00,-0.25,-0.25,0.76,1.44
74.00,2.00,244.81,-14.25,23.31,-0.31,-1.75,2.12,0.76,1.44
74.00,0.00,289.94,3.00,-96.94,6.62,5.12,5.81,1.05,1.46
74.00,1.00,271.31,-1.50,-61.88,-0.31,-0.75,-0.56,1.05,1.46
74.00,2.00,244.75,-14.25,23.31,0.62,-1.31,1.62,1.05,1.46
74.00,0.00,289.69,3.12,-97.12,8.00,5.62,6.50,1.38,1.48
74.00,1.00,271.31,-1.50,-61.88,0.31,-0.56,-0.38,1.38,1.48
74.00,2.00,244.75,-14.19,23.25,1.06,-0.62,1.50,1.38,1.48
74.00,0.00,289.44,3.25,-97.31,8.81,5.25,6.25,1.79,1.50
74.00,1.00,271.31,-1.50,-61.88,0.50,-0.38,-0.19,1.79,1.50
74.00,2.00,244.69,-14.25,23.25,0.25,-0.06,1.56,1.79,1.50
74.00,0.00,289.19,3.38,-97.50,10.00,5.25,5.81,2.24,1.52
74.00,1.00,271.31,-1.50,-61.88,0.25,-0.31,-0.44,2.24,1.52
74.00,2.00,244.69,-14.25,23.25,0.38,0.19,2.00,2.24,1.52
74.00,0.00,289.00,3.50,-97.69,11.50,3.94,5.62,2.75,1.54
74.00,1.00,271.31,-1.50,-61.88,0.38,-0.19,-0.44,2.75,1.54
74.00,2.00,244.62,-14.25,23.25,0.88,-0.06,2.25,2.75,1.54
74.00,0.00,288.88,3.56,-98.00,14.62,0.38,5.56,3.37,1.56
74.00,1.00,271.31,-1.50,-61.88,1.00,0.12,-0.31,3.37,1.56
74.00,2.00,244.62,-14.25,23.19,1.50,-0.19,2.06,3.37,1.56
74.00,0.00,288.75,3.69,-98.25,14.94,0.12,5.56,4.03,1.58
74.00,1.00,271.31,-1.50,-61.88,1.44,0.38,-0.44,4.03,1.58
74.00,2.00,244.56,-14.31,23.12,1.25,-0.25,1.75,4.03,1.58
74.00,0.00,288.62,3.75,-98.56,14.31,0.62,3.38,4.63,1.60
74.00,1.00,271.31,-1.50,-61.94,0.81,0.56,-0.25,4.63,1.60
74.00,2.00,244.56,-14.31,23.12,1.69,-0.44,1.56,4.63,1.60
74.00,0.00,288.50,3.81,-98.81,14.25,2.12,3.06,5.25,1.62
74.00,1.00,271.31,-1.50,-61.94,0.81,-0.12,-0.12,5.25,1.62
74.00,2.00,244.50,-14.31,23.06,1.06,-0.69,2.12,5.25,1.62
74.00,0.00,288.31,3.94,-99.12,14.38,4.19,3.88,5.95,1.64
74.00,1.00,271.31,-1.50,-61.94,1.25,-0.62,-1.00,5.95,1.64
74.00,2.00,244.44,-14.31,23.06,-0.25,-1.19,3.19,5.95,1.64
74.00,0.00,288.06,4.06,-99.38,15.44,6.50,5.88,6.69,1.66
74.00,1.00,271.38,-1.56,-62.00,1.19,0.38,-1.31,6.69,1.66
74.00,2.00,244.38,-14.31,23.06,-0.06,-0.81,3.44,6.69,1.66
74.00,0.00,287.75,4.19,-99.75,18.00,3.69,8.50,7.49,1.68
74.00,1.00,271.38,-1.56,-62.00,0.94,1.31,-0.69,7.49,1.68
74.00,2.00,244.31,-14.38,23.00,1.06,0.19,2.56,7.49,1.68
74.00,0.00,287.50,4.38,-100.12,19.25,-0.06,10.19,8.34,1.70
74.00,1.00,271.38,-1.56,-62.00,0.94,0.75,-0.19,8.34,1.70
74.00,2.00,244.25,-14.38,23.00,1.38,0.56,3.06,8.34,1.70
74.00,0.00,287.25,4.56,-100.44,16.19,2.06,8.12,9.09,1.72
74.00,1.00,271.38,-1.56,-62.00,0.56,0.75,-0.31,9.09,1.72
74.00,2.00,244.19,-14.38,22.94,0.56,-0.25,3.81,9.09,1.72
74.00,0.00,287.06,4.69,-100.75,14.31,3.00,5.12,9.76,1.74
74.00,1.00,271.38,-1.62,-62.00,0.69,0.44,0.06,9.76,1.74
74.00,2.00,244.12,-14.38,22.94,0.19,-1.56,4.38,9.76,1.74
74.00,0.00,287.00,4.75,-100.88,14.06,2.38,4.44,10.38,1.76
74.00,1.00,271.38,-1.62,-62.06,1.38,0.31,-0.25,10.38,1.76
74.00,2.00,244.00,-14.44,22.88,0.88,-0.75,4.19,10.38,1.76
74.00,0.00,286.75,4.94,-101.31,15.50,1.56,6.38,11.10,1.78
74.00,1.00,271.38,-1.62,-62.06,1.75,0.44,-0.56,11.10,1.78
74.00,2.00,243.94,-14.44,22.88,0.50,-1.12,3.94,11.10,1.78
74.00,0.00,286.50,5.06,-101.56,16.12,1.00,8.81,11.85,1.80
74.00,1.00,271.38,-1.62,-62.12,0.50,0.75,-0.75,11.85,1.80
74.00,2.00,243.88,-14.44,22.88,0.25,-1.00,3.44,11.85,1.80
74.00,0.00,286.38,5.19,-101.75,16.25,0.88,10.31,12.57,1.82
74.00,1.00,271.38,-1.62,-62.12,0.38,0.50,-0.88,12.57,1.82
74.00,2.00,243.81,-14.44,22.81,1.25,-0.75,2.94,12.57,1.82
74.00,0.00,286.12,5.38,-102.06,14.69,1.44,8.69,13.12,1.84
74.00,1.00,271.38,-1.62,-62.12,0.88,0.25,-0.75,13.12,1.84
74.00,2.00,243.75,-14.44,22.75,3.00,-2.19,2.44,13.12,1.84
74.00,0.00,285.88,5.50,-102.31,14.56,1.31,7.44,13.63,1.86
74.00,1.00,271.38,-1.69,-62.12,1.38,-0.12,-1.50,13.63,1.86
74.00,2.00,243.69,-14.44,22.69,3.94,-2.06,2.44,13.63,1.86
74.00,0.00,285.69,5.69,-102.62,16.44,-0.19,8.56,14.25,1.88
74.00,1.00,271.44,-1.69,-62.19,1.62,0.06,-1.44,14.25,1.88
74.00,2.00,243.69,-14.38,22.56,3.31,-1.56,2.19,14.25,1.88
74.00,0.00,285.50,5.81,-102.94,17.38,0.19,9.56,14.98,1.90
74.00,1.00,271.44,-1.69,-62.19,1.44,-0.25,-1.00,14.98,1.90
74.00,2.00,243.62,-14.38,22.50,2.00,-2.25,2.31,14.98,1.90
74.00,0.00,285.25,6.00,-103.31,17.31,1.38,9.19,15.75,1.92
74.00,1.00,271.50,-1.69,-62.19,1.00,-0.81,-1.12,15.75,1.92
74.00,2.00,243.56,-14.38,22.50,1.19,-2.56,2.00,15.75,1.92
74.00,0.00,285.00,6.19,-103.62,19.12,-0.38,10.25,16.57,1.94
74.00,1.00,271.50,-1.75,-62.25,0.94,-1.12,-1.31,16.57,1.94
74.00,2.00,243.56,-14.31,22.44,1.94,-1.31,1.50,16.57,1.94
74.00,0.00,284.75,6.38,-104.06,19.94,-2.19,10.56,17.35,1.96
74.00,1.00,271.56,-1.75,-62.25,1.44,-0.94,-1.62,17.35,1.96
74.00,2.00,243.50,-14.31,22.44,3.50,-0.31,0.81,17.35,1.96
74.00,0.00,284.56,6.56,-104.44,19.62,-3.06,9.56,18.14,1.98
74.00,1.00,271.62,-1.75,-62.25,1.50,-0.75,-1.56,18.14,1.98
74.00,2.00,243.50,-14.31,22.31,3.00,-1.50,0.94,18.14,1.98
74.00,0.00,284.44,6.69,-104.81,17.75,-3.44,7.06,18.85,2.00
74.00,1.00,271.62,-1.81,-62.31,1.50,-0.69,-1.31,18.85,2.00
74.00,2.00,243.50,-14.31,22.25,2.81,-2.25,1.00,18.85,2.00
74.00,0.00,284.38,6.81,-105.12,16.69,-4.06,6.00,19.52,2.02
74.00,1.00,271.69,-1.81,-62.31,1.06,-0.81,-1.00,19.52,2.02
74.00,2.00,243.50,-14.31,22.19,2.62,-1.00,0.94,19.52,2.02
74.00,0.00,284.38,6.81,-105.44,14.19,-5.62,4.62,20.07,2.04
74.00,1.00,271.69,-1.81,-62.38,0.75,-0.62,-0.88,20.07,2.04
74.00,2.00,243.44,-14.25,22.12,2.56,-1.62,1.50,20.07,2.04
74.00,0.00,284.38,6.88,-105.75,14.19,-5.69,5.19,20.60,2.06
74.00,1.00,271.75,-1.81,-62.38,0.62,0.31,-0.88,20.60,2.06
74.00,2.00,243.44,-14.25,22.12,3.12,-1.50,1.94,20.60,2.06
74.00,0.00,284.38,6.94,-106.00,12.94,-4.88,5.50,21.12,2.08
74.00,1.00,271.75,-1.81,-62.38,0.19,0.69,-0.88,21.12,2.08
74.00,2.00,243.38,-14.25,22.00,1.94,-1.25,3.25,21.12,2.08
74.00,0.00,284.38,7.06,-106.25,12.00,-4.00,4.56,21.70,2.10
74.00,1.00,271.75,-1.88,-62.38,0.25,0.62,-0.38,21.70,2.10
74.00,2.00,243.25,-14.25,21.94,-0.19,-1.50,4.25,21.70,2.10
74.00,0.00,284.31,7.06,-106.50,11.44,-3.25,3.56,22.32,2.12
74.00,1.00,271.75,-1.88,-62.38,0.38,1.00,-0.62,22.32,2.12
74.00,2.00,243.25,-14.25,21.94,-1.56,-1.62,3.50,22.32,2.12
74.00,0.00,284.31,7.12,-106.75,14.94,-4.19,5.50,23.13,2.14
74.00,1.00,271.75,-1.88,-62.38,0.06,0.75,-0.75,23.13,2.14
74.00,2.00,243.12,-14.25,22.00,-2.06,-0.12,2.31,23.13,2.14
74.00,0.00,284.25,7.25,-107.06,15.69,-4.19,6.00,23.92,2.16
74.00,1.00,271.75,-1.88,-62.38,0.06,-0.69,-0.81,23.92,2.16
74.00,2.00,243.12,-14.25,22.00,-0.88,-0.31,1.69,23.92,2.16
74.00,0.00,284.12,7.38,-107.38,15.94,-2.69,7.06,24.69,2.18
74.00,1.00,271.81,-1.94,-62.38,0.75,-1.06,-1.88,24.69,2.18
74.00,2.00,243.06,-14.25,22.00,-0.31,-0.19,1.31,24.69,2.18
74.00,0.00,283.94,7.50,-107.69,14.88,0.56,6.69,25.41,2.20
74.00,1.00,271.88,-1.94,-62.38,0.69,-1.06,-1.69,25.41,2.20
74.00,2.00,243.00,-14.31,22.00,-0.31,-0.19,2.00,25.41,2.20
74.00,0.00,283.69,7.62,-107.94,15.00,2.25,6.69,26.11,2.22
74.00,1.00,271.88,-2.00,-62.38,0.19,-0.62,-1.38,26.11,2.22
74.00,2.00,243.00,-14.31,22.00,0.25,-0.88,2.00,26.11,2.22
74.00,0.00,283.44,7.81,-108.25,15.25,2.44,7.62,26.81,2.24
74.00,1.00,271.94,-2.00,-62.38,0.56,-1.50,-1.38,26.81,2.24
74.00,2.00,242.94,-14.25,21.94,0.62,-2.06,2.00,26.81,2.24
74.00,0.00,283.12,7.94,-108.56,14.94,2.75,7.62,27.53,2.26
74.00,1.00,272.00,-2.00,-62.44,1.00,-1.50,-0.94,27.53,2.26
74.00,2.00,242.94,-14.25,21.94,-0.25,-2.75,1.75,27.53,2.26
74.00,0.00,282.88,8.12,-108.81,14.25,2.69,7.31,28.22,2.28
74.00,1.00,272.00,-2.00,-62.44,1.12,-1.25,-0.88,28.22,2.28
74.00,2.00,242.88,-14.25,21.94,-0.12,-2.00,1.81,28.22,2.28
74.00,0.00,282.62,8.25,-109.06,13.19,3.06,5.25,28.82,2.30
74.00,1.00,272.06,-2.00,-62.44,0.94,-1.25,-0.94,28.82,2.30
74.00,2.00,242.81,-14.19,21.94,0.44,-2.19,1.94,28.82,2.30
74.00,0.00,282.44,8.31,-109.38,14.62,1.00,5.38,29.48,2.32
74.00,1.00,272.06,-2.06,-62.50,0.19,-0.69,-1.25,29.48,2.32
74.00,2.00,242.75,-14.19,21.94,0.75,-1.81,1.75,29.48,2.32
74.00,0.00,282.25,8.44,-109.62,15.62,-0.81,6.19,30.24,2.34
74.00,1.00,272.12,-2.06,-62.50,0.06,-0.50,-1.25,30.24,2.34
74.00,2.00,242.75,-14.19,21.88,-0.25,-1.44,2.00,30.24,2.34
74.00,0.00,282.12,8.50,-109.94,14.12,-0.25,5.38,30.94,2.36
74.00,1.00,272.12,-2.06,-62.50,-0.12,0.12,-1.19,30.94,2.36
74.00,2.00,242.69,-14.12,21.88,-0.56,-2.88,2.56,30.94,2.36
74.00,0.00,282.00,8.56,-110.19,12.44,0.31,3.75,31.53,2.38
74.00,1.00,272.19,-2.12,-62.50,0.12,0.12,-0.75,31.53,2.38
74.00,2.00,242.62,-14.12,21.88,-0.12,-2.50,2.44,31.53,2.38
74.00,0.00,281.88,8.69,-110.44,14.00,-0.94,4.69,32.19,2.40
74.00,1.00,272.19,-2.12,-62.50,0.12,0.38,-0.38,32.19,2.40
74.00,2.00,242.56,-14.12,21.88,0.25,-0.69,2.69,32.19,2.40
74.00,0.00,281.75,8.75,-110.75,15.12,-2.06,5.81,32.99,2.42
74.00,1.00,272.12,-2.12,-62.50,0.06,1.06,-0.19,32.99,2.42
74.00,2.00,242.50,-14.12,21.88,-1.75,-1.56,3.12,32.99,2.42
74.00,0.00,281.56,8.88,-111.06,14.50,-0.19,5.31,33.74,2.44
74.00,1.00,272.12,-2.12,-62.50,-0.12,0.69,-0.19,33.74,2.44
74.00,2.00,242.38,-14.06,21.88,-1.31,-2.56,3.56,33.74,2.44
74.00,0.00,281.38,8.94,-111.31,11.69,2.38,2.69,34.33,2.46
74.00,1.00,272.12,-2.12,-62.56,0.12,0.25,-0.25,34.33,2.46
74.00,2.00,242.38,-14.06,21.88,-0.62,-2.00,3.50,34.33,2.46
74.00,0.00,281.25,9.00,-111.50,11.81,2.75,1.94,34.94,2.48
74.00,1.00,272.12,-2.12,-62.56,-0.31,0.38,-0.19,34.94,2.48
74.00,2.00,242.25,-14.06,21.88,-1.12,-1.81,3.62,34.94,2.48
74.00,0.00,281.06,9.06,-111.75,14.31,1.38,4.31,35.65,2.50
74.00,1.00,272.12,-2.19,-62.56,-0.06,0.62,-0.25,35.65,2.50
74.00,2.00,242.12,-14.06,21.88,-0.56,-2.44,3.81,35.65,2.50
74.00,0.00,280.81,9.19,-112.06,14.31,1.94,5.50,36.35,2.52
74.00,1.00,272.12,-2.19,-62.56,0.31,0.75,0.00,36.35,2.52
74.00,2.00,242.12,-14.06,21.81,-0.50,-2.62,3.38,36.35,2.52
74.00,0.00,280.62,9.25,-112.25,11.75,3.00,3.62,36.97,2.54
74.00,1.00,272.12,-2.19,-62.56,-0.38,0.81,-0.31,36.97,2.54
74.00,2.00,242.00,-14.00,21.81,-1.12,-2.06,3.31,36.97,2.54
74.00,0.00,280.44,9.31,-112.44,9.69,3.50,1.12,37.48,2.56
74.00,1.00,272.12,-2.19,-62.56,-0.75,0.50,-0.38,37.48,2.56
74.00,2.00,241.94,-14.00,21.81,-1.06,-1.50,3.19,37.48,2.56
74.00,0.00,280.31,9.31,-112.69,11.06,1.25,1.56,38.06,2.58
74.00,1.00,272.12,-2.19,-62.56,-0.81,0.44,-0.81,38.06,2.58
74.00,2.00,241.88,-14.00,21.88,-1.19,-2.00,3.25,38.06,2.58
74.00,0.00,280.25,9.38,-112.94,15.00,-2.38,4.00,38.81,2.60
74.00,1.00,272.19,-2.25,-62.56,-0.56,0.81,-1.19,38.81,2.60
74.00,2.00,241.81,-14.00,21.81,-0.69,-1.88,3.06,38.81,2.60
74.00,0.00,280.12,9.44,-113.25,14.69,-3.19,5.38,39.53,2.62
74.00,1.00,272.19,-2.25,-62.56,-0.75,0.94,-1.00,39.53,2.62
74.00,2.00,241.75,-14.00,21.81,-0.56,-1.25,2.62,39.53,2.62
74.00,0.00,280.06,9.50,-113.50,12.12,-0.94,3.31,40.18,2.64
74.00,1.00,272.19,-2.31,-62.50,-1.50,0.12,-0.69,40.18,2.64
74.00,2.00,241.69,-14.00,21.81,-1.38,-1.62,2.56,40.18,2.64
74.00,0.00,279.94,9.56,-113.69,9.75,1.88,0.69,40.69,2.66
74.00,1.00,272.19,-2.31,-62.50,-0.81,0.00,-0.69,40.69,2.66
74.00,2.00,241.62,-13.94,21.88,-1.06,-1.81,2.25,40.69,2.66
74.00,0.00,279.81,9.56,-113.88,9.38,2.00,-0.56,41.14,2.68
74.00,1.00,272.25,-2.31,-62.50,-1.00,0.81,-1.44,41.14,2.68
74.00,2.00,241.56,-13.94,21.81,-0.06,-2.25,2.12,41.14,2.68
74.00,0.00,279.69,9.56,-114.12,12.31,0.12,2.00,41.76,2.70
74.00,1.00,272.25,-2.38,-62.50,-0.38,1.00,-0.50,41.76,2.70
74.00,2.00,241.50,-13.88,21.81,-0.69,-2.88,2.56,41.76,2.70
74.00,0.00,279.56,9.69,-114.38,13.25,-0.75,4.38,42.45,2.72
74.00,1.00,272.25,-2.38,-62.50,-0.44,0.56,-0.19,42.45,2.72
74.00,2.00,241.50,-13.88,21.81,-1.31,-2.62,2.81,42.45,2.72
74.00,0.00,279.38,9.75,-114.62,12.00,1.50,4.62,43.10,2.74
74.00,1.00,272.25,-2.38,-62.50,-0.25,0.12,-0.62,43.10,2.74
74.00,2.00,241.38,-13.88,21.88,-1.75,-3.00,3.25,43.10,2.74
74.00,0.00,279.12,9.88,-114.75,8.75,5.50,2.56,43.55,2.76
74.00,1.00,272.25,-2.38,-62.50,-0.81,1.00,-0.31,43.55,2.76
74.00,2.00,241.31,-13.81,21.88,-0.69,-3.19,3.50,43.55,2.76
74.00,0.00,278.88,9.94,-114.94,8.88,6.25,2.31,44.02,2.78
74.00,1.00,272.19,-2.44,-62.50,-1.12,2.31,0.12,44.02,2.78
74.00,2.00,241.19,-13.75,21.88,-1.06,-4.12,3.81,44.02,2.78
74.00,0.00,278.56,10.06,-115.12,12.75,3.56,5.94,44.69,2.80
74.00,1.00,272.19,-2.44,-62.50,-0.12,1.25,0.44,44.69,2.80
74.00,2.00,241.12,-13.69,21.81,-1.25,-4.88,3.75,44.69,2.80
74.00,0.00,278.19,10.25,-115.38,12.75,4.31,8.12,45.37,2.82
74.00,1.00,272.19,-2.44,-62.50,0.38,1.38,0.31,45.37,2.82
74.00,2.00,241.06,-13.69,21.81,-1.62,-5.19,3.94,45.37,2.82
74.00,0.00,277.81,10.38,-115.62,10.94,6.62,6.62,45.97,2.84
74.00,1.00,272.19,-2.44,-62.50,0.06,0.62,0.06,45.97,2.84
74.00,2.00,240.94,-13.62,21.88,-1.56,-3.81,4.06,45.97,2.84
74.00,0.00,277.44,10.56,-115.81,9.75,7.88,4.31,46.52,2.86
74.00,1.00,272.19,-2.44,-62.50,0.06,0.69,0.25,46.52,2.86
74.00,2.00,240.88,-13.56,21.88,-1.75,-4.38,3.69,46.52,2.86
74.00,0.00,277.12,10.69,-116.00,11.06,5.00,3.88,47.09,2.88
74.00,1.00,272.19,-2.50,-62.50,0.44,-0.06,0.12,47.09,2.88
74.00,2.00,240.75,-13.50,21.88,-1.00,-5.50,2.88,47.09,2.88
74.00,0.00,276.88,10.81,-116.25,14.50,1.12,7.06,47.82,2.90
74.00,1.00,272.19,-2.50,-62.50,0.50,-0.19,-0.25,47.82,2.90
74.00,2.00,240.69,-13.38,21.88,-0.75,-5.38,2.19,47.82,2.90
74.00,0.00,276.62,10.94,-116.50,14.06,-0.31,7.25,48.52,2.92
74.00,1.00,272.19,-2.50,-62.50,1.06,0.44,-0.25,48.52,2.92
74.00,2.00,240.62,-13.38,21.88,-0.75,-5.88,2.25,48.52,2.92
74.00,0.00,276.44,11.00,-116.81,13.75,-0.44,5.94,49.15,2.94
74.00,1.00,272.19,-2.50,-62.50,0.81,-0.12,0.19,49.15,2.94
74.00,2.00,240.56,-13.25,21.88,0.56,-4.75,1.81,49.15,2.94
74.00,0.00,276.19,11.12,-117.06,14.81,-0.81,6.81,49.78,2.96
74.00,1.00,272.19,-2.50,-62.56,1.00,0.06,0.12,49.78,2.96
74.00,2.00,240.50,-13.19,21.81,1.50,-4.06,1.50,49.78,2.96
74.00,0.00,276.00,11.25,-117.38,16.00,-1.25,8.06,50.51,2.98
74.00,1.00,272.19,-2.50,-62.56,1.44,0.38,0.44,50.51,2.98
74.00,2.00,240.50,-13.12,21.75,0.62,-4.94,2.12,50.51,2.98
74.00,0.00,275.75,11.38,-117.69,14.69,0.00,7.69,51.19,3.00
74.00,1.00,272.19,-2.50,-62.62,1.31,-0.38,0.62,51.19,3.00
74.00,2.00,240.44,-13.06,21.75,0.44,-5.69,2.06,51.19,3.00
74.00,0.00,275.50,11.50,-117.94,12.12,1.38,4.94,51.71,3.02
74.00,1.00,272.19,-2.50,-62.62,1.56,-0.19,0.38,51.71,3.02
74.00,2.00,240.38,-12.94,21.75,1.19,-5.06,1.56,51.71,3.02
74.00,0.00,275.31,11.56,-118.19,13.44,-1.19,4.69,52.27,3.04
74.00,1.00,272.19,-2.50,-62.69,1.19,-0.44,0.12,52.27,3.04
74.00,2.00,240.31,-12.88,21.69,1.75,-4.12,1.44,52.27,3.04
74.00,0.00,275.19,11.62,-118.56,16.81,-4.12,8.19,52.99,3.06
74.00,1.00,272.19,-2.50,-62.69,1.44,-0.25,0.06,52.99,3.06
74.00,2.00,240.25,-12.81,21.62,1.69,-4.25,1.81,52.99,3.06
74.00,0.00,275.00,11.75,-118.88,15.69,-2.38,8.50,53.62,3.08
74.00,1.00,272.19,-2.50,-62.75,1.50,-0.06,-0.19,53.62,3.08
74.00,2.00,240.19,-12.75,21.56,2.44,-5.25,1.88,53.62,3.08
74.00,0.00,274.75,11.88,-119.12,12.38,1.00,5.56,54.03,3.10
74.00,1.00,272.19,-2.50,-62.75,1.19,0.06,-0.31,54.03,3.10
74.00,2.00,240.19,-12.69,21.50,3.75,-4.81,1.81,54.03,3.10
74.00,0.00,274.56,11.94,-119.38,10.88,1.94,3.44,54.37,3.12
74.00,1.00,272.19,-2.50,-62.81,1.44,0.06,-0.38,54.37,3.12
74.00,2.00,240.12,-12.62,21.44,3.62,-4.88,2.62,54.37,3.12
74.00,0.00,274.38,12.06,-119.62,14.44,-1.50,6.06,54.95,3.14
74.00,1.00,272.19,-2.50,-62.81,1.38,0.19,0.19,54.95,3.14
74.00,2.00,240.06,-12.56,21.38,2.31,-4.94,3.19,54.95,3.14
74.00,0.00,274.19,12.19,-120.00,16.38,-2.38,9.12,55.62,3.16
74.00,1.00,272.19,-2.56,-62.88,1.50,0.62,0.56,55.62,3.16
74.00,2.00,240.00,-12.44,21.31,2.19,-6.06,2.88,55.62,3.16
74.00,0.00,273.88,12.31,-120.25,12.69,1.50,7.44,56.05,3.18
74.00,1.00,272.19,-2.56,-62.88,1.38,0.19,0.62,56.05,3.18
74.00,2.00,239.88,-12.31,21.19,3.69,-6.25,2.62,56.05,3.18
74.00,0.00,273.62,12.38,-120.44,9.12,3.06,3.12,56.32,3.20
74.00,1.00,272.19,-2.56,-62.94,1.38,-0.12,0.31,56.32,3.20
74.00,2.00,239.81,-12.25,21.06,3.50,-5.25,2.56,56.32,3.20
74.00,0.00,273.44,12.44,-120.69,12.06,0.31,3.56,56.79,3.22
74.00,1.00,272.19,-2.56,-62.94,0.50,0.44,0.94,56.79,3.22
74.00,2.00,239.75,-12.19,21.06,2.19,-5.62,2.38,56.79,3.22
74.00,0.00,273.19,12.56,-121.00,15.62,-0.50,7.06,57.49,3.24
74.00,1.00,272.19,-2.50,-62.94,1.19,0.31,1.25,57.49,3.24
74.00,2.00,239.69,-12.12,21.00,0.75,-6.19,2.06,57.49,3.24
74.00,0.00,272.94,12.69,-121.25,12.88,2.25,5.62,58.01,3.26
74.00,1.00,272.19,-2.50,-63.00,1.19,-0.94,1.06,58.01,3.26
74.00,2.00,239.62,-11.94,20.94,2.00,-6.25,1.19,58.01,3.26
74.00,0.00,272.69,12.75,-121.44,8.38,4.12,0.56,58.26,3.28
74.00,1.00,272.19,-2.50,-63.00,0.94,-0.19,0.75,58.26,3.28
74.00,2.00,239.62,-11.94,20.88,3.06,-5.19,1.12,58.26,3.28
74.00,0.00,272.50,12.75,-121.56,9.56,2.25,0.25,58.58,3.30
74.00,1.00,272.12,-2.44,-63.00,0.19,-0.62,0.88,58.58,3.30
74.00,2.00,239.56,-11.81,20.81,2.94,-5.25,1.88,58.58,3.30
74.00,0.00,272.31,12.81,-121.81,11.31,2.31,2.88,59.03,3.32
74.00,1.00,272.12,-2.44,-63.00,0.44,-1.62,0.75,59.03,3.32
74.00,2.00,239.50,-11.75,20.75,1.75,-5.69,2.50,59.03,3.32
74.00,0.00,272.06,12.94,-122.00,11.19,3.00,3.06,59.48,3.34
74.00,1.00,272.19,-2.44,-63.00,-0.12,-0.25,0.50,59.48,3.34
74.00,2.00,239.44,-11.62,20.69,1.75,-4.88,2.62,59.48,3.34
74.00,0.00,271.75,13.00,-122.25,11.00,4.50,3.81,59.91,3.36
74.00,1.00,272.19,-2.44,-63.06,-0.06,1.50,0.31,59.91,3.36
74.00,2.00,239.38,-11.56,20.62,1.94,-5.44,2.69,59.91,3.36
74.00,0.00,271.38,13.12,-122.38,10.38,6.44,2.75,60.22,3.38
74.00,1.00,272.12,-2.44,-63.06,0.19,1.38,0.62,60.22,3.38
74.00,2.00,239.31,-11.44,20.56,3.88,-5.31,2.69,60.22,3.38
74.00,0.00,271.00,13.25,-122.62,11.12,6.19,3.12,60.57,3.40
74.00,1.00,272.12,-2.44,-63.06,0.31,0.62,0.50,60.57,3.40
74.00,2.00,239.25,-11.38,20.44,3.94,-4.88,3.69,60.57,3.40
74.00,0.00,270.62,13.38,-122.81,10.62,7.19,2.31,60.98,3.42
74.00,1.00,272.06,-2.44,-63.06,0.44,1.31,1.00,60.98,3.42
74.00,2.00,239.19,-11.38,20.38,2.00,-5.31,4.62,60.98,3.42
74.00,0.00,270.25,13.44,-122.94,8.62,7.88,-0.50,61.29,3.44
74.00,1.00,272.06,-2.44,-63.06,0.31,1.62,1.25,61.29,3.44
74.00,2.00,239.06,-11.31,20.31,1.94,-4.94,4.88,61.29,3.44
74.00,0.00,270.00,13.50,-123.12,10.31,4.88,-1.81,61.69,3.46
74.00,1.00,272.00,-2.44,-63.06,-0.25,2.25,1.06,61.69,3.46
74.00,2.00,238.94,-11.25,20.25,2.00,-4.50,4.50,61.69,3.46
74.00,0.00,269.81,13.50,-123.38,13.62,1.94,2.00,62.25,3.48
74.00,1.00,271.94,-2.44,-63.12,-0.56,2.75,0.94,62.25,3.48
74.00,2.00,238.81,-11.19,20.19,1.75,-4.12,4.56,62.25,3.48
74.00,0.00,269.50,13.62,-123.62,14.25,3.00,4.44,62.83,3.50
74.00,1.00,271.88,-2.44,-63.06,-0.75,2.62,1.19,62.83,3.50
74.00,2.00,238.75,-11.12,20.12,2.12,-4.94,5.56,62.83,3.50
74.00,0.00,269.12,13.75,-123.81,10.88,6.62,2.25,63.22,3.52
74.00,1.00,271.81,-2.44,-63.12,-0.56,2.50,1.06,63.22,3.52
74.00,2.00,238.62,-11.06,20.06,2.75,-5.06,5.56,63.22,3.52
74.00,0.00,268.75,13.81,-124.00,10.50,5.75,1.69,63.60,3.54
74.00,1.00,271.81,-2.44,-63.06,-0.81,3.06,1.19,63.60,3.54
74.00,2.00,238.50,-11.06,20.00,2.50,-4.31,5.94,63.60,3.54
74.00,0.00,268.50,13.88,-124.19,10.12,5.31,0.44,64.03,3.56
74.00,1.00,271.75,-2.50,-63.06,-0.50,3.12,1.12,64.03,3.56
74.00,2.00,238.38,-11.00,19.94,1.00,-4.94,6.06,64.03,3.56
74.00,0.00,268.38,13.88,-124.25,8.56,3.75,-2.19,64.39,3.58
74.00,1.00,271.69,-2.50,-63.06,-0.88,3.12,1.25,64.39,3.58
74.00,2.00,238.19,-10.94,19.88,1.06,-5.06,5.69,64.39,3.58
74.00,0.00,268.25,13.88,-124.38,11.25,0.31,-1.25,64.83,3.60
74.00,1.00,271.62,-2.50,-63.06,-0.44,1.94,1.06,64.83,3.60
74.00,2.00,238.12,-10.88,19.81,1.88,-2.94,4.06,64.83,3.60
74.00,0.00,268.19,13.88,-124.56,12.06,0.62,1.25,65.33,3.62
74.00,1.00,271.56,-2.50,-63.06,-0.94,1.50,1.00,65.33,3.62
74.00,2.00,238.06,-10.88,19.75,1.62,-2.62,3.88,65.33,3.62
74.00,0.00,268.00,13.88,-124.81,9.75,3.50,1.62,65.72,3.64
74.00,1.00,271.56,-2.50,-63.06,-0.56,1.19,0.88,65.72,3.64
74.00,2.00,237.94,-10.81,19.69,1.62,-3.31,3.94,65.72,3.64
74.00,0.00,267.75,13.94,-124.94,8.44,4.81,1.19,65.97,3.66
74.00,1.00,271.56,-2.50,-63.06,-0.69,0.81,0.31,65.97,3.66
74.00,2.00,237.88,-10.81,19.69,3.12,-2.75,4.00,65.97,3.66
74.00,0.00,267.44,14.00,-125.06,6.88,6.00,0.75,66.19,3.68
74.00,1.00,271.50,-2.50,-63.06,-1.25,1.75,0.19,66.19,3.68
74.00,2.00,237.75,-10.75,19.56,2.31,-2.69,3.94,66.19,3.68
74.00,0.00,267.19,14.12,-125.12,4.62,4.69,-1.00,66.32,3.70
74.00,1.00,271.50,-2.50,-63.06,-1.50,1.88,0.19,66.32,3.70
74.00,2.00,237.69,-10.75,19.50,1.81,-3.75,3.88,66.32,3.70
74.00,0.00,267.06,14.12,-125.19,2.50,2.81,-2.94,66.35,3.72
74.00,1.00,271.50,-2.56,-63.00,-1.81,1.56,0.19,66.35,3.72
74.00,2.00,237.62,-10.75,19.50,1.81,-3.88,3.81,66.35,3.72
74.00,0.00,267.00,14.06,-125.19,3.00,0.56,-3.25,66.37,3.74
74.00,1.00,271.44,-2.56,-63.00,-1.81,2.50,-0.12,66.37,3.74
74.00,2.00,237.50,-10.69,19.38,2.69,-2.94,3.69,66.37,3.74
74.00,0.00,267.06,14.06,-125.25,4.88,-0.31,-0.06,66.50,3.76
74.00,1.00,271.44,-2.56,-62.94,-1.75,2.75,0.12,66.50,3.76
74.00,2.00,237.50,-10.62,19.38,2.06,-2.56,4.25,66.50,3.76
74.00,0.00,266.94,14.06,-125.31,4.75,1.00,1.25,66.68,3.78
74.00,1.00,271.38,-2.62,-62.94,-1.81,3.12,0.50,66.68,3.78
74.00,2.00,237.38,-10.62,19.31,1.00,-2.75,4.69,66.68,3.78
74.00,0.00,266.75,14.12,-125.38,4.06,4.62,1.44,66.80,3.80
74.00,1.00,271.31,-2.62,-62.88,-1.62,3.31,0.56,66.80,3.80
74.00,2.00,237.25,-10.62,19.25,1.62,-1.69,4.75,66.80,3.80
74.00,0.00,266.50,14.19,-125.44,3.56,5.62,1.25,66.86,3.82
74.00,1.00,271.31,-2.69,-62.88,-1.50,3.12,0.44,66.86,3.82
74.00,2.00,237.19,-10.62,19.19,2.19,-1.25,4.56,66.86,3.82
74.00,0.00,266.31,14.25,-125.44,2.50,3.62,-0.44,66.95,3.84
74.00,1.00,271.25,-2.69,-62.81,-2.19,3.94,0.44,66.95,3.84
74.00,2.00,237.12,-10.62,19.12,0.62,-1.00,4.31,66.95,3.84
74.00,0.00,266.19,14.31,-125.50,3.31,0.38,-0.50,67.16,3.86
74.00,1.00,271.19,-2.75,-62.81,-2.38,4.19,0.44,67.16,3.86
74.00,2.00,237.00,-10.62,19.12,-1.06,-1.50,4.62,67.16,3.86
74.00,0.00,266.19,14.31,-125.56,4.06,-0.25,-0.38,67.38,3.88
74.00,1.00,271.19,-2.75,-62.75,-2.38,3.62,0.56,67.38,3.88
74.00,2.00,236.94,-10.62,19.12,-0.50,-1.44,3.81,67.38,3.88
74.00,0.00,266.12,14.31,-125.62,2.81,1.06,-0.25,67.51,3.90
74.00,1.00,271.12,-2.81,-62.75,-2.06,1.44,0.06,67.51,3.90
74.00,2.00,236.81,-10.62,19.12,0.00,-0.94,2.94,67.51,3.90
74.00,0.00,266.06,14.31,-125.62,2.50,1.62,-0.44,67.65,3.92
74.00,1.00,271.12,-2.81,-62.69,-1.94,1.75,-0.12,67.65,3.92
74.00,2.00,236.81,-10.62,19.12,-0.44,-1.06,2.81,67.65,3.92
74.00,0.00,265.94,14.31,-125.69,1.69,3.06,0.44,67.68,3.94
74.00,1.00,271.12,-2.88,-62.69,-2.81,2.62,-0.31,67.68,3.94
74.00,2.00,236.69,-10.69,19.12,1.12,-1.25,3.00,67.68,3.94
74.00,0.00,265.88,14.31,-125.69,1.00,2.62,0.00,67.66,3.96
74.00,1.00,271.06,-2.88,-62.62,-2.38,2.31,-0.19,67.66,3.96
74.00,2.00,236.69,-10.62,19.06,1.38,-2.38,3.31,67.66,3.96
74.00,0.00,265.81,14.31,-125.69,0.56,0.50,-0.06,67.66,3.98
74.00,1.00,271.06,-2.88,-62.56,-1.56,1.81,0.00,67.66,3.98
74.00,2.00,236.56,-10.62,19.06,0.62,-1.94,3.25,67.66,3.98
74.00,0.00,265.81,14.38,-125.69,1.06,0.12,0.19,67.74,4.00
74.00,1.00,271.00,-2.88,-62.56,-1.56,1.69,0.62,67.74,4.00
74.00,2.00,236.50,-10.62,19.06,-0.75,-2.19,3.38,67.74,4.00
74.00,0.00,265.75,14.38,-125.69,1.38,1.44,-0.62,67.85,4.02
74.00,1.00,271.00,-2.94,-62.50,-1.56,1.44,0.31,67.85,4.02
74.00,2.00,236.50,-10.62,19.06,-0.81,-1.50,3.19,67.85,4.02
74.00,0.00,265.69,14.38,-125.69,1.62,2.19,-1.00,67.92,4.04
74.00,1.00,270.94,-2.94,-62.50,-2.12,2.06,0.06,67.92,4.04
74.00,2.00,236.38,-10.62,19.06,0.12,-0.12,2.06,67.92,4.04
74.00,0.00,265.62,14.38,-125.69,2.00,1.75,-0.94,68.00,4.06
74.00,1.00,270.94,-2.94,-62.44,-2.19,1.94,-0.19,68.00,4.06
74.00,2.00,236.38,-10.62,19.00,0.19,-0.19,2.56,68.00,4.06
74.00,0.00,265.50,14.44,-125.75,2.44,1.69,1.06,68.09,4.08
74.00,1.00,270.94,-3.00,-62.44,-2.56,1.94,-0.19,68.09,4.08
74.00,2.00,236.31,-10.62,19.00,0.56,-0.88,2.88,68.09,4.08
74.00,0.00,265.38,14.44,-125.75,1.19,2.88,1.00,68.09,4.10
74.00,1.00,270.88,-3.00,-62.38,-2.38,2.38,-0.25,68.09,4.10
74.00,2.00,236.25,-10.62,18.94,1.25,-1.25,3.12,68.09,4.10
74.00,0.00,265.31,14.50,-125.75,-0.75,2.38,-0.50,68.02,4.12
74.00,1.00,270.88,-3.00,-62.31,-2.38,2.62,0.19,68.02,4.12
74.00,2.00,236.19,-10.62,18.94,0.69,-1.38,3.38,68.02,4.12
74.00,0.00,265.25,14.50,-125.75,-0.75,1.44,-0.94,68.02,4.14
74.00,1.00,270.81,-3.06,-62.31,-2.81,3.25,0.31,68.02,4.14
74.00,2.00,236.06,-10.62,18.94,-0.69,-0.69,4.00,68.02,4.14
74.00,0.00,265.25,14.50,-125.75,-0.19,1.94,-0.75,68.01,4.16
74.00,1.00,270.75,-3.06,-62.25,-2.69,4.06,0.62,68.01,4.16
74.00,2.00,236.06,-10.62,18.94,-0.06,-0.81,4.19,68.01,4.16
74.00,0.00,265.19,14.50,-125.69,-0.06,2.06,-0.25,68.01,4.18
74.00,1.00,270.69,-3.12,-62.19,-2.62,3.94,0.62,68.01,4.18
74.00,2.00,235.94,-10.69,18.94,0.06,-1.12,4.31,68.01,4.18
74.00,0.00,265.06,14.56,-125.69,-0.94,2.75,0.44,67.97,4.20
74.00,1.00,270.62,-3.12,-62.19,-2.56,3.56,0.62,67.97,4.20
74.00,2.00,235.81,-10.69,18.88,-0.25,-0.50,4.69,67.97,4.20
74.00,0.00,264.94,14.56,-125.62,-1.38,3.62,0.50,67.93,4.22
74.00,1.00,270.62,-3.19,-62.12,-2.69,4.25,0.50,67.93,4.22
74.00,2.00,235.75,-10.69,18.88,-0.50,-0.44,4.75,67.93,4.22
74.00,0.00,264.88,14.62,-125.62,-1.31,3.69,-0.06,67.93,4.24
74.00,1.00,270.56,-3.19,-62.06,-3.25,4.50,0.31,67.93,4.24
74.00,2.00,235.62,-10.75,18.88,-1.25,0.31,4.50,67.93,4.24
74.00,0.00,264.81,14.62,-125.56,-0.81,1.81,-0.56,67.99,4.26
74.00,1.00,270.50,-3.25,-62.06,-3.25,4.25,0.00,67.99,4.26
74.00,2.00,235.62,-10.75,18.88,-2.00,0.75,4.06,67.99,4.26
74.00,0.00,264.81,14.62,-125.56,-0.44,0.88,-0.69,68.09,4.28
74.00,1.00,270.44,-3.31,-62.00,-3.69,3.88,0.06,68.09,4.28
74.00,2.00,235.50,-10.81,18.94,-2.62,1.00,3.56,68.09,4.28
74.00,0.00,264.75,14.62,-125.56,-0.44,1.19,-0.75,68.18,4.30
74.00,1.00,270.38,-3.31,-61.94,-3.81,3.38,-0.06,68.18,4.30
74.00,2.00,235.44,-10.88,19.00,-2.38,1.62,3.19,68.18,4.30
74.00,0.00,264.75,14.62,-125.50,-0.69,0.94,-0.88,68.26,4.32
74.00,1.00,270.38,-3.38,-61.81,-3.94,3.06,-0.38,68.26,4.32
74.00,2.00,235.38,-10.88,19.00,-2.25,1.06,3.00,68.26,4.32
74.00,0.00,264.81,14.62,-125.50,-1.06,0.50,-1.19,68.30,4.34
74.00,1.00,270.38,-3.44,-61.75,-3.38,2.50,-0.69,68.30,4.34
74.00,2.00,235.31,-10.94,19.06,-2.06,0.62,2.81,68.30,4.34
74.00,0.00,264.88,14.56,-125.44,-1.75,0.00,-1.56,68.30,4.36
74.00,1.00,270.31,-3.44,-61.69,-3.31,2.25,-0.81,68.30,4.36
74.00,2.00,235.25,-11.00,19.06,-1.69,1.06,2.69,68.30,4.36
74.00,0.00,264.94,14.56,-125.38,-1.81,-0.31,-1.81,68.31,4.38
74.00,1.00,270.31,-3.44,-61.62,-3.31,2.00,-0.44,68.31,4.38
74.00,2.00,235.25,-11.00,19.12,-2.00,1.38,2.44,68.31,4.38
74.00,0.00,265.00,14.50,-125.31,-1.75,-0.56,-2.00,68.37,4.40
74.00,1.00,270.31,-3.50,-61.56,-3.69,1.62,-0.38,68.37,4.40
74.00,2.00,235.19,-11.06,19.19,-2.94,1.31,1.50,68.37,4.40
74.00,0.00,265.12,14.50,-125.31,-2.00,-1.06,-1.94,68.41,4.42
74.00,1.00,270.25,-3.50,-61.50,-3.62,1.06,-0.44,68.41,4.42
74.00,2.00,235.12,-11.12,19.25,-3.00,1.44,1.31,68.41,4.42
74.00,0.00,265.19,14.44,-125.25,-2.62,-0.12,-1.56,68.39,4.44
74.00,1.00,270.25,-3.50,-61.44,-3.69,0.81,-0.88,68.39,4.44
74.00,2.00,235.12,-11.12,19.31,-2.06,1.12,1.00,68.39,4.44
74.00,0.00,265.25,14.44,-125.19,-3.31,0.44,-1.50,68.28,4.46
74.00,1.00,270.25,-3.56,-61.38,-3.56,1.44,-1.12,68.28,4.46
74.00,2.00,235.12,-11.19,19.31,-1.00,1.06,0.94,68.28,4.46
74.00,0.00,265.25,14.44,-125.06,-3.50,1.19,-1.19,68.20,4.48
74.00,1.00,270.25,-3.56,-61.31,-3.50,1.31,-0.50,68.20,4.48
74.00,2.00,235.06,-11.19,19.38,-1.81,0.44,1.44,68.20,4.48
74.00,0.00,265.25,14.44,-125.00,-3.44,2.31,-0.88,68.18,4.50
74.00,1.00,270.25,-3.56,-61.25,-3.38,0.69,-0.56,68.18,4.50
74.00,2.00,235.06,-11.19,19.38,-3.00,0.88,1.31,68.18,4.50
74.00,0.00,265.19,14.44,-124.94,-2.56,3.06,-0.31,68.19,4.52
74.00,1.00,270.25,-3.62,-61.19,-3.88,1.94,-0.69,68.19,4.52
74.00,2.00,235.00,-11.25,19.44,-2.75,1.19,1.06,68.19,4.52
74.00,0.00,265.06,14.50,-124.88,-1.94,3.00,-0.44,68.22,4.54
74.00,1.00,270.19,-3.62,-61.06,-4.44,3.12,-0.38,68.22,4.54
74.00,2.00,235.00,-11.25,19.50,-2.75,1.75,0.81,68.22,4.54
74.00,0.00,265.00,14.50,-124.81,-2.38,2.38,-0.38,68.22,4.56
74.00,1.00,270.19,-3.69,-61.00,-3.44,2.00,-0.19,68.22,4.56
74.00,2.00,235.00,-11.25,19.56,-2.19,0.38,1.56,68.22,4.56
74.00,0.00,265.00,14.56,-124.75,-2.88,1.88,-0.50,68.15,4.58
74.00,1.00,270.19,-3.69,-60.94,-2.69,1.81,-0.12,68.15,4.58
74.00,2.00,234.94,-11.31,19.62,-1.50,0.38,1.69,68.15,4.58
74.00,0.00,265.00,14.56,-124.69,-2.75,1.44,-1.12,68.08,4.60
74.00,1.00,270.12,-3.69,-60.94,-2.50,1.94,-0.06,68.08,4.60
74.00,2.00,234.88,-11.31,19.62,-1.25,0.00,2.31,68.08,4.60
74.00,0.00,265.06,14.50,-124.62,-2.56,0.62,-1.50,68.03,4.62
74.00,1.00,270.12,-3.69,-60.88,-2.81,2.12,0.19,68.03,4.62
74.00,2.00,234.88,-11.31,19.62,-1.62,0.06,2.75,68.03,4.62
74.00,0.00,265.06,14.50,-124.56,-2.88,0.62,-2.19,68.01,4.64
74.00,1.00,270.06,-3.75,-60.81,-3.31,2.69,0.06,68.01,4.64
74.00,2.00,234.81,-11.38,19.69,-2.38,0.12,2.88,68.01,4.64
74.00,0.00,265.19,14.44,-124.56,-0.81,-0.94,-1.81,68.07,4.66
74.00,1.00,270.06,-3.75,-60.75,-3.31,2.94,-0.31,68.07,4.66
74.00,2.00,234.75,-11.38,19.75,-2.12,-0.06,2.75,68.07,4.66
74.00,0.00,265.19,14.44,-124.56,0.31,-0.62,-0.38,68.14,4.68
74.00,1.00,270.00,-3.81,-60.69,-2.75,2.88,-0.19,68.14,4.68
74.00,2.00,234.69,-11.38,19.75,-1.12,0.75,2.94,68.14,4.68
74.00,0.00,265.19,14.44,-124.56,-0.75,0.25,-0.81,68.18,4.70
74.00,1.00,270.00,-3.81,-60.62,-2.69,2.56,0.19,68.18,4.70
74.00,2.00,234.62,-11.44,19.75,-1.50,-0.31,3.38,68.18,4.70
74.00,0.00,265.19,14.44,-124.50,-1.19,1.56,-1.56,68.16,4.72
74.00,1.00,269.94,-3.88,-60.56,-2.56,2.88,-0.12,68.16,4.72
74.00,2.00,234.50,-11.44,19.75,-0.75,-1.31,3.75,68.16,4.72
74.00,0.00,265.19,14.44,-124.50,-0.81,2.19,-2.25,68.11,4.74
74.00,1.00,269.88,-3.88,-60.56,-2.69,3.00,-0.06,68.11,4.74
74.00,2.00,234.44,-11.44,19.75,0.06,-1.44,3.69,68.11,4.74
74.00,0.00,265.12,14.44,-124.44,-0.25,2.62,-1.44,68.19,4.76
74.00,1.00,269.88,-3.88,-60.50,-1.88,3.44,0.12,68.19,4.76
74.00,2.00,234.38,-11.44,19.75,-1.88,-2.00,4.25,68.19,4.76
74.00,0.00,265.00,14.44,-124.44,0.88,3.81,-0.75,68.30,4.78
74.00,1.00,269.81,-3.94,-60.44,-1.88,2.88,-0.31,68.30,4.78
74.00,2.00,234.25,-11.44,19.81,-1.44,-1.81,3.62,68.30,4.78
74.00,0.00,264.88,14.50,-124.44,2.00,4.50,-0.38,68.41,4.80
74.00,1.00,269.81,-3.94,-60.44,-1.75,2.50,-0.50,68.41,4.80
74.00,2.00,234.25,-11.44,19.81,-0.25,-0.88,2.56,68.41,4.80
74.00,0.00,264.69,14.50,-124.50,2.25,3.81,-0.50,68.53,4.82
74.00,1.00,269.75,-4.00,-60.38,-2.31,1.88,-0.44,68.53,4.82
74.00,2.00,234.19,-11.44,19.81,-0.25,-0.44,2.50,68.53,4.82
74.00,0.00,264.62,14.56,-124.50,1.62,2.25,-0.69,68.66,4.84
74.00,1.00,269.75,-4.00,-60.38,-2.12,1.75,-0.12,68.66,4.84
74.00,2.00,234.12,-11.44,19.81,-1.25,-0.06,2.94,68.66,4.84
74.00,0.00,264.56,14.56,-124.50,1.19,1.50,-1.00,68.81,4.86
74.00,1.00,269.75,-4.00,-60.31,-2.06,1.75,-0.31,68.81,4.86
74.00,2.00,234.06,-11.50,19.81,-1.94,-0.25,3.12,68.81,4.86
74.00,0.00,264.56,14.50,-124.50,0.50,0.50,-1.25,68.88,4.88
74.00,1.00,269.69,-4.06,-60.25,-2.25,2.25,-0.62,68.88,4.88
74.00,2.00,234.00,-11.50,19.88,-1.00,0.44,2.69,68.88,4.88
74.00,0.00,264.62,14.50,-124.44,0.31,0.31,-1.50,68.95,4.90
74.00,1.00,269.69,-4.06,-60.25,-2.19,2.56,-0.38,68.95,4.90
74.00,2.00,233.94,-11.50,19.88,-1.00,0.75,2.38,68.95,4.90
74.00,0.00,264.75,14.44,-124.44,-0.19,-0.44,-1.75,69.03,4.92
74.00,1.00,269.69,-4.12,-60.19,-1.94,2.25,0.00,69.03,4.92
74.00,2.00,233.94,-11.56,19.88,-1.88,1.00,1.94,69.03,4.92
74.00,0.00,264.81,14.38,-124.38,-0.19,-1.25,-1.62,69.15,4.94
74.00,1.00,269.62,-4.12,-60.19,-1.38,1.56,-0.38,69.15,4.94
74.00,2.00,233.88,-11.56,19.94,-2.75,0.94,1.62,69.15,4.94
74.00,0.00,264.88,14.38,-124.38,-0.31,-1.44,-1.81,69.21,4.96
74.00,1.00,269.62,-4.12,-60.12,-1.38,1.44,-1.19,69.21,4.96
74.00,2.00,233.88,-11.62,19.94,-1.69,1.38,1.44,69.21,4.96
74.00,0.00,265.00,14.31,-124.38,-1.00,-1.62,-2.00,69.16,4.98
74.00,1.00,269.62,-4.19,-60.12,-1.44,1.56,-1.38,69.16,4.98
74.00,2.00,233.81,-11.69,20.00,0.06,2.00,0.75,69.16,4.98
74.00,0.00,265.06,14.25,-124.38,-1.69,-1.38,-1.62,69.11,5.00
74.00,1.00,269.62,-4.25,-60.06,-2.12,1.62,-1.25,69.11,5.00
74.00,2.00,233.81,-11.69,20.00,-0.50,1.88,0.81,69.11,5.00
74.00,0.00,265.12,14.25,-124.31,-1.88,-0.12,-1.62,69.12,5.02
74.00,1.00,269.62,-4.25,-60.06,-2.25,1.44,-1.25,69.12,5.02
74.00,2.00,233.81,-11.75,20.00,-2.12,1.31,1.38,69.12,5.02
74.00,0.00,265.19,14.19,-124.25,-1.44,0.50,-1.38,69.18,5.04
74.00,1.00,269.69,-4.25,-60.00,-2.25,1.62,-1.31,69.18,5.04
74.00,2.00,233.81,-11.75,20.06,-2.69,1.12,1.50,69.18,5.04
74.00,0.00,265.25,14.19,-124.25,-1.50,-0.12,-1.31,69.21,5.06
74.00,1.00,269.69,-4.31,-60.00,-2.50,1.06,-1.19,69.21,5.06
74.00,2.00,233.75,-11.81,20.12,-2.19,1.69,1.00,69.21,5.06
74.00,0.00,265.31,14.19,-124.19,-1.56,-0.69,-1.31,69.21,5.08
74.00,1.00,269.69,-4.38,-59.94,-2.06,1.44,-1.38,69.21,5.08
74.00,2.00,233.75,-11.81,20.12,-1.50,1.88,0.31,69.21,5.08
74.00,0.00,265.38,14.12,-124.19,-1.69,-1.19,-1.19,69.18,5.10
74.00,1.00,269.69,-4.38,-59.88,-1.94,1.62,-1.31,69.18,5.10
74.00,2.00,233.75,-11.88,20.19,-1.12,2.31,0.31,69.18,5.10
74.00,0.00,265.44,14.12,-124.12,-2.00,-1.19,-1.12,69.14,5.12
74.00,1.00,269.69,-4.44,-59.88,-1.69,1.31,-1.31,69.14,5.12
74.00,2.00,233.75,-11.94,20.19,-1.06,1.25,1.06,69.14,5.12
74.00,0.00,265.56,14.06,-124.06,-2.31,-1.25,-1.19,69.08,5.14
74.00,1.00,269.69,-4.44,-59.81,-1.75,0.88,-1.50,69.08,5.14
74.00,2.00,233.75,-11.94,20.19,-1.12,1.06,0.75,69.08,5.14
74.00,0.00,265.69,14.00,-124.06,-2.00,-2.69,-1.12,69.04,5.16
74.00,1.00,269.75,-4.50,-59.75,-2.69,2.19,-1.12,69.04,5.16
74.00,2.00,233.75,-12.00,20.25,-1.06,1.88,0.75,69.04,5.16
74.00,0.00,265.75,14.00,-124.06,-0.69,-2.81,0.69,69.11,5.18
74.00,1.00,269.69,-4.50,-59.75,-2.44,2.81,-0.31,69.11,5.18
74.00,2.00,233.75,-12.00,20.25,-2.31,2.56,0.50,69.11,5.18
74.00,0.00,265.81,14.00,-124.00,-1.31,-1.44,0.25,69.15,5.20
74.00,1.00,269.69,-4.56,-59.69,-1.38,1.19,-0.69,69.15,5.20
74.00,2.00,233.69,-12.06,20.31,-2.12,1.38,1.12,69.15,5.20
74.00,0.00,265.94,13.94,-124.00,-1.50,-2.06,-0.62,69.10,5.22
74.00,1.00,269.69,-4.56,-59.69,-1.25,1.12,-0.75,69.10,5.22
74.00,2.00,233.69,-12.06,20.31,-0.50,1.69,0.56,69.10,5.22
74.00,0.00,266.00,13.94,-124.00,-0.94,-2.50,-1.00,69.09,5.24
74.00,1.00,269.69,-4.56,-59.62,-1.06,1.38,-0.44,69.09,5.24
74.00,2.00,233.69,-12.12,20.31,-0.62,1.69,0.31,69.09,5.24
74.00,0.00,266.12,13.88,-124.00,-0.25,-2.00,-0.44,69.14,5.26
74.00,1.00,269.62,-4.56,-59.62,-0.88,1.06,-0.75,69.14,5.26
74.00,2.00,233.69,-12.12,20.38,-1.25,1.38,0.69,69.14,5.26
74.00,0.00,266.12,13.88,-124.00,0.06,-1.25,-0.38,69.20,5.28
74.00,1.00,269.69,-4.62,-59.62,-1.00,1.12,-1.12,69.20,5.28
74.00,2.00,233.69,-12.19,20.38,-1.19,1.00,0.56,69.20,5.28
74.00,0.00,266.19,13.88,-124.00,-0.38,-1.19,-0.38,69.18,5.30
74.00,1.00,269.69,-4.62,-59.56,-1.31,0.81,-1.38,69.18,5.30
74.00,2.00,233.69,-12.19,20.38,0.00,1.12,0.56,69.18,5.30
74.00,0.00,266.25,13.88,-124.00,-0.38,-1.62,-0.56,69.19,5.32
74.00,1.00,269.69,-4.69,-59.56,-1.44,0.81,-0.69,69.19,5.32
74.00,2.00,233.69,-12.25,20.44,-0.62,1.38,0.62,69.19,5.32
74.00,0.00,266.31,13.81,-124.00,-0.31,-1.31,-0.38,69.27,5.34
74.00,1.00,269.69,-4.69,-59.50,-1.38,0.56,-0.44,69.27,5.34
74.00,2.00,233.69,-12.25,20.44,-1.94,0.50,0.62,69.27,5.34
74.00,0.00,266.38,13.81,-123.94,-0.62,-0.62,-0.25,69.33,5.36
74.00,1.00,269.69,-4.69,-59.50,-0.75,0.38,-0.75,69.33,5.36
74.00,2.00,233.69,-12.25,20.50,-1.88,0.56,0.75,69.33,5.36
74.00,0.00,266.38,13.81,-123.94,-0.50,0.00,-0.50,69.33,5.38
74.00,1.00,269.69,-4.69,-59.50,-0.69,-0.12,-0.94,69.33,5.38
74.00,2.00,233.62,-12.25,20.56,-0.50,0.69,0.38,69.33,5.38
74.00,0.00,266.38,13.81,-123.94,-0.06,0.25,-0.38,69.33,5.40
74.00,1.00,269.69,-4.75,-59.50,-1.06,0.25,-0.88,69.33,5.40
74.00,2.00,233.69,-12.31,20.56,-0.06,1.06,0.06,69.33,5.40
74.00,0.00,266.38,13.81,-123.94,0.81,0.62,-0.38,69.39,5.42
74.00,1.00,269.75,-4.75,-59.44,-0.56,0.12,-1.00,69.39,5.42
74.00,2.00,233.69,-12.31,20.56,-0.56,0.88,-0.06,69.39,5.42
74.00,0.00,266.31,13.81,-123.94,1.38,1.00,-0.38,69.47,5.44
74.00,1.00,269.75,-4.75,-59.44,-0.12,-0.19,-1.00,69.47,5.44
74.00,2.00,233.69,-12.38,20.62,-0.19,0.81,-0.12,69.47,5.44
74.00,0.00,266.25,13.81,-124.00,2.06,1.38,-0.88,69.57,5.46
74.00,1.00,269.75,-4.75,-59.44,-0.06,-0.44,-0.81,69.57,5.46
74.00,2.00,233.69,-12.38,20.62,-0.19,0.81,-0.25,69.57,5.46
74.00,0.00,266.25,13.81,-124.00,2.50,1.69,-0.38,69.72,5.48
74.00,1.00,269.81,-4.75,-59.44,0.56,-0.94,-0.88,69.72,5.48
74.00,2.00,233.69,-12.38,20.69,-0.50,0.62,0.00,69.72,5.48
74.00,0.00,266.12,13.88,-124.00,2.94,1.38,0.25,69.86,5.50
74.00,1.00,269.81,-4.81,-59.44,0.75,-1.38,-1.12,69.86,5.50
74.00,2.00,233.69,-12.44,20.69,-0.06,0.50,0.00,69.86,5.50
74.00,0.00,266.06,13.88,-124.06,3.75,2.00,0.31,70.00,5.52
74.00,1.00,269.88,-4.81,-59.44,1.06,-1.38,-1.06,70.00,5.52
74.00,2.00,233.69,-12.44,20.69,0.69,0.38,-0.69,70.00,5.52
74.00,0.00,266.00,13.88,-124.12,3.62,1.81,0.19,70.13,5.54
74.00,1.00,269.94,-4.88,-59.44,1.31,-1.44,-0.94,70.13,5.54
74.00,2.00,233.69,-12.44,20.69,1.00,0.50,-1.06,70.13,5.54
74.00,0.00,265.94,13.88,-124.12,3.56,2.00,-0.75,70.29,5.56
74.00,1.00,270.00,-4.88,-59.50,1.69,-2.38,-0.81,70.29,5.56
74.00,2.00,233.75,-12.44,20.75,0.19,0.38,-1.31,70.29,5.56
