Iteration,IMUNo,OrientationX (deg),OrientationY,OrientationZ,GyroX (20rad/sec),GyroY,GyroZ,Elbow_Pos (rad),Time (sec)
75.00,0.00,291.38,3.31,-95.31,0.25,1.25,0.38,-0.02,1.02
75.00,1.00,272.12,-1.50,-63.88,-0.19,-0.44,0.00,-0.02,1.02
75.00,2.00,243.88,-14.19,21.75,0.62,-0.50,0.88,-0.02,1.02
75.00,0.00,291.31,3.31,-95.31,-0.06,0.88,0.31,-0.01,1.04
75.00,1.00,272.12,-1.50,-63.88,0.00,0.12,0.19,-0.01,1.04
75.00,2.00,243.88,-14.19,21.75,-0.31,-0.56,1.06,-0.01,1.04
75.00,0.00,291.31,3.31,-95.31,0.06,0.38,0.19,0.03,1.06
75.00,1.00,272.12,-1.50,-63.88,-0.12,0.06,0.44,0.03,1.06
75.00,2.00,243.81,-14.19,21.75,-0.69,-0.75,0.75,0.03,1.06
75.00,0.00,291.31,3.31,-95.31,0.06,-0.38,0.19,0.04,1.08
75.00,1.00,272.12,-1.50,-63.88,-0.12,-0.19,0.38,0.04,1.08
75.00,2.00,243.81,-14.19,21.75,-0.12,-0.38,0.00,0.04,1.08
75.00,0.00,291.31,3.31,-95.31,-0.25,-0.56,0.00,0.02,1.10
75.00,1.00,272.12,-1.50,-63.88,-0.38,0.12,0.19,0.02,1.10
75.00,2.00,243.81,-14.19,21.75,0.19,-0.38,-0.12,0.02,1.10
75.00,0.00,291.31,3.31,-95.31,-0.88,-0.12,-0.25,-0.06,1.12
75.00,1.00,272.12,-1.50,-63.88,-0.44,-0.12,-0.12,-0.06,1.12
75.00,2.00,243.81,-14.19,21.69,0.62,-0.31,0.12,-0.06,1.12
75.00,0.00,291.31,3.31,-95.25,-0.81,-0.62,-0.25,-0.09,1.14
75.00,1.00,272.12,-1.50,-63.88,-0.19,-0.12,0.00,-0.09,1.14
75.00,2.00,243.81,-14.19,21.69,-0.19,-0.06,0.44,-0.09,1.14
75.00,0.00,291.31,3.31,-95.25,-0.38,-1.44,-0.06,-0.08,1.16
75.00,1.00,272.12,-1.50,-63.88,0.19,0.00,0.06,-0.08,1.16
75.00,2.00,243.81,-14.19,21.69,-0.44,-0.06,0.25,-0.08,1.16
75.00,0.00,291.38,3.25,-95.25,-0.06,-1.56,-0.19,-0.11,1.18
75.00,1.00,272.12,-1.50,-63.88,-0.12,-0.44,0.00,-0.11,1.18
75.00,2.00,243.81,-14.19,21.69,0.44,-0.06,-0.50,-0.11,1.18
75.00,0.00,291.44,3.25,-95.25,-0.19,-1.31,-0.19,-0.15,1.20
75.00,1.00,272.12,-1.50,-63.88,-0.12,-0.69,-0.31,-0.15,1.20
75.00,2.00,243.81,-14.19,21.69,0.62,0.25,-0.62,-0.15,1.20
75.00,0.00,291.44,3.25,-95.25,-0.56,-0.81,-0.44,-0.18,1.22
75.00,1.00,272.12,-1.50,-63.88,-0.31,-0.12,-0.38,-0.18,1.22
75.00,2.00,243.81,-14.19,21.69,0.19,0.19,0.00,-0.18,1.22
75.00,0.00,291.44,3.25,-95.25,-0.25,-0.56,-0.44,-0.18,1.24
75.00,1.00,272.12,-1.50,-63.88,-0.56,-0.50,-0.44,-0.18,1.24
75.00,2.00,243.81,-14.19,21.69,-0.31,0.06,0.50,-0.18,1.24
75.00,0.00,291.44,3.25,-95.25,-0.06,-0.94,-0.31,-0.19,1.26
75.00,1.00,272.12,-1.50,-63.88,-0.19,-0.06,-0.31,-0.19,1.26
75.00,2.00,243.81,-14.19,21.69,0.06,0.12,0.19,-0.19,1.26
75.00,0.00,291.44,3.25,-95.25,-0.06,-0.12,-0.50,-0.21,1.28
75.00,1.00,272.12,-1.50,-63.88,-0.25,-0.44,-0.06,-0.21,1.28
75.00,2.00,243.81,-14.19,21.69,0.38,-0.19,0.25,-0.21,1.28
75.00,0.00,291.44,3.25,-95.25,-0.12,0.06,-0.25,-0.24,1.30
75.00,1.00,272.12,-1.50,-63.88,0.12,-0.38,-0.19,-0.24,1.30
75.00,2.00,243.81,-14.19,21.69,0.62,-0.12,0.31,-0.24,1.30
75.00,0.00,291.44,3.25,-95.25,0.00,0.19,0.12,-0.26,1.32
75.00,1.00,272.12,-1.50,-63.88,0.00,-0.25,-0.38,-0.26,1.32
75.00,2.00,243.81,-14.19,21.69,0.31,-0.19,0.38,-0.26,1.32
75.00,0.00,291.44,3.25,-95.25,0.25,0.25,0.12,-0.23,1.34
75.00,1.00,272.12,-1.50,-63.88,-0.12,0.00,0.06,-0.23,1.34
75.00,2.00,243.81,-14.19,21.69,-0.44,-0.50,0.44,-0.23,1.34
75.00,0.00,291.44,3.25,-95.25,0.50,0.12,0.31,-0.21,1.36
75.00,1.00,272.12,-1.50,-63.88,-0.44,-0.19,-0.12,-0.21,1.36
75.00,2.00,243.81,-14.19,21.69,0.19,-0.25,0.12,-0.21,1.36
75.00,0.00,291.44,3.25,-95.31,0.44,0.12,0.06,-0.20,1.38
75.00,1.00,272.12,-1.50,-63.81,-0.50,-0.31,-0.06,-0.20,1.38
75.00,2.00,243.81,-14.19,21.69,0.31,-0.19,-0.06,-0.20,1.38
75.00,0.00,291.44,3.25,-95.31,0.25,-0.19,0.19,-0.21,1.40
75.00,1.00,272.12,-1.50,-63.81,-0.38,0.56,-0.12,-0.21,1.40
75.00,2.00,243.81,-14.19,21.69,0.38,-0.06,0.06,-0.21,1.40
75.00,0.00,291.44,3.25,-95.31,0.12,0.12,0.25,-0.19,1.42
75.00,1.00,272.12,-1.50,-63.81,-0.62,0.50,0.31,-0.19,1.42
75.00,2.00,243.81,-14.19,21.69,-0.31,-0.38,0.81,-0.19,1.42
75.00,0.00,291.44,3.25,-95.31,0.38,0.69,0.38,-0.12,1.44
75.00,1.00,272.12,-1.50,-63.81,-0.81,-0.56,0.19,-0.12,1.44
75.00,2.00,243.81,-14.19,21.69,-1.00,0.12,0.69,-0.12,1.44
75.00,0.00,291.44,3.31,-95.31,0.62,1.25,0.81,-0.01,1.46
75.00,1.00,272.12,-1.50,-63.81,-0.69,0.25,-0.12,-0.01,1.46
75.00,2.00,243.81,-14.19,21.75,-1.62,0.88,0.81,-0.01,1.46
75.00,0.00,291.38,3.31,-95.31,0.75,0.12,1.00,0.05,1.48
75.00,1.00,272.12,-1.50,-63.81,-0.94,0.50,-0.44,0.05,1.48
75.00,2.00,243.81,-14.25,21.75,-0.50,1.00,0.12,0.05,1.48
75.00,0.00,291.38,3.31,-95.31,1.12,-0.69,0.75,0.08,1.50
75.00,1.00,272.12,-1.50,-63.75,-1.50,0.50,-0.31,0.08,1.50
75.00,2.00,243.81,-14.25,21.75,0.50,-0.38,-0.31,0.08,1.50
75.00,0.00,291.38,3.31,-95.38,1.38,-1.31,-0.25,0.09,1.52
75.00,1.00,272.12,-1.50,-63.75,-0.62,0.06,-0.56,0.09,1.52
75.00,2.00,243.81,-14.25,21.75,1.19,-0.31,-0.88,0.09,1.52
75.00,0.00,291.44,3.31,-95.38,2.06,-0.38,-0.62,0.17,1.54
75.00,1.00,272.12,-1.50,-63.75,0.31,0.12,-0.19,0.17,1.54
75.00,2.00,243.81,-14.25,21.69,0.38,0.75,0.00,0.17,1.54
75.00,0.00,291.44,3.31,-95.44,2.69,-0.81,-0.12,0.34,1.56
75.00,1.00,272.12,-1.50,-63.75,0.19,-0.19,-0.25,0.34,1.56
75.00,2.00,243.81,-14.25,21.75,-0.75,1.38,0.56,0.34,1.56
75.00,0.00,291.44,3.31,-95.50,3.62,-2.00,0.50,0.56,1.58
75.00,1.00,272.12,-1.50,-63.75,-0.56,-0.38,-0.56,0.56,1.58
75.00,2.00,243.81,-14.25,21.75,-0.88,1.69,0.06,0.56,1.58
75.00,0.00,291.50,3.31,-95.56,3.88,-2.94,0.50,0.75,1.60
75.00,1.00,272.12,-1.50,-63.75,-1.06,-0.12,-0.94,0.75,1.60
75.00,2.00,243.81,-14.31,21.75,-0.06,1.56,-0.62,0.75,1.60
75.00,0.00,291.56,3.31,-95.69,4.56,-3.88,0.12,0.96,1.62
75.00,1.00,272.12,-1.56,-63.75,-0.88,0.06,-1.31,0.96,1.62
75.00,2.00,243.81,-14.31,21.75,0.25,1.69,-0.69,0.96,1.62
75.00,0.00,291.69,3.25,-95.75,5.06,-4.12,0.19,1.20,1.64
75.00,1.00,272.19,-1.56,-63.69,-0.69,-0.12,-1.25,1.20,1.64
75.00,2.00,243.88,-14.38,21.75,0.25,1.25,-0.38,1.20,1.64
75.00,0.00,291.75,3.25,-95.88,5.62,-3.12,0.75,1.46,1.66
75.00,1.00,272.19,-1.56,-63.69,0.06,0.06,-1.00,1.46,1.66
75.00,2.00,243.88,-14.38,21.75,0.25,1.38,0.38,1.46,1.66
75.00,0.00,291.75,3.31,-96.00,6.06,-2.25,1.38,1.72,1.68
75.00,1.00,272.19,-1.62,-63.69,0.44,0.00,-0.88,1.72,1.68
75.00,2.00,243.88,-14.38,21.75,0.75,1.62,0.56,1.72,1.68
75.00,0.00,291.75,3.31,-96.12,6.81,-0.69,1.94,2.03,1.70
75.00,1.00,272.25,-1.62,-63.69,0.12,0.50,-0.81,2.03,1.70
75.00,2.00,243.88,-14.44,21.75,0.50,0.88,0.62,2.03,1.70
75.00,0.00,291.69,3.38,-96.25,7.50,0.62,2.44,2.34,1.72
75.00,1.00,272.25,-1.62,-63.69,0.44,-0.06,-0.69,2.34,1.72
75.00,2.00,243.81,-14.44,21.75,1.19,0.31,1.31,2.34,1.72
75.00,0.00,291.56,3.44,-96.44,8.31,1.25,3.38,2.71,1.74
75.00,1.00,272.25,-1.62,-63.69,0.56,0.00,-0.62,2.71,1.74
75.00,2.00,243.81,-14.44,21.69,0.75,0.50,1.56,2.71,1.74
75.00,0.00,291.44,3.50,-96.56,7.44,2.81,2.81,3.11,1.76
75.00,1.00,272.25,-1.62,-63.69,0.56,0.31,-0.06,3.11,1.76
75.00,2.00,243.75,-14.50,21.69,-0.69,0.62,1.88,3.11,1.76
75.00,0.00,291.31,3.56,-96.75,8.00,3.06,2.81,3.55,1.78
75.00,1.00,272.25,-1.62,-63.69,0.00,0.25,-0.06,3.55,1.78
75.00,2.00,243.75,-14.50,21.69,-1.00,0.75,2.12,3.55,1.78
75.00,0.00,291.19,3.62,-96.88,9.00,2.38,3.88,4.00,1.80
75.00,1.00,272.25,-1.62,-63.69,-0.31,0.38,-0.44,4.00,1.80
75.00,2.00,243.69,-14.56,21.69,-0.38,0.69,1.81,4.00,1.80
75.00,0.00,291.06,3.75,-97.06,10.25,1.44,5.38,4.50,1.82
75.00,1.00,272.25,-1.62,-63.69,0.31,0.44,-0.56,4.50,1.82
75.00,2.00,243.69,-14.56,21.69,0.12,0.62,1.62,4.50,1.82
75.00,0.00,290.88,3.88,-97.31,10.06,1.56,5.12,5.00,1.84
75.00,1.00,272.25,-1.62,-63.69,0.56,0.50,-0.50,5.00,1.84
75.00,2.00,243.62,-14.56,21.69,-0.12,0.62,1.81,5.00,1.84
75.00,0.00,290.75,3.94,-97.50,11.12,0.69,5.50,5.55,1.86
75.00,1.00,272.25,-1.62,-63.69,-0.06,0.19,-0.50,5.55,1.86
75.00,2.00,243.62,-14.56,21.69,-0.12,0.50,1.62,5.55,1.86
75.00,0.00,290.62,4.06,-97.75,11.56,0.50,5.06,6.11,1.88
75.00,1.00,272.25,-1.62,-63.75,0.62,0.19,-0.62,6.11,1.88
75.00,2.00,243.56,-14.62,21.69,0.00,0.56,1.62,6.11,1.88
75.00,0.00,290.50,4.12,-97.94,11.94,0.69,4.88,6.63,1.90
75.00,1.00,272.31,-1.69,-63.75,1.06,-0.25,-1.12,6.63,1.90
75.00,2.00,243.56,-14.62,21.62,1.44,0.31,1.25,6.63,1.90
75.00,0.00,290.31,4.25,-98.19,12.12,1.62,5.06,7.14,1.92
75.00,1.00,272.31,-1.69,-63.75,0.50,-0.25,-1.12,7.14,1.92
75.00,2.00,243.50,-14.62,21.62,1.62,0.75,1.44,7.14,1.92
75.00,0.00,290.19,4.38,-98.44,12.50,2.00,5.19,7.73,1.94
75.00,1.00,272.31,-1.69,-63.75,1.12,-0.19,-0.62,7.73,1.94
75.00,2.00,243.50,-14.62,21.62,0.50,0.06,1.94,7.73,1.94
75.00,0.00,290.00,4.50,-98.69,13.31,1.62,6.06,8.36,1.96
75.00,1.00,272.31,-1.69,-63.75,0.25,-0.12,-0.38,8.36,1.96
75.00,2.00,243.44,-14.62,21.56,0.31,-0.50,1.50,8.36,1.96
75.00,0.00,289.81,4.62,-98.94,13.81,1.12,5.94,9.00,1.98
75.00,1.00,272.31,-1.69,-63.75,0.56,-0.44,-0.31,9.00,1.98
75.00,2.00,243.44,-14.69,21.56,0.69,-0.50,1.31,9.00,1.98
75.00,0.00,289.69,4.69,-99.19,13.00,0.81,5.56,9.63,2.00
75.00,1.00,272.31,-1.69,-63.75,0.38,0.31,-0.38,9.63,2.00
75.00,2.00,243.44,-14.69,21.56,0.25,0.62,0.88,9.63,2.00
75.00,0.00,289.50,4.81,-99.44,10.88,2.25,3.31,10.17,2.02
75.00,1.00,272.31,-1.69,-63.75,0.50,0.31,0.44,10.17,2.02
75.00,2.00,243.38,-14.69,21.56,-0.19,0.44,2.00,10.17,2.02
75.00,0.00,289.38,4.88,-99.62,12.50,1.19,4.44,10.77,2.04
75.00,1.00,272.31,-1.69,-63.75,-0.50,-0.81,0.12,10.77,2.04
75.00,2.00,243.38,-14.69,21.56,0.19,0.81,2.12,10.77,2.04
75.00,0.00,289.25,5.00,-99.94,13.00,0.00,5.69,11.44,2.06
75.00,1.00,272.38,-1.69,-63.75,0.44,-0.31,-0.75,11.44,2.06
75.00,2.00,243.31,-14.75,21.56,-0.75,1.00,2.25,11.44,2.06
75.00,0.00,289.06,5.12,-100.12,12.12,1.81,5.31,12.07,2.08
75.00,1.00,272.38,-1.75,-63.75,0.25,0.81,-0.69,12.07,2.08
75.00,2.00,243.25,-14.75,21.56,-0.75,0.94,2.19,12.07,2.08
75.00,0.00,288.88,5.19,-100.38,10.75,3.25,4.62,12.54,2.10
75.00,1.00,272.38,-1.75,-63.75,-0.62,1.12,-0.31,12.54,2.10
75.00,2.00,243.25,-14.81,21.56,1.19,0.06,1.94,12.54,2.10
75.00,0.00,288.75,5.31,-100.56,11.00,2.06,3.81,13.00,2.12
75.00,1.00,272.38,-1.75,-63.75,-0.31,0.12,-0.25,13.00,2.12
75.00,2.00,243.19,-14.81,21.50,1.62,-0.25,2.25,13.00,2.12
75.00,0.00,288.62,5.38,-100.81,12.38,-1.00,4.62,13.58,2.14
75.00,1.00,272.38,-1.75,-63.75,0.38,0.19,-0.12,13.58,2.14
75.00,2.00,243.19,-14.81,21.44,0.56,-0.12,2.25,13.58,2.14
75.00,0.00,288.56,5.44,-101.06,12.12,-0.75,4.12,14.19,2.16
75.00,1.00,272.38,-1.75,-63.81,0.81,0.00,0.19,14.19,2.16
75.00,2.00,243.12,-14.81,21.44,-0.50,0.00,2.56,14.19,2.16
75.00,0.00,288.44,5.50,-101.25,11.31,1.19,3.38,14.76,2.18
75.00,1.00,272.38,-1.81,-63.81,0.31,-0.25,0.00,14.76,2.18
75.00,2.00,243.06,-14.88,21.44,-0.25,-0.06,2.31,14.76,2.18
75.00,0.00,288.31,5.56,-101.44,10.25,3.12,2.81,15.23,2.20
75.00,1.00,272.38,-1.81,-63.81,-0.31,-0.19,-0.38,15.23,2.20
75.00,2.00,243.00,-14.88,21.44,0.50,-0.56,2.44,15.23,2.20
75.00,0.00,288.12,5.69,-101.69,13.25,1.69,5.25,15.85,2.22
75.00,1.00,272.38,-1.81,-63.81,0.12,-0.06,-0.88,15.85,2.22
75.00,2.00,243.00,-14.88,21.44,0.62,-0.62,2.50,15.85,2.22
75.00,0.00,287.94,5.81,-102.00,14.62,-0.06,8.00,16.54,2.24
75.00,1.00,272.44,-1.81,-63.81,0.62,0.25,-0.75,16.54,2.24
75.00,2.00,242.94,-14.88,21.38,0.56,-0.50,2.19,16.54,2.24
75.00,0.00,287.75,6.00,-102.25,13.69,1.25,7.81,17.19,2.26
75.00,1.00,272.44,-1.81,-63.81,0.56,0.00,-0.38,17.19,2.26
75.00,2.00,242.88,-14.88,21.38,0.44,-0.62,2.25,17.19,2.26
75.00,0.00,287.50,6.12,-102.50,11.44,3.25,5.38,17.71,2.28
75.00,1.00,272.44,-1.88,-63.88,0.06,-0.31,-0.44,17.71,2.28
75.00,2.00,242.88,-14.88,21.38,0.75,-0.38,1.88,17.71,2.28
75.00,0.00,287.31,6.19,-102.69,10.88,3.62,4.44,18.23,2.30
75.00,1.00,272.44,-1.88,-63.88,-0.19,0.81,-0.31,18.23,2.30
75.00,2.00,242.81,-14.94,21.31,0.25,-0.94,2.06,18.23,2.30
75.00,0.00,287.12,6.31,-102.94,12.81,1.88,6.00,18.85,2.32
75.00,1.00,272.44,-1.88,-63.88,0.62,0.06,-0.31,18.85,2.32
75.00,2.00,242.75,-14.94,21.31,0.06,-1.75,2.38,18.85,2.32
75.00,0.00,286.94,6.44,-103.19,14.19,0.62,7.44,19.54,2.34
75.00,1.00,272.44,-1.88,-63.88,0.81,0.00,-0.44,19.54,2.34
75.00,2.00,242.69,-14.88,21.31,0.12,-1.69,2.25,19.54,2.34
75.00,0.00,286.75,6.62,-103.50,14.06,-0.12,7.56,20.19,2.36
75.00,1.00,272.44,-1.88,-63.88,0.69,-0.56,-0.19,20.19,2.36
75.00,2.00,242.69,-14.88,21.31,0.88,-1.38,1.50,20.19,2.36
75.00,0.00,286.50,6.75,-103.75,12.69,1.12,6.31,20.75,2.38
75.00,1.00,272.44,-1.88,-63.94,0.38,-0.75,-0.31,20.75,2.38
75.00,2.00,242.62,-14.88,21.25,1.12,-1.31,1.56,20.75,2.38
75.00,0.00,286.38,6.88,-104.00,14.62,-0.19,6.75,21.40,2.40
75.00,1.00,272.50,-1.88,-63.94,0.12,-0.44,-0.94,21.40,2.40
75.00,2.00,242.62,-14.88,21.25,1.44,-1.75,1.69,21.40,2.40
75.00,0.00,286.19,7.00,-104.31,16.25,-1.75,8.44,22.16,2.42
75.00,1.00,272.50,-1.94,-63.94,0.50,0.00,-0.81,22.16,2.42
75.00,2.00,242.56,-14.81,21.19,0.69,-2.00,2.06,22.16,2.42
75.00,0.00,286.00,7.12,-104.62,14.56,-0.44,6.88,22.87,2.44
75.00,1.00,272.50,-1.94,-63.94,0.38,-0.25,-0.69,22.87,2.44
75.00,2.00,242.50,-14.81,21.19,-0.06,-3.19,2.38,22.87,2.44
75.00,0.00,285.88,7.25,-104.94,14.38,0.50,6.00,23.55,2.46
75.00,1.00,272.50,-1.94,-63.94,0.12,-0.62,-0.25,23.55,2.46
75.00,2.00,242.44,-14.75,21.19,0.56,-2.62,2.00,23.55,2.46
75.00,0.00,285.69,7.38,-105.19,15.62,-0.19,7.12,24.26,2.48
75.00,1.00,272.56,-1.94,-63.94,0.12,-0.69,-0.19,24.26,2.48
75.00,2.00,242.38,-14.69,21.12,1.00,-2.56,1.62,24.26,2.48
75.00,0.00,285.50,7.50,-105.56,16.88,-1.44,8.31,25.01,2.50
75.00,1.00,272.56,-1.94,-63.94,0.75,-0.62,-0.44,25.01,2.50
75.00,2.00,242.38,-14.69,21.12,1.50,-3.19,1.88,25.01,2.50
75.00,0.00,285.31,7.69,-105.88,16.12,-1.19,7.94,25.75,2.52
75.00,1.00,272.56,-1.94,-63.94,0.38,-0.75,-0.38,25.75,2.52
75.00,2.00,242.31,-14.62,21.06,1.00,-3.31,1.81,25.75,2.52
75.00,0.00,285.12,7.81,-106.19,14.94,-0.38,6.56,26.43,2.54
75.00,1.00,272.56,-2.00,-64.00,0.06,-0.69,-0.50,26.43,2.54
75.00,2.00,242.25,-14.56,21.06,1.12,-2.31,1.69,26.43,2.54
75.00,0.00,284.94,7.88,-106.50,15.25,-0.19,5.69,27.13,2.56
75.00,1.00,272.62,-2.00,-64.00,-0.62,-0.31,-0.44,27.13,2.56
75.00,2.00,242.25,-14.56,21.00,0.88,-1.94,2.06,27.13,2.56
75.00,0.00,284.81,8.00,-106.81,15.75,-1.56,5.88,27.88,2.58
75.00,1.00,272.62,-2.00,-64.00,-0.62,0.19,-0.25,27.88,2.58
75.00,2.00,242.19,-14.56,21.00,0.38,-2.31,2.00,27.88,2.58
75.00,0.00,284.69,8.12,-107.06,15.12,-2.31,5.44,28.69,2.60
75.00,1.00,272.62,-2.00,-64.00,-0.56,0.56,-0.31,28.69,2.60
75.00,2.00,242.12,-14.50,20.94,-1.31,-2.25,2.88,28.69,2.60
75.00,0.00,284.62,8.19,-107.38,14.69,-2.38,5.19,29.46,2.62
75.00,1.00,272.62,-2.00,-64.00,-1.12,1.19,-0.12,29.46,2.62
75.00,2.00,242.06,-14.50,21.00,-1.00,-1.88,2.75,29.46,2.62
75.00,0.00,284.56,8.25,-107.56,14.38,-2.00,5.00,30.20,2.64
75.00,1.00,272.56,-2.00,-63.94,-0.94,0.19,-0.38,30.20,2.64
75.00,2.00,242.00,-14.50,21.00,-0.88,-1.38,3.31,30.20,2.64
75.00,0.00,284.38,8.31,-107.94,14.19,-1.81,5.00,30.94,2.66
75.00,1.00,272.62,-2.00,-63.94,-0.88,-0.25,-0.62,30.94,2.66
75.00,2.00,241.94,-14.50,21.00,-0.88,-0.88,3.38,30.94,2.66
75.00,0.00,284.31,8.44,-108.25,13.81,-2.00,5.12,31.67,2.68
75.00,1.00,272.62,-2.06,-63.94,-1.00,0.56,-1.25,31.67,2.68
75.00,2.00,241.88,-14.50,21.00,-1.12,-0.81,3.31,31.67,2.68
75.00,0.00,284.25,8.44,-108.38,13.44,-1.12,5.44,32.37,2.70
75.00,1.00,272.62,-2.12,-63.94,-1.12,1.44,-0.69,32.37,2.70
75.00,2.00,241.81,-14.50,21.00,-0.94,-1.50,2.88,32.37,2.70
75.00,0.00,284.00,8.62,-108.75,12.81,-0.81,4.81,33.06,2.72
75.00,1.00,272.62,-2.12,-63.94,-1.12,0.88,-0.31,33.06,2.72
75.00,2.00,241.75,-14.50,21.00,-1.31,-2.19,2.75,33.06,2.72
75.00,0.00,283.94,8.69,-109.00,11.94,-0.69,4.00,33.73,2.74
75.00,1.00,272.62,-2.12,-63.88,-0.56,0.56,-0.44,33.73,2.74
75.00,2.00,241.69,-14.44,21.00,-1.69,-1.62,2.69,33.73,2.74
75.00,0.00,283.81,8.75,-109.25,12.00,-0.94,3.38,34.38,2.76
75.00,1.00,272.62,-2.12,-63.88,-0.12,0.50,-0.25,34.38,2.76
75.00,2.00,241.62,-14.44,21.00,-1.44,-1.81,2.50,34.38,2.76
75.00,0.00,283.69,8.81,-109.50,12.88,-1.38,4.12,35.04,2.78
75.00,1.00,272.62,-2.12,-63.88,-0.69,0.19,-0.31,35.04,2.78
75.00,2.00,241.56,-14.44,21.00,-0.62,-1.81,2.50,35.04,2.78
75.00,0.00,283.62,8.81,-109.62,11.81,0.44,3.19,35.63,2.80
75.00,1.00,272.62,-2.12,-63.88,-0.62,0.44,-0.56,35.63,2.80
75.00,2.00,241.50,-14.44,21.00,-0.06,-2.44,2.81,35.63,2.80
75.00,0.00,283.50,8.88,-109.88,11.00,0.88,2.56,36.18,2.82
75.00,1.00,272.62,-2.12,-63.88,-0.88,0.62,-0.62,36.18,2.82
75.00,2.00,241.44,-14.38,21.00,-0.38,-2.50,2.94,36.18,2.82
75.00,0.00,283.44,8.94,-110.06,12.12,0.06,3.69,36.84,2.84
75.00,1.00,272.69,-2.12,-63.88,-0.88,0.50,-0.50,36.84,2.84
75.00,2.00,241.38,-14.38,21.00,-1.44,-1.75,2.94,36.84,2.84
75.00,0.00,283.25,9.00,-110.31,12.25,0.56,4.06,37.50,2.86
75.00,1.00,272.62,-2.19,-63.88,-0.56,0.69,-0.38,37.50,2.86
75.00,2.00,241.25,-14.31,21.00,-1.12,-2.81,2.81,37.50,2.86
75.00,0.00,283.12,9.06,-110.56,11.25,1.44,3.38,38.04,2.88
75.00,1.00,272.69,-2.19,-63.88,0.00,0.19,-0.62,38.04,2.88
75.00,2.00,241.25,-14.31,21.00,0.19,-3.06,3.00,38.04,2.88
75.00,0.00,283.00,9.19,-110.75,10.75,1.31,2.94,38.55,2.90
75.00,1.00,272.69,-2.19,-63.88,0.06,0.50,-0.12,38.55,2.90
75.00,2.00,241.19,-14.31,21.00,0.38,-1.62,2.12,38.55,2.90
75.00,0.00,282.88,9.19,-111.00,11.19,-1.38,3.31,39.10,2.92
75.00,1.00,272.69,-2.19,-63.88,-0.12,0.56,0.25,39.10,2.92
75.00,2.00,241.12,-14.25,21.00,-0.12,-2.44,2.38,39.10,2.92
75.00,0.00,282.75,9.25,-111.19,11.31,-1.38,3.06,39.65,2.94
75.00,1.00,272.69,-2.19,-63.88,0.12,0.00,0.25,39.65,2.94
75.00,2.00,241.06,-14.25,20.94,0.06,-2.88,2.38,39.65,2.94
75.00,0.00,282.69,9.31,-111.44,8.56,0.31,1.06,40.02,2.96
75.00,1.00,272.69,-2.19,-63.88,0.12,-0.31,-0.19,40.02,2.96
75.00,2.00,241.00,-14.19,20.94,1.06,-2.81,1.94,40.02,2.96
75.00,0.00,282.62,9.31,-111.56,8.31,-0.81,0.12,40.39,2.98
75.00,1.00,272.69,-2.19,-63.88,0.44,-0.19,0.06,40.39,2.98
75.00,2.00,240.94,-14.19,20.88,0.69,-1.50,1.81,40.39,2.98
75.00,0.00,282.62,9.31,-111.75,9.25,-1.75,0.88,40.83,3.00
75.00,1.00,272.69,-2.19,-63.88,0.44,0.00,0.25,40.83,3.00
75.00,2.00,240.94,-14.12,20.88,0.25,-1.44,1.62,40.83,3.00
75.00,0.00,282.62,9.31,-111.94,10.00,-2.69,3.25,41.31,3.02
75.00,1.00,272.69,-2.25,-63.88,0.50,0.00,0.19,41.31,3.02
75.00,2.00,240.88,-14.12,20.88,0.19,-1.50,1.81,41.31,3.02
75.00,0.00,282.56,9.38,-112.12,8.25,-0.81,2.69,41.70,3.04
75.00,1.00,272.69,-2.25,-63.88,0.31,-0.19,-0.19,41.70,3.04
75.00,2.00,240.81,-14.12,20.88,0.25,-2.12,2.25,41.70,3.04
75.00,0.00,282.50,9.38,-112.25,4.06,0.88,-1.25,41.88,3.06
75.00,1.00,272.69,-2.25,-63.88,0.38,-0.06,-0.12,41.88,3.06
75.00,2.00,240.75,-14.12,20.88,0.44,-1.62,2.38,41.88,3.06
75.00,0.00,282.50,9.38,-112.31,6.44,-1.62,0.81,42.18,3.08
75.00,1.00,272.69,-2.25,-63.94,0.19,0.44,0.00,42.18,3.08
75.00,2.00,240.69,-14.06,20.81,0.25,-0.81,2.12,42.18,3.08
75.00,0.00,282.50,9.38,-112.44,8.12,-2.81,3.06,42.58,3.10
75.00,1.00,272.69,-2.25,-63.94,0.50,0.50,0.12,42.58,3.10
75.00,2.00,240.69,-14.06,20.81,-0.06,-1.56,2.50,42.58,3.10
75.00,0.00,282.44,9.44,-112.62,5.12,0.31,3.31,42.81,3.12
75.00,1.00,272.69,-2.25,-63.94,0.69,0.25,0.25,42.81,3.12
75.00,2.00,240.62,-14.06,20.81,0.38,-1.81,2.44,42.81,3.12
75.00,0.00,282.31,9.50,-112.69,4.25,1.50,2.19,42.98,3.14
75.00,1.00,272.69,-2.25,-63.94,0.31,0.50,0.12,42.98,3.14
75.00,2.00,240.56,-14.06,20.81,0.75,-0.81,1.75,42.98,3.14
75.00,0.00,282.19,9.56,-112.75,4.38,2.25,1.38,43.22,3.16
75.00,1.00,272.69,-2.25,-63.94,0.19,0.50,0.00,43.22,3.16
75.00,2.00,240.50,-14.06,20.75,-0.38,-1.31,1.50,43.22,3.16
75.00,0.00,282.12,9.62,-112.88,6.69,0.12,2.25,43.56,3.18
75.00,1.00,272.69,-2.25,-63.94,0.19,-0.38,-0.06,43.56,3.18
75.00,2.00,240.50,-14.00,20.75,-0.38,-2.50,1.12,43.56,3.18
75.00,0.00,282.00,9.69,-113.06,8.75,-1.19,4.38,43.95,3.20
75.00,1.00,272.69,-2.25,-63.94,0.50,-0.88,0.12,43.95,3.20
75.00,2.00,240.50,-14.00,20.75,0.88,-2.31,0.69,43.95,3.20
75.00,0.00,281.88,9.75,-113.25,7.56,0.75,3.75,44.20,3.22
75.00,1.00,272.69,-2.25,-63.94,0.50,-0.62,-0.25,44.20,3.22
75.00,2.00,240.50,-13.94,20.75,2.31,-2.12,0.06,44.20,3.22
75.00,0.00,281.75,9.81,-113.38,6.81,1.69,2.31,44.44,3.24
75.00,1.00,272.75,-2.25,-63.94,0.06,-0.75,0.00,44.44,3.24
75.00,2.00,240.50,-13.94,20.69,2.06,-2.81,0.62,44.44,3.24
75.00,0.00,281.62,9.81,-113.50,7.62,1.06,2.06,44.78,3.26
75.00,1.00,272.75,-2.19,-63.94,0.75,-1.44,0.12,44.78,3.26
75.00,2.00,240.44,-13.81,20.62,0.69,-3.69,1.25,44.78,3.26
75.00,0.00,281.56,9.88,-113.62,7.31,1.12,1.56,45.14,3.28
75.00,1.00,272.75,-2.19,-63.94,1.12,-2.38,-0.25,45.14,3.28
75.00,2.00,240.44,-13.81,20.62,-0.12,-3.19,1.12,45.14,3.28
75.00,0.00,281.44,9.88,-113.81,9.25,0.12,2.56,45.52,3.30
75.00,1.00,272.81,-2.19,-63.94,0.38,-1.12,-0.12,45.52,3.30
75.00,2.00,240.38,-13.75,20.62,1.38,-2.06,0.56,45.52,3.30
75.00,0.00,281.31,9.94,-114.00,10.12,-0.50,3.75,45.93,3.32
75.00,1.00,272.81,-2.19,-64.00,0.81,-0.19,0.38,45.93,3.32
75.00,2.00,240.38,-13.75,20.56,1.88,-3.44,0.69,45.93,3.32
75.00,0.00,281.19,10.00,-114.25,9.69,0.19,3.50,46.27,3.34
75.00,1.00,272.81,-2.19,-64.00,0.56,-1.00,0.50,46.27,3.34
75.00,2.00,240.38,-13.69,20.50,2.62,-3.75,1.25,46.27,3.34
75.00,0.00,281.12,10.06,-114.38,9.00,0.44,3.50,46.60,3.36
75.00,1.00,272.81,-2.19,-64.00,0.81,-0.31,0.69,46.60,3.36
75.00,2.00,240.31,-13.56,20.44,2.31,-2.94,2.00,46.60,3.36
75.00,0.00,280.94,10.19,-114.56,8.62,1.38,3.06,46.96,3.38
75.00,1.00,272.81,-2.19,-64.00,0.88,0.38,0.69,46.96,3.38
75.00,2.00,240.25,-13.56,20.38,1.31,-3.94,3.06,46.96,3.38
75.00,0.00,280.81,10.19,-114.75,9.00,0.69,1.69,47.33,3.40
75.00,1.00,272.81,-2.19,-64.06,0.62,0.69,0.56,47.33,3.40
75.00,2.00,240.19,-13.50,20.38,1.38,-3.31,3.19,47.33,3.40
75.00,0.00,280.69,10.25,-114.94,10.06,-0.31,2.31,47.75,3.42
75.00,1.00,272.75,-2.19,-64.06,0.50,1.50,0.31,47.75,3.42
75.00,2.00,240.12,-13.50,20.31,1.56,-3.06,3.00,47.75,3.42
75.00,0.00,280.56,10.31,-115.19,11.06,-0.50,4.88,48.20,3.44
75.00,1.00,272.75,-2.25,-64.06,0.50,1.94,0.31,48.20,3.44
75.00,2.00,240.06,-13.44,20.25,1.69,-2.88,3.06,48.20,3.44
75.00,0.00,280.38,10.44,-115.38,10.56,1.12,4.88,48.69,3.46
75.00,1.00,272.75,-2.25,-64.06,0.38,2.06,0.50,48.69,3.46
75.00,2.00,239.94,-13.38,20.19,0.56,-3.81,4.25,48.69,3.46
75.00,0.00,280.12,10.50,-115.62,10.31,3.06,4.94,49.18,3.48
75.00,1.00,272.69,-2.25,-64.12,0.06,2.12,0.56,49.18,3.48
75.00,2.00,239.88,-13.38,20.19,0.38,-3.81,4.62,49.18,3.48
75.00,0.00,279.88,10.62,-115.81,10.44,4.06,4.25,49.68,3.50
75.00,1.00,272.69,-2.31,-64.12,-0.31,1.88,0.19,49.68,3.50
75.00,2.00,239.81,-13.31,20.19,0.12,-3.81,4.88,49.68,3.50
75.00,0.00,279.62,10.75,-116.00,10.56,3.94,4.12,50.19,3.52
75.00,1.00,272.69,-2.31,-64.12,-0.31,2.31,-0.06,50.19,3.52
75.00,2.00,239.69,-13.31,20.12,0.19,-3.69,5.00,50.19,3.52
75.00,0.00,279.38,10.81,-116.25,10.81,2.94,4.25,50.71,3.54
75.00,1.00,272.62,-2.38,-64.12,0.00,2.50,0.00,50.71,3.54
75.00,2.00,239.56,-13.25,20.12,0.25,-3.69,4.62,50.71,3.54
75.00,0.00,279.19,10.94,-116.44,10.31,2.31,3.25,51.18,3.56
75.00,1.00,272.62,-2.38,-64.12,-0.31,1.94,0.06,51.18,3.56
75.00,2.00,239.50,-13.25,20.06,0.69,-3.62,4.38,51.18,3.56
75.00,0.00,279.00,10.94,-116.62,11.94,0.12,3.81,51.73,3.58
75.00,1.00,272.62,-2.38,-64.12,-0.44,1.88,-0.12,51.73,3.58
75.00,2.00,239.38,-13.19,20.06,0.69,-3.44,4.44,51.73,3.58
75.00,0.00,278.88,11.06,-116.94,13.19,-0.50,4.88,52.36,3.60
75.00,1.00,272.56,-2.44,-64.12,-0.81,1.38,-0.19,52.36,3.60
75.00,2.00,239.31,-13.19,20.00,0.25,-2.81,4.06,52.36,3.60
75.00,0.00,278.69,11.12,-117.19,13.69,0.25,4.12,53.01,3.62
75.00,1.00,272.56,-2.44,-64.12,-1.06,1.56,-0.44,53.01,3.62
75.00,2.00,239.19,-13.12,20.00,0.38,-3.12,4.06,53.01,3.62
75.00,0.00,278.50,11.19,-117.44,14.19,0.75,4.31,53.70,3.64
75.00,1.00,272.56,-2.44,-64.12,-1.00,1.19,-0.38,53.70,3.64
75.00,2.00,239.12,-13.12,19.94,0.19,-2.88,3.75,53.70,3.64
75.00,0.00,278.25,11.25,-117.69,13.38,1.94,3.88,54.32,3.66
75.00,1.00,272.56,-2.44,-64.12,-0.50,1.12,-0.12,54.32,3.66
75.00,2.00,239.06,-13.06,19.94,0.69,-3.31,3.19,54.32,3.66
75.00,0.00,278.06,11.31,-117.94,11.00,2.69,1.94,54.82,3.68
75.00,1.00,272.56,-2.50,-64.12,-0.44,0.62,0.00,54.82,3.68
75.00,2.00,238.94,-13.00,19.88,0.62,-4.38,3.38,54.82,3.68
75.00,0.00,277.94,11.38,-118.12,12.00,0.44,1.38,55.37,3.70
75.00,1.00,272.56,-2.50,-64.12,-0.81,0.94,0.31,55.37,3.70
75.00,2.00,238.88,-12.94,19.88,0.75,-3.81,3.75,55.37,3.70
75.00,0.00,277.81,11.44,-118.44,14.12,-0.75,4.00,56.06,3.72
75.00,1.00,272.50,-2.50,-64.12,-0.75,0.94,0.50,56.06,3.72
75.00,2.00,238.81,-12.94,19.88,0.12,-3.00,3.75,56.06,3.72
75.00,0.00,277.56,11.50,-118.69,12.44,1.19,4.12,56.66,3.74
75.00,1.00,272.50,-2.50,-64.12,-0.44,1.12,0.62,56.66,3.74
75.00,2.00,238.69,-12.88,19.81,0.06,-3.62,3.62,56.66,3.74
75.00,0.00,277.38,11.56,-118.88,9.00,3.75,1.19,57.08,3.76
75.00,1.00,272.50,-2.50,-64.12,-0.50,1.19,0.12,57.08,3.76
75.00,2.00,238.56,-12.81,19.81,0.56,-4.12,4.19,57.08,3.76
75.00,0.00,277.19,11.56,-119.00,8.00,3.69,-0.62,57.39,3.78
75.00,1.00,272.50,-2.50,-64.06,-0.88,0.69,0.06,57.39,3.78
75.00,2.00,238.50,-12.75,19.75,1.50,-4.06,3.88,57.39,3.78
75.00,0.00,277.06,11.62,-119.19,10.44,1.75,1.00,57.86,3.80
75.00,1.00,272.50,-2.56,-64.06,-1.00,0.81,0.56,57.86,3.80
75.00,2.00,238.44,-12.75,19.75,1.00,-4.62,3.62,57.86,3.80
75.00,0.00,276.88,11.69,-119.38,11.69,1.56,3.50,58.40,3.82
75.00,1.00,272.50,-2.56,-64.06,-0.81,1.19,0.44,58.40,3.82
75.00,2.00,238.38,-12.69,19.69,0.50,-5.25,3.38,58.40,3.82
75.00,0.00,276.62,11.75,-119.56,9.69,3.81,2.88,58.82,3.84
75.00,1.00,272.44,-2.56,-64.06,-0.88,1.81,0.06,58.82,3.84
75.00,2.00,238.25,-12.62,19.69,1.12,-4.75,3.31,58.82,3.84
75.00,0.00,276.31,11.88,-119.75,9.00,5.69,1.88,59.19,3.86
75.00,1.00,272.44,-2.56,-64.00,-1.31,1.69,0.31,59.19,3.86
75.00,2.00,238.19,-12.56,19.62,1.50,-4.50,3.19,59.19,3.86
75.00,0.00,276.00,11.94,-119.88,8.94,6.25,1.81,59.59,3.88
75.00,1.00,272.44,-2.56,-64.00,-1.00,0.88,0.62,59.59,3.88
75.00,2.00,238.12,-12.50,19.56,0.75,-4.88,3.81,59.59,3.88
75.00,0.00,275.75,12.06,-120.06,10.50,4.88,2.69,60.11,3.90
75.00,1.00,272.44,-2.62,-64.00,-0.94,0.50,0.56,60.11,3.90
75.00,2.00,238.06,-12.44,19.56,-0.12,-4.81,3.38,60.11,3.90
75.00,0.00,275.44,12.12,-120.31,12.62,3.00,4.56,60.71,3.92
75.00,1.00,272.44,-2.62,-64.00,-0.81,1.12,0.44,60.71,3.92
75.00,2.00,237.94,-12.38,19.50,0.25,-3.94,2.88,60.71,3.92
75.00,0.00,275.19,12.25,-120.50,11.44,3.69,4.50,61.20,3.94
75.00,1.00,272.38,-2.62,-64.00,-1.19,1.75,1.00,61.20,3.94
75.00,2.00,237.94,-12.31,19.50,1.56,-3.69,2.00,61.20,3.94
75.00,0.00,274.88,12.31,-120.69,7.81,4.88,1.88,61.49,3.96
75.00,1.00,272.38,-2.62,-64.00,-0.25,0.56,1.06,61.49,3.96
75.00,2.00,237.88,-12.25,19.44,1.81,-5.19,2.31,61.49,3.96
75.00,0.00,274.69,12.38,-120.75,5.69,3.88,-0.50,61.67,3.98
75.00,1.00,272.31,-2.62,-64.00,0.06,0.12,1.38,61.67,3.98
75.00,2.00,237.81,-12.12,19.38,2.00,-5.69,2.75,61.67,3.98
75.00,0.00,274.56,12.38,-120.88,6.81,2.00,0.00,61.92,4.00
75.00,1.00,272.31,-2.56,-64.00,0.12,0.19,1.44,61.92,4.00
75.00,2.00,237.75,-12.06,19.38,1.75,-5.38,2.56,61.92,4.00
75.00,0.00,274.44,12.44,-121.06,10.00,-0.06,2.75,62.37,4.02
75.00,1.00,272.25,-2.56,-64.00,-0.62,-0.06,1.50,62.37,4.02
75.00,2.00,237.69,-12.00,19.31,0.69,-5.06,2.38,62.37,4.02
75.00,0.00,274.25,12.50,-121.25,9.75,2.56,4.44,62.85,4.04
75.00,1.00,272.25,-2.56,-64.00,-0.50,0.25,1.31,62.85,4.04
75.00,2.00,237.62,-11.94,19.31,-0.06,-4.88,2.31,62.85,4.04
75.00,0.00,273.94,12.62,-121.44,7.06,5.75,2.56,63.17,4.06
75.00,1.00,272.25,-2.56,-64.00,-0.19,-0.12,1.06,63.17,4.06
75.00,2.00,237.56,-11.88,19.31,0.56,-5.31,1.75,63.17,4.06
75.00,0.00,273.62,12.69,-121.50,7.88,5.56,2.69,63.54,4.08
75.00,1.00,272.19,-2.50,-64.00,-0.56,0.06,1.44,63.54,4.08
75.00,2.00,237.50,-11.75,19.31,0.31,-4.56,1.44,63.54,4.08
75.00,0.00,273.31,12.81,-121.62,8.50,5.69,3.38,63.95,4.10
75.00,1.00,272.19,-2.50,-64.00,0.25,-0.81,1.50,63.95,4.10
75.00,2.00,237.44,-11.75,19.31,0.06,-4.69,1.44,63.95,4.10
75.00,0.00,273.06,12.94,-121.75,7.06,5.81,1.94,64.31,4.12
75.00,1.00,272.19,-2.50,-64.00,0.56,-0.50,1.56,64.31,4.12
75.00,2.00,237.38,-11.62,19.25,-0.25,-5.75,1.88,64.31,4.12
75.00,0.00,272.88,12.94,-121.81,5.38,3.81,0.62,64.54,4.14
75.00,1.00,272.19,-2.44,-64.00,0.38,-0.75,1.69,64.54,4.14
75.00,2.00,237.38,-11.56,19.25,0.75,-4.88,1.19,64.54,4.14
75.00,0.00,272.81,12.94,-121.88,4.44,3.00,-0.19,64.72,4.16
75.00,1.00,272.12,-2.44,-63.94,0.44,-0.94,2.06,64.72,4.16
75.00,2.00,237.31,-11.50,19.25,0.62,-4.69,0.81,64.72,4.16
75.00,0.00,272.69,13.00,-122.00,6.00,2.12,1.50,64.99,4.18
75.00,1.00,272.12,-2.38,-64.00,1.19,-1.44,1.88,64.99,4.18
75.00,2.00,237.31,-11.44,19.25,0.56,-5.06,1.06,64.99,4.18
75.00,0.00,272.44,13.06,-122.12,7.19,2.44,4.25,65.27,4.20
75.00,1.00,272.12,-2.38,-64.00,1.06,-1.50,1.94,65.27,4.20
75.00,2.00,237.25,-11.31,19.25,1.38,-4.69,0.75,65.27,4.20
75.00,0.00,272.19,13.19,-122.19,6.62,4.31,4.38,65.53,4.22
75.00,1.00,272.12,-2.31,-64.00,1.19,-1.31,1.94,65.53,4.22
75.00,2.00,237.25,-11.25,19.19,1.31,-4.88,0.62,65.53,4.22
75.00,0.00,271.88,13.31,-122.31,5.94,5.06,3.31,65.74,4.24
75.00,1.00,272.06,-2.25,-64.06,1.50,-1.31,1.81,65.74,4.24
75.00,2.00,237.25,-11.19,19.19,1.69,-4.81,0.19,65.74,4.24
75.00,0.00,271.62,13.38,-122.44,6.06,4.88,2.56,65.95,4.26
75.00,1.00,272.06,-2.25,-64.06,1.38,-1.50,1.69,65.95,4.26
75.00,2.00,237.19,-11.12,19.12,1.69,-4.81,0.12,65.95,4.26
75.00,0.00,271.38,13.44,-122.50,6.81,2.88,3.00,66.24,4.28
75.00,1.00,272.06,-2.19,-64.12,1.56,-1.44,1.81,66.24,4.28
75.00,2.00,237.19,-11.00,19.12,1.00,-5.38,-0.19,66.24,4.28
75.00,0.00,271.19,13.56,-122.69,8.00,1.50,4.19,66.58,4.30
75.00,1.00,272.06,-2.19,-64.12,1.50,-1.56,1.94,66.58,4.30
75.00,2.00,237.19,-10.94,19.12,1.00,-5.31,-0.69,66.58,4.30
75.00,0.00,270.94,13.62,-122.81,8.31,2.00,5.25,66.92,4.32
75.00,1.00,272.06,-2.12,-64.19,1.75,-2.19,2.06,66.92,4.32
75.00,2.00,237.19,-10.81,19.06,1.31,-4.62,-1.00,66.92,4.32
75.00,0.00,270.75,13.75,-122.94,6.00,3.19,4.31,67.15,4.34
75.00,1.00,272.06,-2.06,-64.19,2.06,-2.81,2.12,67.15,4.34
75.00,2.00,237.19,-10.75,19.06,1.38,-4.88,-0.88,67.15,4.34
75.00,0.00,270.50,13.81,-123.06,6.31,1.88,4.31,67.35,4.36
75.00,1.00,272.00,-2.00,-64.25,1.94,-2.44,2.12,67.35,4.36
75.00,2.00,237.19,-10.62,19.00,2.12,-4.88,-1.19,67.35,4.36
75.00,0.00,270.38,13.88,-123.19,6.00,1.06,3.56,67.54,4.38
75.00,1.00,272.00,-2.00,-64.25,2.12,-2.38,2.25,67.54,4.38
75.00,2.00,237.19,-10.56,19.00,2.25,-4.81,-1.38,67.54,4.38
75.00,0.00,270.31,13.94,-123.25,7.06,-1.25,3.88,67.77,4.40
75.00,1.00,272.00,-1.88,-64.31,2.44,-2.19,2.62,67.77,4.40
75.00,2.00,237.25,-10.44,18.94,2.25,-5.06,-1.69,67.77,4.40
75.00,0.00,270.12,14.00,-123.44,5.75,-0.06,3.81,67.94,4.42
75.00,1.00,272.00,-1.88,-64.38,2.12,-2.19,2.56,67.94,4.42
75.00,2.00,237.25,-10.38,18.88,2.31,-4.81,-1.75,67.94,4.42
75.00,0.00,270.00,14.06,-123.56,4.94,0.25,3.19,68.08,4.44
75.00,1.00,271.94,-1.81,-64.44,1.94,-1.69,2.56,68.08,4.44
75.00,2.00,237.25,-10.25,18.88,2.19,-5.12,-1.75,68.08,4.44
75.00,0.00,269.94,14.06,-123.62,6.25,0.06,4.62,68.26,4.46
75.00,1.00,271.94,-1.75,-64.44,1.69,-1.31,2.62,68.26,4.46
75.00,2.00,237.31,-10.19,18.81,2.44,-4.69,-1.69,68.26,4.46
75.00,0.00,269.62,14.25,-123.81,6.81,1.56,6.06,68.45,4.48
75.00,1.00,271.88,-1.69,-64.50,2.12,-1.25,2.94,68.45,4.48
75.00,2.00,237.31,-10.06,18.75,3.06,-4.62,-1.06,68.45,4.48
75.00,0.00,269.31,14.38,-124.00,6.00,2.69,5.94,68.62,4.50
75.00,1.00,271.88,-1.62,-64.56,1.62,-1.88,2.88,68.62,4.50
75.00,2.00,237.31,-10.00,18.69,2.44,-4.81,-0.19,68.62,4.50
75.00,0.00,269.00,14.50,-124.06,5.69,4.12,5.31,68.88,4.52
75.00,1.00,271.81,-1.56,-64.62,1.06,-1.12,2.50,68.88,4.52
75.00,2.00,237.31,-9.88,18.62,0.44,-4.69,0.44,68.88,4.52
75.00,0.00,268.88,14.56,-124.12,6.38,4.88,4.38,69.17,4.54
75.00,1.00,271.81,-1.50,-64.62,1.12,0.00,2.62,69.17,4.54
75.00,2.00,237.25,-9.81,18.62,0.44,-4.31,-0.19,69.17,4.54
75.00,0.00,268.56,14.69,-124.25,7.12,4.06,4.44,69.43,4.56
75.00,1.00,271.75,-1.44,-64.62,1.38,-0.50,2.81,69.43,4.56
75.00,2.00,237.25,-9.75,18.62,1.75,-4.81,-0.12,69.43,4.56
75.00,0.00,268.25,14.81,-124.44,6.88,3.31,4.50,69.69,4.58
75.00,1.00,271.69,-1.44,-64.69,1.75,-0.44,3.19,69.69,4.58
75.00,2.00,237.25,-9.62,18.56,1.56,-5.56,0.44,69.69,4.58
75.00,0.00,267.94,14.94,-124.56,7.44,4.25,4.62,69.97,4.60
75.00,1.00,271.62,-1.38,-64.75,1.56,-0.69,3.12,69.97,4.60
75.00,2.00,237.25,-9.50,18.50,1.62,-5.75,0.69,69.97,4.60
75.00,0.00,267.62,15.06,-124.69,8.75,4.06,4.88,70.33,4.62
75.00,1.00,271.56,-1.31,-64.75,1.81,-0.81,2.88,70.33,4.62
75.00,2.00,237.19,-9.44,18.50,1.38,-5.06,0.94,70.33,4.62
75.00,0.00,267.31,15.19,-124.88,8.62,4.31,4.50,70.66,4.64
75.00,1.00,271.56,-1.25,-64.81,1.12,-0.88,2.56,70.66,4.64
75.00,2.00,237.19,-9.31,18.44,1.94,-4.88,0.69,70.66,4.64
75.00,0.00,266.94,15.31,-125.00,8.06,4.38,3.81,70.98,4.66
75.00,1.00,271.50,-1.19,-64.88,0.50,-0.50,1.88,70.98,4.66
75.00,2.00,237.12,-9.25,18.38,1.44,-4.62,1.06,70.98,4.66
75.00,0.00,266.69,15.38,-125.12,5.50,3.38,-0.19,71.21,4.68
75.00,1.00,271.44,-1.19,-64.88,0.19,-0.25,1.62,71.21,4.68
75.00,2.00,237.12,-9.19,18.38,0.81,-5.06,1.12,71.21,4.68
75.00,0.00,266.56,15.38,-125.25,6.06,1.94,-0.38,71.48,4.70
75.00,1.00,271.44,-1.12,-64.88,-0.19,-0.12,1.81,71.48,4.70
75.00,2.00,237.06,-9.06,18.38,0.69,-4.69,1.44,71.48,4.70
75.00,0.00,266.50,15.38,-125.38,9.81,-0.38,3.88,71.92,4.72
75.00,1.00,271.38,-1.06,-64.88,-0.31,-0.50,1.75,71.92,4.72
75.00,2.00,237.00,-9.00,18.31,0.81,-4.25,1.75,71.92,4.72
75.00,0.00,266.25,15.44,-125.62,9.81,2.00,5.25,72.38,4.74
75.00,1.00,271.38,-1.06,-64.88,-0.06,0.19,1.75,72.38,4.74
75.00,2.00,236.94,-8.94,18.31,0.38,-3.75,1.94,72.38,4.74
75.00,0.00,265.94,15.56,-125.81,10.00,3.56,5.00,72.86,4.76
75.00,1.00,271.31,-1.00,-64.88,-0.19,0.62,1.31,72.86,4.76
75.00,2.00,236.88,-8.94,18.31,0.25,-2.94,2.81,72.86,4.76
75.00,0.00,265.56,15.69,-126.00,7.94,7.06,2.88,73.23,4.78
75.00,1.00,271.31,-1.00,-64.88,0.12,0.56,0.81,73.23,4.78
75.00,2.00,236.81,-8.88,18.25,0.38,-3.56,3.50,73.23,4.78
75.00,0.00,265.19,15.81,-126.06,6.69,7.19,1.00,73.51,4.80
75.00,1.00,271.25,-1.00,-64.88,0.00,0.56,0.88,73.51,4.80
75.00,2.00,236.75,-8.81,18.25,0.94,-4.69,3.50,73.51,4.80
75.00,0.00,265.00,15.88,-126.19,7.25,1.31,-0.75,73.85,4.82
75.00,1.00,271.25,-1.00,-64.94,-0.19,0.81,1.06,73.85,4.82
75.00,2.00,236.69,-8.75,18.25,0.31,-4.69,3.00,73.85,4.82
75.00,0.00,264.81,15.88,-126.31,10.62,-0.06,3.19,74.37,4.84
75.00,1.00,271.19,-1.00,-64.94,-0.25,0.62,0.75,74.37,4.84
75.00,2.00,236.62,-8.69,18.25,-0.12,-4.19,2.62,74.37,4.84
75.00,0.00,264.62,15.94,-126.56,10.88,1.06,4.88,74.93,4.86
75.00,1.00,271.19,-0.94,-64.94,-0.38,0.69,0.88,74.93,4.86
75.00,2.00,236.56,-8.62,18.19,-0.56,-4.12,2.38,74.93,4.86
75.00,0.00,264.25,16.06,-126.75,10.81,3.69,6.00,75.45,4.88
75.00,1.00,271.19,-0.94,-64.94,-0.81,0.62,0.62,75.45,4.88
75.00,2.00,236.50,-8.56,18.19,0.19,-4.56,2.81,75.45,4.88
75.00,0.00,263.81,16.25,-126.94,10.19,6.25,5.75,75.94,4.90
75.00,1.00,271.19,-1.00,-64.94,-0.81,0.81,0.38,75.94,4.90
75.00,2.00,236.38,-8.50,18.19,0.19,-4.25,2.69,75.94,4.90
75.00,0.00,263.38,16.38,-127.06,7.25,8.19,2.94,76.32,4.92
75.00,1.00,271.19,-0.94,-64.88,-1.62,0.19,0.31,76.32,4.92
75.00,2.00,236.31,-8.44,18.19,-0.56,-5.56,2.56,76.32,4.92
75.00,0.00,263.06,16.44,-127.12,4.50,4.69,-1.88,76.57,4.94
75.00,1.00,271.19,-1.00,-64.88,-1.50,0.00,0.56,76.57,4.94
75.00,2.00,236.25,-8.31,18.19,-0.69,-6.50,2.44,76.57,4.94
75.00,0.00,263.06,16.44,-127.25,6.44,-1.12,-1.25,76.91,4.96
75.00,1.00,271.12,-0.94,-64.81,-1.44,-0.25,0.75,76.91,4.96
75.00,2.00,236.19,-8.25,18.19,-0.50,-5.94,1.38,76.91,4.96
75.00,0.00,262.94,16.44,-127.44,9.94,-0.94,4.12,77.46,4.98
75.00,1.00,271.12,-0.94,-64.81,-1.19,-1.12,0.81,77.46,4.98
75.00,2.00,236.19,-8.12,18.25,-1.25,-5.44,0.38,77.46,4.98
75.00,0.00,262.56,16.56,-127.62,8.69,4.56,5.44,77.89,5.00
75.00,1.00,271.19,-0.94,-64.81,-0.62,-1.62,0.38,77.89,5.00
75.00,2.00,236.19,-8.06,18.25,-0.19,-5.19,0.31,77.89,5.00
75.00,0.00,262.19,16.69,-127.75,6.25,6.88,2.88,78.18,5.02
75.00,1.00,271.19,-0.94,-64.81,-0.19,-2.25,-0.12,78.18,5.02
75.00,2.00,236.12,-7.94,18.25,0.44,-4.44,0.50,78.18,5.02
75.00,0.00,261.81,16.81,-127.81,7.31,6.31,2.12,78.57,5.04
75.00,1.00,271.25,-0.94,-64.75,0.25,-1.88,0.06,78.57,5.04
75.00,2.00,236.12,-7.88,18.31,-0.75,-4.44,0.00,78.57,5.04
75.00,0.00,261.44,16.94,-127.94,8.12,7.25,3.88,78.99,5.06
75.00,1.00,271.25,-0.94,-64.75,0.62,-2.31,0.31,78.99,5.06
75.00,2.00,236.12,-7.81,18.31,-0.44,-4.88,-0.81,78.99,5.06
75.00,0.00,261.19,17.00,-127.94,5.94,5.50,2.69,79.26,5.08
75.00,1.00,271.31,-0.94,-64.81,0.50,-2.19,0.31,79.26,5.08
75.00,2.00,236.12,-7.75,18.31,0.38,-4.19,-2.56,79.26,5.08
75.00,0.00,261.06,17.00,-127.94,3.56,2.00,0.50,79.40,5.10
75.00,1.00,271.31,-0.88,-64.81,0.62,-2.56,0.56,79.40,5.10
75.00,2.00,236.19,-7.62,18.31,0.75,-3.31,-3.00,79.40,5.10
75.00,0.00,261.00,17.06,-128.06,5.19,-0.44,1.06,79.58,5.12
75.00,1.00,271.38,-0.88,-64.81,0.94,-3.25,0.62,79.58,5.12
75.00,2.00,236.25,-7.56,18.31,1.44,-3.75,-3.25,79.58,5.12
75.00,0.00,260.81,17.12,-128.19,6.75,1.88,4.88,79.90,5.14
75.00,1.00,271.44,-0.88,-64.81,1.19,-3.38,0.62,79.90,5.14
75.00,2.00,236.31,-7.50,18.31,0.25,-3.00,-2.44,79.90,5.14
75.00,0.00,260.50,17.25,-128.31,5.69,3.31,6.62,80.15,5.16
75.00,1.00,271.44,-0.81,-64.81,1.06,-3.75,0.06,80.15,5.16
75.00,2.00,236.31,-7.44,18.31,0.62,-2.69,-2.19,80.15,5.16
75.00,0.00,260.19,17.38,-128.38,3.31,3.25,4.94,80.23,5.18
75.00,1.00,271.50,-0.81,-64.81,0.56,-2.31,-0.06,80.23,5.18
75.00,2.00,236.38,-7.38,18.25,1.62,-4.06,-2.38,80.23,5.18
75.00,0.00,260.06,17.44,-128.44,2.00,1.06,2.94,80.22,5.20
75.00,1.00,271.56,-0.81,-64.88,1.50,-3.31,0.62,80.22,5.20
75.00,2.00,236.38,-7.25,18.25,2.31,-4.69,-3.12,80.22,5.20
75.00,0.00,260.00,17.44,-128.50,2.56,-1.25,3.50,80.25,5.22
75.00,1.00,271.56,-0.75,-64.88,2.31,-3.19,1.19,80.25,5.22
75.00,2.00,236.44,-7.19,18.19,2.00,-4.38,-3.69,80.25,5.22
75.00,0.00,259.88,17.50,-128.56,5.06,-0.94,5.94,80.40,5.24
75.00,1.00,271.56,-0.69,-64.94,2.94,-3.31,1.44,80.40,5.24
75.00,2.00,236.50,-7.06,18.19,1.94,-3.94,-3.56,80.40,5.24
75.00,0.00,259.69,17.62,-128.69,2.69,2.44,4.88,80.42,5.26
75.00,1.00,271.56,-0.62,-65.00,2.94,-3.88,1.50,80.42,5.26
75.00,2.00,236.56,-7.00,18.12,2.25,-4.25,-3.56,80.42,5.26
75.00,0.00,259.44,17.75,-128.75,2.50,1.38,4.25,80.41,5.28
75.00,1.00,271.62,-0.62,-65.06,2.56,-3.81,1.44,80.41,5.28
75.00,2.00,236.62,-6.88,18.12,2.62,-4.44,-3.88,80.41,5.28
75.00,0.00,259.25,17.81,-128.81,4.19,1.12,6.00,80.47,5.30
75.00,1.00,271.62,-0.56,-65.12,2.50,-3.62,0.94,80.47,5.30
75.00,2.00,236.69,-6.75,18.06,3.12,-4.50,-3.88,80.47,5.30
75.00,0.00,259.00,17.94,-128.94,4.44,1.25,7.25,80.57,5.32
75.00,1.00,271.69,-0.50,-65.19,2.56,-4.00,1.62,80.57,5.32
75.00,2.00,236.75,-6.69,18.00,2.31,-4.88,-3.31,80.57,5.32
75.00,0.00,258.81,18.06,-129.00,3.38,0.75,5.88,80.59,5.34
75.00,1.00,271.69,-0.44,-65.19,2.81,-4.75,1.94,80.59,5.34
75.00,2.00,236.81,-6.56,17.94,2.88,-4.44,-3.94,80.59,5.34
75.00,0.00,258.69,18.12,-129.06,2.81,0.81,4.56,80.52,5.36
75.00,1.00,271.69,-0.38,-65.25,3.12,-5.00,2.06,80.52,5.36
75.00,2.00,236.94,-6.44,17.88,4.25,-4.50,-4.31,80.52,5.36
75.00,0.00,258.50,18.19,-129.19,3.50,0.81,4.25,80.52,5.38
75.00,1.00,271.75,-0.25,-65.31,3.00,-4.75,1.81,80.52,5.38
75.00,2.00,237.00,-6.38,17.81,3.62,-4.50,-3.56,80.52,5.38
75.00,0.00,258.31,18.25,-129.31,4.81,0.62,4.69,80.62,5.40
75.00,1.00,271.75,-0.19,-65.38,2.75,-4.44,1.69,80.62,5.40
75.00,2.00,237.00,-6.25,17.75,2.75,-4.62,-2.88,80.62,5.40
75.00,0.00,258.12,18.38,-129.44,5.69,1.25,4.38,80.75,5.42
75.00,1.00,271.75,-0.12,-65.44,2.88,-4.69,1.75,80.75,5.42
75.00,2.00,237.06,-6.12,17.69,3.06,-4.00,-2.31,80.75,5.42
75.00,0.00,257.88,18.44,-129.56,5.00,1.50,2.69,80.81,5.44
75.00,1.00,271.81,-0.06,-65.50,3.00,-4.38,1.50,80.81,5.44
75.00,2.00,237.06,-6.06,17.62,3.62,-4.06,-1.75,80.81,5.44
75.00,0.00,257.75,18.44,-129.69,6.75,0.38,3.06,80.97,5.46
75.00,1.00,271.81,0.00,-65.56,2.88,-3.38,1.12,80.97,5.46
75.00,2.00,237.12,-6.00,17.56,3.50,-3.75,-1.06,80.97,5.46
75.00,0.00,257.50,18.56,-129.81,7.12,2.06,4.44,81.20,5.48
75.00,1.00,271.81,0.00,-65.62,2.62,-2.81,1.62,81.20,5.48
75.00,2.00,237.12,-5.88,17.50,2.44,-4.69,-0.44,81.20,5.48
75.00,0.00,257.19,18.62,-130.00,6.69,2.69,3.38,81.42,5.50
75.00,1.00,271.81,0.00,-65.69,2.50,-2.50,1.88,81.42,5.50
75.00,2.00,237.06,-5.81,17.44,2.19,-4.69,-0.12,81.42,5.50
75.00,0.00,257.00,18.69,-130.12,6.56,1.44,2.44,81.60,5.52
75.00,1.00,271.81,0.06,-65.75,2.88,-2.19,1.62,81.60,5.52
75.00,2.00,237.06,-5.75,17.38,3.00,-4.06,-0.06,81.60,5.52
75.00,0.00,256.75,18.75,-130.31,7.06,1.19,2.62,81.79,5.54
75.00,1.00,271.81,0.12,-65.81,2.38,-1.69,1.56,81.79,5.54
75.00,2.00,237.06,-5.69,17.31,3.06,-3.88,0.56,81.79,5.54
75.00,0.00,256.50,18.81,-130.44,6.81,2.06,2.75,82.01,5.56
75.00,1.00,271.81,0.12,-65.88,1.56,-0.88,1.19,82.01,5.56
75.00,2.00,237.00,-5.56,17.19,2.31,-3.94,1.69,82.01,5.56
75.00,0.00,256.25,18.88,-130.56,6.50,2.50,2.56,82.26,5.58
75.00,1.00,271.75,0.19,-65.94,1.38,-0.88,1.44,82.26,5.58
75.00,2.00,237.00,-5.50,17.19,1.44,-4.12,2.25,82.26,5.58
75.00,0.00,256.00,18.94,-130.69,6.06,2.75,1.69,82.49,5.60
75.00,1.00,271.75,0.19,-66.00,1.69,-0.38,1.62,82.49,5.60
75.00,2.00,236.94,-5.44,17.12,1.31,-4.06,2.25,82.49,5.60
75.00,0.00,255.75,19.00,-130.81,6.50,2.88,1.38,82.74,5.62
75.00,1.00,271.75,0.25,-66.00,0.94,0.00,1.56,82.74,5.62
75.00,2.00,236.88,-5.38,17.06,1.38,-3.69,1.75,82.74,5.62
75.00,0.00,255.50,19.06,-130.94,6.62,2.88,1.56,83.01,5.64
75.00,1.00,271.69,0.25,-66.06,0.69,0.44,1.44,83.01,5.64
75.00,2.00,236.81,-5.31,17.06,1.19,-3.31,2.12,83.01,5.64
75.00,0.00,255.25,19.12,-131.06,5.69,3.31,1.50,83.20,5.66
75.00,1.00,271.69,0.31,-66.06,0.81,0.31,1.31,83.20,5.66
75.00,2.00,236.75,-5.31,17.00,1.75,-3.38,2.62,83.20,5.66
75.00,0.00,255.00,19.19,-131.12,4.94,3.31,1.31,83.40,5.68
75.00,1.00,271.62,0.31,-66.06,0.62,0.75,1.31,83.40,5.68
75.00,2.00,236.69,-5.25,16.94,0.94,-2.94,3.00,83.40,5.68
75.00,0.00,254.75,19.31,-131.25,5.56,3.75,2.06,83.64,5.70
75.00,1.00,271.56,0.31,-66.06,0.38,1.12,1.62,83.64,5.70
75.00,2.00,236.62,-5.19,16.94,0.56,-2.19,3.00,83.64,5.70
75.00,0.00,254.44,19.38,-131.31,3.25,5.75,1.19,83.78,5.72
75.00,1.00,271.56,0.38,-66.12,-0.06,1.94,1.31,83.78,5.72
75.00,2.00,236.56,-5.19,16.94,0.44,-2.25,3.25,83.78,5.72
75.00,0.00,254.31,19.44,-131.25,0.38,3.62,-2.31,83.78,5.74
75.00,1.00,271.50,0.38,-66.12,-0.31,2.38,1.62,83.78,5.74
75.00,2.00,236.50,-5.12,16.94,0.25,-2.88,4.06,83.78,5.74
75.00,0.00,254.31,19.38,-131.31,2.38,-0.12,-2.06,83.89,5.76
75.00,1.00,271.44,0.38,-66.12,-1.38,1.88,1.88,83.89,5.76
75.00,2.00,236.38,-5.12,16.88,0.19,-1.88,3.62,83.89,5.76
75.00,0.00,254.25,19.38,-131.38,5.06,-0.69,1.19,84.14,5.78
75.00,1.00,271.38,0.38,-66.12,-1.00,2.44,1.44,84.14,5.78
75.00,2.00,236.31,-5.12,16.88,-0.12,-1.38,3.75,84.14,5.78
75.00,0.00,254.12,19.44,-131.50,4.38,0.12,2.62,84.40,5.80
75.00,1.00,271.31,0.38,-66.06,-1.50,2.94,1.25,84.40,5.80
75.00,2.00,236.25,-5.12,16.88,-0.75,-1.31,4.25,84.40,5.80
75.00,0.00,254.06,19.44,-131.56,2.38,-1.00,0.94,84.55,5.82
75.00,1.00,271.25,0.38,-66.06,-1.94,3.38,1.00,84.55,5.82
75.00,2.00,236.12,-5.12,16.88,-0.88,-2.69,4.62,84.55,5.82
75.00,0.00,254.06,19.44,-131.56,1.31,-1.00,-0.75,84.58,5.84
75.00,1.00,271.19,0.38,-66.00,-1.69,1.94,0.25,84.58,5.84
75.00,2.00,236.06,-5.06,16.88,0.88,-3.06,4.38,84.58,5.84
75.00,0.00,254.06,19.44,-131.62,2.06,-0.38,-0.56,84.63,5.86
75.00,1.00,271.19,0.38,-66.00,-1.12,2.62,0.31,84.63,5.86
75.00,2.00,235.94,-5.00,16.81,0.94,-4.00,4.44,84.63,5.86
75.00,0.00,253.88,19.44,-131.69,4.06,1.06,0.88,84.84,5.88
75.00,1.00,271.12,0.31,-65.94,-0.75,2.19,0.38,84.84,5.88
75.00,2.00,235.88,-5.00,16.81,-0.12,-3.88,4.50,84.84,5.88
75.00,0.00,253.62,19.56,-131.75,6.44,3.12,2.19,85.21,5.90
75.00,1.00,271.12,0.31,-65.94,-0.44,1.88,0.62,85.21,5.90
75.00,2.00,235.75,-4.94,16.88,-1.19,-4.12,4.00,85.21,5.90
75.00,0.00,253.25,19.69,-131.88,7.12,5.44,2.56,85.58,5.92
75.00,1.00,271.12,0.31,-65.94,-0.69,0.94,-0.31,85.58,5.92
75.00,2.00,235.69,-4.88,16.88,-0.44,-4.38,2.50,85.58,5.92
75.00,0.00,252.94,19.75,-131.94,7.44,5.44,1.88,85.94,5.94
75.00,1.00,271.12,0.31,-65.94,-0.69,0.00,-0.56,85.94,5.94
75.00,2.00,235.62,-4.81,16.94,0.06,-4.19,1.38,85.94,5.94
75.00,0.00,252.56,19.81,-132.06,7.94,3.75,2.06,86.31,5.96
75.00,1.00,271.12,0.25,-65.88,-0.56,-1.31,-0.50,86.31,5.96
75.00,2.00,235.62,-4.75,16.94,0.44,-4.38,1.19,86.31,5.96
75.00,0.00,252.31,19.94,-132.19,7.38,3.88,2.38,86.59,5.98
75.00,1.00,271.19,0.25,-65.88,-0.12,-1.50,-0.69,86.59,5.98
75.00,2.00,235.56,-4.69,16.94,1.62,-4.62,0.50,86.59,5.98
75.00,0.00,252.06,20.00,-132.31,7.12,2.81,3.12,86.83,6.00
75.00,1.00,271.25,0.25,-65.88,0.31,-2.44,-0.56,86.83,6.00
75.00,2.00,235.56,-4.62,16.94,2.19,-4.12,-0.25,86.83,6.00
75.00,0.00,251.88,20.06,-132.38,5.94,2.88,3.31,87.03,6.02
75.00,1.00,271.25,0.25,-65.88,0.06,-2.44,-0.25,87.03,6.02
75.00,2.00,235.56,-4.56,16.94,1.81,-4.31,-0.75,87.03,6.02
75.00,0.00,251.69,20.06,-132.38,3.31,2.69,0.69,87.09,6.04
75.00,1.00,271.31,0.31,-65.88,0.31,-2.50,-0.12,87.09,6.04
75.00,2.00,235.56,-4.44,16.88,2.06,-5.06,-1.06,87.09,6.04
75.00,0.00,251.69,20.06,-132.44,3.94,-1.31,-0.31,87.17,6.06
75.00,1.00,271.31,0.31,-65.88,-0.12,-2.56,-0.44,87.17,6.06
75.00,2.00,235.62,-4.38,16.81,2.38,-4.38,-1.44,87.17,6.06
75.00,0.00,251.62,20.06,-132.56,6.56,-1.12,2.81,87.40,6.08
75.00,1.00,271.38,0.31,-65.88,0.19,-2.19,0.06,87.40,6.08
75.00,2.00,235.62,-4.31,16.81,1.75,-3.31,-2.19,87.40,6.08
75.00,0.00,251.38,20.19,-132.69,6.12,1.81,5.25,87.63,6.10
75.00,1.00,271.38,0.31,-65.88,0.44,-2.56,0.38,87.63,6.10
75.00,2.00,235.69,-4.25,16.75,1.44,-3.00,-1.88,87.63,6.10
75.00,0.00,251.06,20.25,-132.81,4.44,2.88,4.69,87.74,6.12
75.00,1.00,271.44,0.38,-65.88,0.69,-1.75,-0.06,87.74,6.12
75.00,2.00,235.69,-4.19,16.75,2.25,-2.50,-1.31,87.74,6.12
75.00,0.00,250.88,20.38,-132.88,2.62,2.31,2.69,87.71,6.14
75.00,1.00,271.44,0.38,-65.88,0.69,-0.50,-0.50,87.71,6.14
75.00,2.00,235.69,-4.12,16.69,3.12,-1.69,-1.50,87.71,6.14
75.00,0.00,250.81,20.38,-132.88,2.44,0.75,2.00,87.75,6.16
75.00,1.00,271.44,0.38,-65.88,0.50,-0.25,-0.25,87.75,6.16
75.00,2.00,235.75,-4.06,16.62,1.62,-2.69,-1.00,87.75,6.16
75.00,0.00,250.62,20.44,-133.00,3.00,-0.06,2.62,87.85,6.18
75.00,1.00,271.44,0.38,-65.88,0.56,-0.12,0.56,87.85,6.18
75.00,2.00,235.75,-4.00,16.62,0.94,-2.88,-0.88,87.85,6.18
75.00,0.00,250.50,20.44,-133.06,3.44,0.06,3.62,88.01,6.20
75.00,1.00,271.44,0.38,-65.94,0.56,-0.38,0.69,88.01,6.20
75.00,2.00,235.75,-4.00,16.56,0.19,-2.25,-0.69,88.01,6.20
75.00,0.00,250.44,20.50,-133.12,3.00,0.88,3.75,88.13,6.22
75.00,1.00,271.44,0.38,-65.94,0.88,-0.75,0.62,88.13,6.22
75.00,2.00,235.75,-3.94,16.56,0.69,-2.56,-0.44,88.13,6.22
75.00,0.00,250.25,20.56,-133.19,2.25,0.56,2.88,88.16,6.24
75.00,1.00,271.44,0.38,-65.94,1.12,-1.06,0.50,88.16,6.24
75.00,2.00,235.75,-3.88,16.56,1.50,-2.69,-0.69,88.16,6.24
75.00,0.00,250.19,20.56,-133.19,1.75,0.12,1.62,88.16,6.26
75.00,1.00,271.44,0.38,-66.00,1.12,-1.31,0.50,88.16,6.26
75.00,2.00,235.75,-3.81,16.50,1.75,-2.69,-1.06,88.16,6.26
75.00,0.00,250.12,20.62,-133.25,2.44,-0.25,1.25,88.22,6.28
75.00,1.00,271.50,0.38,-66.00,1.12,-1.69,0.50,88.22,6.28
75.00,2.00,235.75,-3.75,16.50,1.25,-2.88,-0.69,88.22,6.28
75.00,0.00,250.06,20.62,-133.31,3.12,0.00,1.94,88.35,6.30
75.00,1.00,271.50,0.38,-66.00,0.88,-2.62,0.62,88.35,6.30
75.00,2.00,235.75,-3.75,16.50,0.56,-3.06,-1.00,88.35,6.30
75.00,0.00,249.94,20.62,-133.38,3.25,1.88,2.25,88.47,6.32
75.00,1.00,271.50,0.44,-66.06,0.69,-3.38,0.88,88.47,6.32
75.00,2.00,235.81,-3.69,16.50,0.75,-3.38,-1.56,88.47,6.32
75.00,0.00,249.81,20.69,-133.44,2.38,3.00,1.00,88.49,6.34
75.00,1.00,271.56,0.44,-66.06,0.88,-3.62,0.62,88.49,6.34
75.00,2.00,235.81,-3.62,16.50,1.94,-3.75,-1.56,88.49,6.34
75.00,0.00,249.62,20.75,-133.44,1.62,2.62,-0.06,88.47,6.36
75.00,1.00,271.62,0.50,-66.06,0.75,-3.81,0.50,88.47,6.36
75.00,2.00,235.81,-3.50,16.44,2.12,-4.06,-1.50,88.47,6.36
75.00,0.00,249.50,20.81,-133.50,2.88,3.00,1.56,88.52,6.38
75.00,1.00,271.62,0.50,-66.06,0.56,-3.62,0.25,88.52,6.38
75.00,2.00,235.88,-3.44,16.44,1.69,-3.69,-1.31,88.52,6.38
75.00,0.00,249.25,20.88,-133.50,2.06,6.00,2.44,88.55,6.40
75.00,1.00,271.69,0.56,-66.06,0.75,-4.06,0.81,88.55,6.40
75.00,2.00,235.88,-3.38,16.38,1.56,-4.75,-1.06,88.55,6.40
75.00,0.00,248.94,21.00,-133.56,1.31,6.25,2.00,88.49,6.42
75.00,1.00,271.75,0.62,-66.12,0.88,-4.44,1.44,88.49,6.42
75.00,2.00,235.88,-3.25,16.31,2.56,-4.56,-1.31,88.49,6.42
75.00,0.00,248.75,21.06,-133.50,1.00,3.69,1.44,88.42,6.44
75.00,1.00,271.75,0.69,-66.12,1.00,-3.56,1.00,88.42,6.44
75.00,2.00,235.88,-3.19,16.25,2.31,-3.56,-1.50,88.42,6.44
75.00,0.00,248.56,21.12,-133.56,1.44,3.25,1.56,88.44,6.46
75.00,1.00,271.75,0.69,-66.12,0.06,-2.12,0.94,88.44,6.46
75.00,2.00,235.88,-3.12,16.25,1.06,-3.38,-1.06,88.44,6.46
75.00,0.00,248.38,21.19,-133.56,3.88,3.06,1.75,88.62,6.48
75.00,1.00,271.75,0.75,-66.12,1.00,-1.06,1.69,88.62,6.48
75.00,2.00,235.88,-3.06,16.25,0.19,-4.31,-0.62,88.62,6.48
75.00,0.00,248.12,21.25,-133.69,4.38,3.19,1.75,88.77,6.50
75.00,1.00,271.75,0.75,-66.19,1.88,-2.12,1.94,88.77,6.50
75.00,2.00,235.94,-2.94,16.25,1.38,-3.31,-1.19,88.77,6.50
75.00,0.00,247.88,21.38,-133.75,4.38,3.75,1.81,88.86,6.52
75.00,1.00,271.75,0.81,-66.25,2.38,-2.25,1.81,88.86,6.52
75.00,2.00,235.94,-2.88,16.19,2.50,-3.00,-1.12,88.86,6.52
75.00,0.00,247.56,21.44,-133.88,3.75,3.88,1.75,88.89,6.54
75.00,1.00,271.75,0.88,-66.31,2.81,-2.56,1.50,88.89,6.54
75.00,2.00,235.94,-2.81,16.12,3.06,-3.31,-0.19,88.89,6.54
75.00,0.00,247.31,21.50,-133.94,3.81,3.31,2.00,88.92,6.56
75.00,1.00,271.75,0.94,-66.31,2.19,-0.88,1.19,88.92,6.56
75.00,2.00,235.94,-2.81,16.06,3.25,-2.75,0.94,88.92,6.56
75.00,0.00,247.06,21.56,-134.00,3.56,2.12,2.81,88.97,6.58
75.00,1.00,271.69,0.94,-66.38,1.44,-0.56,1.38,88.97,6.58
75.00,2.00,235.88,-2.75,16.00,2.56,-3.00,1.19,88.97,6.58
75.00,0.00,246.88,21.62,-134.12,3.12,1.38,2.50,89.07,6.60
75.00,1.00,271.69,1.00,-66.44,0.94,-0.38,1.88,89.07,6.60
75.00,2.00,235.88,-2.69,15.94,1.12,-3.25,1.25,89.07,6.60
75.00,0.00,246.69,21.69,-134.19,2.88,1.00,2.06,89.17,6.62
75.00,1.00,271.62,1.00,-66.44,1.12,-0.06,2.00,89.17,6.62
75.00,2.00,235.81,-2.62,15.94,0.75,-2.56,1.12,89.17,6.62
75.00,0.00,246.62,21.75,-134.25,2.75,0.38,1.50,89.25,6.64
75.00,1.00,271.56,1.06,-66.50,0.94,0.50,1.62,89.25,6.64
75.00,2.00,235.81,-2.56,15.88,1.19,-2.06,0.88,89.25,6.64
75.00,0.00,246.50,21.75,-134.31,2.75,0.62,1.50,89.33,6.66
75.00,1.00,271.56,1.06,-66.50,0.56,0.81,1.75,89.33,6.66
75.00,2.00,235.75,-2.56,15.88,1.00,-1.50,1.50,89.33,6.66
75.00,0.00,246.38,21.81,-134.31,1.44,1.44,1.31,89.36,6.68
75.00,1.00,271.50,1.12,-66.56,1.00,0.81,1.75,89.36,6.68
75.00,2.00,235.75,-2.50,15.88,0.88,-1.94,2.12,89.36,6.68
75.00,0.00,246.31,21.81,-134.38,-0.31,1.81,0.69,89.30,6.70
75.00,1.00,271.44,1.12,-66.56,0.94,1.62,1.56,89.30,6.70
75.00,2.00,235.69,-2.50,15.81,1.00,-2.00,2.69,89.30,6.70
75.00,0.00,246.25,21.88,-134.31,-0.69,1.38,0.19,89.18,6.72
75.00,1.00,271.38,1.12,-66.56,0.25,1.81,1.19,89.18,6.72
75.00,2.00,235.62,-2.50,15.75,1.62,-0.94,2.31,89.18,6.72
75.00,0.00,246.19,21.88,-134.31,0.75,1.44,1.06,89.20,6.74
75.00,1.00,271.31,1.19,-66.62,-0.06,2.00,1.50,89.20,6.74
75.00,2.00,235.56,-2.44,15.75,0.50,-1.31,2.50,89.20,6.74
75.00,0.00,246.06,21.94,-134.38,0.94,2.44,0.31,89.28,6.76
75.00,1.00,271.25,1.19,-66.62,0.19,1.75,2.06,89.28,6.76
75.00,2.00,235.50,-2.44,15.75,-0.75,-1.50,2.94,89.28,6.76
75.00,0.00,246.00,21.94,-134.38,0.44,1.44,-0.75,89.36,6.78
75.00,1.00,271.19,1.19,-66.62,-0.50,1.94,1.44,89.36,6.78
75.00,2.00,235.44,-2.44,15.75,-1.19,-1.62,2.81,89.36,6.78
75.00,0.00,245.94,21.94,-134.38,1.12,1.06,-1.50,89.42,6.80
75.00,1.00,271.12,1.19,-66.62,-0.75,1.56,1.06,89.42,6.80
75.00,2.00,235.38,-2.44,15.75,-0.12,-1.56,2.88,89.42,6.80
75.00,0.00,245.94,21.94,-134.38,1.69,1.06,-1.12,89.51,6.82
75.00,1.00,271.12,1.19,-66.62,-0.19,1.06,0.94,89.51,6.82
75.00,2.00,235.31,-2.38,15.75,-0.06,-1.88,3.44,89.51,6.82
75.00,0.00,245.88,21.94,-134.38,2.31,1.00,-1.00,89.62,6.84
75.00,1.00,271.06,1.25,-66.62,-0.31,0.69,0.94,89.62,6.84
75.00,2.00,235.25,-2.38,15.75,0.06,-2.00,3.38,89.62,6.84
75.00,0.00,245.75,21.94,-134.44,2.69,2.00,-1.50,89.74,6.86
75.00,1.00,271.06,1.25,-66.62,-0.31,0.94,1.06,89.74,6.86
75.00,2.00,235.19,-2.38,15.75,0.06,-1.25,2.50,89.74,6.86
75.00,0.00,245.69,21.94,-134.44,2.75,1.31,-2.19,89.87,6.88
75.00,1.00,271.00,1.25,-66.62,-0.69,0.81,1.00,89.87,6.88
75.00,2.00,235.12,-2.38,15.75,0.19,-1.50,2.38,89.87,6.88
75.00,0.00,245.62,21.88,-134.50,2.88,0.62,-2.31,90.02,6.90
75.00,1.00,271.00,1.25,-66.56,-0.81,0.50,0.62,90.02,6.90
75.00,2.00,235.06,-2.31,15.75,-0.31,-2.12,2.75,90.02,6.90
75.00,0.00,245.56,21.94,-134.56,2.94,1.88,-1.69,90.17,6.92
75.00,1.00,271.00,1.25,-66.56,-0.38,0.31,0.25,90.17,6.92
75.00,2.00,235.00,-2.31,15.75,-0.12,-1.38,2.62,90.17,6.92
75.00,0.00,245.38,21.94,-134.56,3.06,3.19,-1.31,90.30,6.94
75.00,1.00,271.00,1.25,-66.56,-0.25,1.00,0.31,90.30,6.94
75.00,2.00,235.00,-2.31,15.75,0.56,-1.00,2.50,90.30,6.94
75.00,0.00,245.19,22.00,-134.56,2.25,2.94,-0.75,90.38,6.96
75.00,1.00,271.00,1.25,-66.56,-0.50,1.81,0.19,90.38,6.96
75.00,2.00,234.94,-2.31,15.75,0.50,-0.56,2.69,90.38,6.96
75.00,0.00,245.06,22.00,-134.62,1.62,2.44,-0.31,90.45,6.98
75.00,1.00,270.94,1.25,-66.56,-0.75,2.25,-0.25,90.45,6.98
75.00,2.00,234.88,-2.31,15.75,0.25,-0.19,2.50,90.45,6.98
75.00,0.00,244.94,22.06,-134.62,1.25,2.12,-0.06,90.52,7.00
75.00,1.00,270.94,1.19,-66.56,-1.00,2.56,-0.31,90.52,7.00
75.00,2.00,234.81,-2.31,15.75,-0.12,0.50,1.94,90.52,7.00
75.00,0.00,244.88,22.06,-134.62,0.94,0.69,0.06,90.57,7.02
75.00,1.00,270.88,1.19,-66.56,-0.56,2.56,-0.25,90.57,7.02
75.00,2.00,234.81,-2.38,15.75,-0.25,0.69,1.62,90.57,7.02
75.00,0.00,244.88,22.06,-134.62,0.69,-0.44,0.31,90.61,7.04
75.00,1.00,270.88,1.12,-66.56,-0.06,2.75,-0.75,90.61,7.04
75.00,2.00,234.75,-2.38,15.75,0.06,0.94,1.62,90.61,7.04
75.00,0.00,244.94,22.06,-134.62,-0.81,-0.56,0.00,90.55,7.06
75.00,1.00,270.88,1.12,-66.56,-0.69,2.62,-0.81,90.55,7.06
75.00,2.00,234.75,-2.38,15.75,0.38,0.81,1.88,90.55,7.06
75.00,0.00,245.00,22.06,-134.56,-2.06,-1.50,-0.38,90.47,7.08
75.00,1.00,270.81,1.12,-66.56,-0.81,1.94,-0.75,90.47,7.08
75.00,2.00,234.69,-2.44,15.75,-0.44,0.88,1.75,90.47,7.08
75.00,0.00,245.19,22.00,-134.56,-2.69,-2.81,-0.88,90.41,7.10
75.00,1.00,270.81,1.06,-66.50,-1.44,1.38,-1.31,90.41,7.10
75.00,2.00,234.69,-2.44,15.81,-1.50,1.81,1.00,90.41,7.10
75.00,0.00,245.44,21.94,-134.50,-1.94,-4.31,-1.00,90.38,7.12
75.00,1.00,270.81,1.00,-66.50,-1.94,1.44,-1.69,90.38,7.12
75.00,2.00,234.69,-2.50,15.81,-1.31,4.19,0.00,90.38,7.12
75.00,0.00,245.62,21.88,-134.44,-1.31,-3.75,-0.94,90.43,7.14
75.00,1.00,270.88,1.00,-66.44,-2.44,1.75,-2.00,90.43,7.14
75.00,2.00,234.69,-2.62,15.88,-2.25,4.38,-0.06,90.43,7.14
75.00,0.00,245.88,21.75,-134.44,-2.62,-3.56,-2.12,90.36,7.16
75.00,1.00,270.88,0.94,-66.44,-1.88,1.12,-1.88,90.36,7.16
75.00,2.00,234.69,-2.69,15.88,-1.38,2.75,-0.19,90.36,7.16
75.00,0.00,246.12,21.69,-134.38,-3.25,-2.94,-2.88,90.19,7.18
75.00,1.00,270.94,0.88,-66.44,0.06,0.44,-1.75,90.19,7.18
75.00,2.00,234.75,-2.69,15.88,0.38,2.88,-0.75,90.19,7.18
75.00,0.00,246.25,21.62,-134.31,-3.06,-1.25,-2.56,90.01,7.20
75.00,1.00,270.94,0.88,-66.44,0.38,0.44,-1.75,90.01,7.20
75.00,2.00,234.75,-2.75,15.88,0.50,3.19,-0.44,90.01,7.20
75.00,0.00,246.38,21.56,-134.25,-2.12,-1.06,-1.81,89.89,7.22
75.00,1.00,271.00,0.81,-66.44,0.06,0.50,-1.75,89.89,7.22
75.00,2.00,234.75,-2.81,15.88,0.31,3.00,0.50,89.89,7.22
75.00,0.00,246.50,21.56,-134.25,-0.94,-1.38,-1.94,89.83,7.24
75.00,1.00,271.00,0.81,-66.44,-0.25,1.00,-1.88,89.83,7.24
75.00,2.00,234.75,-2.88,15.88,0.44,3.19,1.19,89.83,7.24
75.00,0.00,246.69,21.50,-134.25,0.56,-3.31,-1.88,89.87,7.26
75.00,1.00,271.00,0.75,-66.44,-0.31,1.75,-1.38,89.87,7.26
75.00,2.00,234.69,-2.94,15.88,-0.31,3.06,1.38,89.87,7.26
75.00,0.00,246.88,21.38,-134.31,1.50,-6.31,-1.25,90.03,7.28
75.00,1.00,271.00,0.69,-66.38,-1.00,1.69,-1.00,90.03,7.28
75.00,2.00,234.69,-3.00,15.94,-1.81,2.94,2.00,90.03,7.28
75.00,0.00,247.12,21.25,-134.31,0.94,-5.12,-1.38,90.15,7.30
75.00,1.00,271.00,0.69,-66.38,-0.75,1.75,-0.75,90.15,7.30
75.00,2.00,234.69,-3.06,15.94,-1.56,2.06,1.94,90.15,7.30
75.00,0.00,247.25,21.19,-134.38,0.19,-2.88,-1.12,90.20,7.32
75.00,1.00,271.00,0.69,-66.38,-0.56,1.12,-0.75,90.20,7.32
75.00,2.00,234.62,-3.12,16.00,-0.69,1.88,1.94,90.20,7.32
75.00,0.00,247.31,21.19,-134.38,0.12,-1.69,-0.38,90.17,7.34
75.00,1.00,271.00,0.62,-66.38,-0.81,1.19,-1.38,90.17,7.34
75.00,2.00,234.56,-3.19,16.00,0.56,2.38,2.19,90.17,7.34
75.00,0.00,247.44,21.12,-134.31,-0.88,-1.06,-1.25,90.11,7.36
75.00,1.00,271.00,0.56,-66.38,-0.75,2.50,-1.12,90.11,7.36
75.00,2.00,234.56,-3.25,15.94,0.50,0.81,2.06,90.11,7.36
75.00,0.00,247.56,21.12,-134.25,-1.25,-1.50,-1.81,90.09,7.38
75.00,1.00,271.00,0.56,-66.31,-0.88,2.00,0.12,90.09,7.38
75.00,2.00,234.50,-3.25,15.94,-0.94,0.75,2.00,90.09,7.38
75.00,0.00,247.62,21.06,-134.25,-0.44,-1.25,-1.19,90.16,7.40
75.00,1.00,271.00,0.56,-66.31,-0.75,0.69,-0.12,90.16,7.40
75.00,2.00,234.50,-3.31,16.00,-1.88,1.06,1.81,90.16,7.40
75.00,0.00,247.62,21.06,-134.25,0.19,-0.31,-0.50,90.23,7.42
75.00,1.00,271.00,0.50,-66.31,-0.69,0.56,-0.69,90.23,7.42
75.00,2.00,234.44,-3.31,16.06,-1.12,1.06,1.31,90.23,7.42
75.00,0.00,247.62,21.06,-134.25,0.19,-0.12,-0.44,90.19,7.44
75.00,1.00,271.00,0.50,-66.31,-0.25,0.50,-1.38,90.19,7.44
75.00,2.00,234.44,-3.38,16.06,0.88,1.25,0.69,90.19,7.44
75.00,0.00,247.69,21.00,-134.25,0.06,-1.31,-0.69,90.16,7.46
75.00,1.00,271.06,0.44,-66.31,0.00,0.44,-1.19,90.16,7.46
75.00,2.00,234.44,-3.38,16.06,0.75,1.00,0.62,90.16,7.46
75.00,0.00,247.81,21.00,-134.25,0.31,-1.56,-0.31,90.14,7.48
75.00,1.00,271.06,0.44,-66.31,-0.12,-0.06,-1.06,90.14,7.48
75.00,2.00,234.44,-3.44,16.00,0.62,0.94,0.31,90.14,7.48
75.00,0.00,247.81,21.00,-134.25,0.62,-0.31,0.44,90.15,7.50
75.00,1.00,271.12,0.38,-66.31,0.06,-0.38,-1.06,90.15,7.50
75.00,2.00,234.44,-3.44,16.06,0.44,0.25,0.25,90.15,7.50
75.00,0.00,247.81,21.00,-134.25,0.31,0.56,0.75,90.13,7.52
75.00,1.00,271.12,0.38,-66.25,0.31,-0.31,-0.81,90.13,7.52
75.00,2.00,234.44,-3.44,16.06,0.81,0.38,-0.19,90.13,7.52
75.00,0.00,247.75,21.06,-134.25,0.31,1.50,0.69,90.11,7.54
75.00,1.00,271.12,0.38,-66.25,0.31,-0.44,-0.50,90.11,7.54
75.00,2.00,234.44,-3.44,16.00,0.69,0.44,-0.50,90.11,7.54
75.00,0.00,247.62,21.06,-134.25,0.75,1.88,0.56,90.15,7.56
75.00,1.00,271.12,0.38,-66.25,0.50,-0.75,0.00,90.15,7.56
75.00,2.00,234.44,-3.44,16.06,-0.06,-0.25,-0.56,90.15,7.56
75.00,0.00,247.56,21.12,-134.25,1.25,2.56,0.56,90.20,7.58
75.00,1.00,271.19,0.38,-66.31,1.19,-1.56,-0.19,90.20,7.58
75.00,2.00,234.44,-3.44,16.06,0.31,-0.44,-0.88,90.20,7.58
75.00,0.00,247.38,21.12,-134.25,1.56,3.31,0.06,90.24,7.60
75.00,1.00,271.19,0.38,-66.31,1.38,-1.56,-0.38,90.24,7.60
75.00,2.00,234.50,-3.44,16.06,0.75,-0.81,-1.25,90.24,7.60
75.00,0.00,247.31,21.19,-134.19,2.12,3.06,-0.25,90.33,7.62
75.00,1.00,271.25,0.38,-66.31,1.44,-2.12,-0.12,90.33,7.62
75.00,2.00,234.50,-3.44,16.06,0.25,-0.44,-1.88,90.33,7.62
75.00,0.00,247.19,21.19,-134.19,2.62,2.38,-0.38,90.46,7.64
75.00,1.00,271.25,0.38,-66.38,1.56,-2.25,0.06,90.46,7.64
75.00,2.00,234.56,-3.44,16.06,-0.19,0.25,-2.31,90.46,7.64
75.00,0.00,247.25,21.19,-134.12,1.31,0.69,-1.25,90.55,7.66
75.00,1.00,271.31,0.44,-66.38,1.94,-3.19,-0.12,90.55,7.66
75.00,2.00,234.62,-3.44,16.12,-0.38,-0.06,-2.88,90.55,7.66
75.00,0.00,247.44,21.12,-134.00,1.06,-1.75,-2.19,90.60,7.68
75.00,1.00,271.38,0.44,-66.44,1.38,-3.94,-0.06,90.60,7.68
75.00,2.00,234.69,-3.38,16.12,0.06,-0.06,-4.31,90.60,7.68
