Iteration,IMUNo,OrientationX (deg),OrientationY,OrientationZ,GyroX (20rad/sec),GyroY,GyroZ,Elbow_Pos (rad),Time (sec)
77.00,0.00,293.50,2.25,-98.12,-0.50,0.25,-0.50,-0.04,1.02
77.00,1.00,274.38,-1.56,-65.12,-0.62,-0.12,-0.19,-0.04,1.02
77.00,2.00,240.69,-14.25,20.50,-0.12,0.00,0.19,-0.04,1.02
77.00,0.00,293.50,2.25,-98.06,-1.00,0.19,-0.62,-0.09,1.04
77.00,1.00,274.38,-1.56,-65.12,-0.38,0.06,-0.50,-0.09,1.04
77.00,2.00,240.69,-14.25,20.50,-0.06,0.25,0.38,-0.09,1.04
77.00,0.00,293.50,2.25,-98.06,-0.31,-0.50,-0.50,-0.08,1.06
77.00,1.00,274.38,-1.56,-65.12,-0.44,0.06,-0.19,-0.08,1.06
77.00,2.00,240.69,-14.25,20.50,-0.56,0.62,0.31,-0.08,1.06
77.00,0.00,293.50,2.25,-98.06,0.19,-0.75,-0.31,-0.04,1.08
77.00,1.00,274.38,-1.56,-65.12,-0.44,-0.19,-0.31,-0.04,1.08
77.00,2.00,240.69,-14.25,20.50,-0.56,0.56,-0.12,-0.04,1.08
77.00,0.00,293.50,2.25,-98.06,0.19,-0.75,-0.31,-0.04,1.08
77.00,1.00,274.38,-1.56,-65.12,-0.44,-0.19,-0.31,-0.04,1.08
77.00,2.00,240.69,-14.25,20.50,-0.56,0.56,-0.12,-0.04,1.08
77.00,0.00,293.50,2.25,-98.06,0.00,-0.19,-0.56,-0.05,1.10
77.00,1.00,274.38,-1.56,-65.12,-0.81,-0.31,-0.56,-0.05,1.10
77.00,2.00,240.69,-14.31,20.50,0.25,0.56,-0.62,-0.05,1.10
77.00,0.00,293.50,2.19,-98.06,-0.38,0.06,-0.88,-0.06,1.12
77.00,1.00,274.38,-1.56,-65.12,-0.69,-0.06,-0.62,-0.06,1.12
77.00,2.00,240.69,-14.31,20.50,-0.12,0.44,-0.06,-0.06,1.12
77.00,0.00,293.56,2.19,-98.06,-0.94,-0.44,-0.75,-0.08,1.14
77.00,1.00,274.38,-1.56,-65.12,-0.44,0.25,-0.31,-0.08,1.14
77.00,2.00,240.69,-14.31,20.50,-0.62,0.12,0.44,-0.08,1.14
77.00,0.00,293.56,2.19,-98.06,-1.00,-0.75,-0.81,-0.08,1.16
77.00,1.00,274.38,-1.56,-65.12,-0.31,0.50,-0.19,-0.08,1.16
77.00,2.00,240.69,-14.31,20.56,-0.88,0.31,0.56,-0.08,1.16
77.00,0.00,293.62,2.19,-98.06,-0.44,-1.06,-0.69,-0.07,1.18
77.00,1.00,274.38,-1.56,-65.12,-0.44,-0.12,-0.12,-0.07,1.18
77.00,2.00,240.69,-14.31,20.56,-0.81,0.44,0.12,-0.07,1.18
77.00,0.00,293.62,2.19,-98.06,0.06,-0.81,-0.44,-0.06,1.20
77.00,1.00,274.38,-1.56,-65.12,-0.50,-0.31,-0.19,-0.06,1.20
77.00,2.00,240.69,-14.31,20.56,-0.12,0.50,-0.69,-0.06,1.20
77.00,0.00,293.62,2.19,-98.06,-0.06,-0.19,-0.50,-0.07,1.22
77.00,1.00,274.38,-1.56,-65.12,-0.56,-0.06,-0.50,-0.07,1.22
77.00,2.00,240.69,-14.25,20.56,0.25,0.31,-0.62,-0.07,1.22
77.00,0.00,293.62,2.19,-98.06,-0.50,0.56,-0.56,-0.08,1.24
77.00,1.00,274.38,-1.56,-65.06,-0.81,-0.06,-0.31,-0.08,1.24
77.00,2.00,240.69,-14.25,20.56,-0.31,0.31,0.00,-0.08,1.24
77.00,0.00,293.62,2.19,-98.06,-0.31,0.75,-0.25,-0.07,1.26
77.00,1.00,274.38,-1.56,-65.06,-0.94,0.00,-0.19,-0.07,1.26
77.00,2.00,240.69,-14.31,20.56,-0.56,0.62,0.44,-0.07,1.26
77.00,0.00,293.62,2.19,-98.00,-0.75,0.38,-0.19,-0.03,1.28
77.00,1.00,274.38,-1.56,-65.06,-0.88,0.31,0.00,-0.03,1.28
77.00,2.00,240.69,-14.31,20.56,-1.50,0.00,0.69,-0.03,1.28
77.00,0.00,293.62,2.19,-98.00,-0.62,-0.19,-0.19,-0.01,1.30
77.00,1.00,274.38,-1.56,-65.06,-1.12,0.75,-0.06,-0.01,1.30
77.00,2.00,240.69,-14.31,20.62,-1.06,0.25,0.19,-0.01,1.30
77.00,0.00,293.62,2.19,-98.00,-0.69,0.12,-0.50,-0.01,1.32
77.00,1.00,274.38,-1.56,-65.00,-1.31,0.81,0.19,-0.01,1.32
77.00,2.00,240.69,-14.31,20.62,-0.75,0.44,0.00,-0.01,1.32
77.00,0.00,293.62,2.19,-98.00,-1.06,1.19,-0.38,0.02,1.34
77.00,1.00,274.38,-1.56,-65.00,-1.81,0.50,0.25,0.02,1.34
77.00,2.00,240.69,-14.31,20.69,-1.62,0.12,0.62,0.02,1.34
77.00,0.00,293.56,2.19,-97.94,-0.69,1.00,-0.06,0.08,1.36
77.00,1.00,274.38,-1.56,-64.94,-1.38,-0.25,-0.06,0.08,1.36
77.00,2.00,240.62,-14.31,20.69,-1.88,0.12,0.69,0.08,1.36
77.00,0.00,293.56,2.19,-97.94,0.00,0.38,0.19,0.18,1.38
77.00,1.00,274.38,-1.62,-64.94,-1.31,0.25,-0.75,0.18,1.38
77.00,2.00,240.62,-14.31,20.75,-1.94,0.56,0.56,0.18,1.38
77.00,0.00,293.56,2.19,-97.94,0.19,-0.50,0.06,0.23,1.40
77.00,1.00,274.38,-1.62,-64.88,-1.50,0.88,-0.25,0.23,1.40
77.00,2.00,240.62,-14.31,20.75,-0.94,0.62,-0.06,0.23,1.40
77.00,0.00,293.62,2.19,-97.94,-0.12,-1.38,-0.44,0.26,1.42
77.00,1.00,274.38,-1.62,-64.88,-2.19,0.44,0.06,0.26,1.42
77.00,2.00,240.62,-14.31,20.75,-0.62,0.44,-0.19,0.26,1.42
77.00,0.00,293.62,2.12,-97.94,0.25,-1.12,-0.81,0.35,1.44
77.00,1.00,274.38,-1.62,-64.81,-2.12,0.25,-0.12,0.35,1.44
77.00,2.00,240.62,-14.31,20.81,-1.62,0.06,0.81,0.35,1.44
77.00,0.00,293.62,2.12,-98.00,1.44,-0.56,-0.06,0.53,1.46
77.00,1.00,274.38,-1.62,-64.75,-1.69,-0.06,-0.12,0.53,1.46
77.00,2.00,240.62,-14.31,20.81,-2.12,-0.38,1.00,0.53,1.46
77.00,0.00,293.69,2.19,-98.00,2.31,-0.94,0.94,0.75,1.48
77.00,1.00,274.38,-1.62,-64.75,-1.50,-0.19,-0.44,0.75,1.48
77.00,2.00,240.56,-14.31,20.88,-2.00,0.00,0.88,0.75,1.48
77.00,0.00,293.62,2.19,-98.06,3.12,-0.12,2.19,0.96,1.50
77.00,1.00,274.38,-1.62,-64.69,-1.62,-0.19,-0.94,0.96,1.50
77.00,2.00,240.56,-14.38,20.88,-1.06,0.69,-0.06,0.96,1.50
77.00,0.00,293.56,2.25,-98.19,3.69,1.38,3.06,1.17,1.52
77.00,1.00,274.44,-1.62,-64.69,-1.75,0.06,-1.19,1.17,1.52
77.00,2.00,240.56,-14.38,20.88,-0.56,0.56,0.00,1.17,1.52
77.00,0.00,293.44,2.31,-98.25,4.06,2.06,3.62,1.44,1.54
77.00,1.00,274.44,-1.69,-64.62,-1.62,-0.06,-1.19,1.44,1.54
77.00,2.00,240.56,-14.38,20.94,-1.31,-0.06,1.12,1.44,1.54
77.00,0.00,293.31,2.38,-98.31,4.19,2.62,3.56,1.72,1.56
77.00,1.00,274.44,-1.69,-64.62,-1.62,0.12,-0.75,1.72,1.56
77.00,2.00,240.56,-14.38,20.94,-1.38,-0.12,1.50,1.72,1.56
77.00,0.00,293.19,2.50,-98.38,5.00,2.06,3.50,2.04,1.58
77.00,1.00,274.44,-1.69,-64.62,-1.31,0.06,-1.00,2.04,1.58
77.00,2.00,240.50,-14.38,20.94,-1.31,-0.25,1.12,2.04,1.58
77.00,0.00,293.06,2.56,-98.50,6.12,2.00,3.31,2.40,1.60
77.00,1.00,274.50,-1.69,-64.56,-1.69,-0.31,-1.00,2.40,1.60
77.00,2.00,240.50,-14.38,21.00,-1.12,1.00,1.00,2.40,1.60
77.00,0.00,292.94,2.62,-98.69,7.44,2.12,3.69,2.86,1.62
77.00,1.00,274.50,-1.75,-64.56,-1.62,0.44,-1.12,2.86,1.62
77.00,2.00,240.50,-14.44,21.00,-1.75,1.31,1.19,2.86,1.62
77.00,0.00,292.81,2.69,-98.88,9.75,1.19,4.50,3.42,1.64
77.00,1.00,274.56,-1.75,-64.50,-1.81,0.12,-1.69,3.42,1.64
77.00,2.00,240.44,-14.44,21.06,-1.38,1.94,1.00,3.42,1.64
77.00,0.00,292.75,2.81,-99.06,10.19,0.88,4.56,3.95,1.66
77.00,1.00,274.56,-1.81,-64.50,-1.12,-0.19,-2.12,3.95,1.66
77.00,2.00,240.44,-14.50,21.06,-0.44,1.75,1.00,3.95,1.66
77.00,0.00,292.62,2.81,-99.25,9.81,0.62,2.81,4.44,1.68
77.00,1.00,274.62,-1.81,-64.44,-0.88,-0.12,-2.25,4.44,1.68
77.00,2.00,240.44,-14.56,21.06,-0.06,1.62,1.25,4.44,1.68
77.00,0.00,292.56,2.88,-99.44,10.44,-0.06,3.19,4.95,1.70
77.00,1.00,274.69,-1.88,-64.44,-1.19,0.31,-2.19,4.95,1.70
77.00,2.00,240.44,-14.56,21.06,0.31,2.31,0.88,4.95,1.70
77.00,0.00,292.50,3.00,-99.69,11.12,0.19,3.62,5.50,1.72
77.00,1.00,274.69,-1.94,-64.44,-0.06,0.62,-2.06,5.50,1.72
77.00,2.00,240.38,-14.62,21.06,0.12,2.44,1.44,5.50,1.72
77.00,0.00,292.38,3.06,-99.88,10.31,1.94,3.56,6.05,1.74
77.00,1.00,274.69,-1.94,-64.38,-1.25,1.12,-1.94,6.05,1.74
77.00,2.00,240.38,-14.69,21.06,-0.62,2.12,2.31,6.05,1.74
77.00,0.00,292.19,3.12,-100.06,9.81,3.56,2.94,6.59,1.76
77.00,1.00,274.75,-2.00,-64.38,-0.62,1.19,-1.56,6.59,1.76
77.00,2.00,240.31,-14.75,21.06,-0.94,1.06,3.25,6.59,1.76
77.00,0.00,292.00,3.19,-100.31,11.94,3.00,4.50,7.23,1.78
77.00,1.00,274.75,-2.00,-64.38,-0.81,0.94,-1.25,7.23,1.78
77.00,2.00,240.25,-14.75,21.06,-0.81,0.75,3.31,7.23,1.78
77.00,0.00,291.81,3.31,-100.50,12.56,2.62,5.38,7.93,1.80
77.00,1.00,274.75,-2.06,-64.38,-0.31,0.88,-1.25,7.93,1.80
77.00,2.00,240.19,-14.81,21.06,-1.44,0.00,3.38,7.93,1.80
77.00,0.00,291.62,3.44,-100.75,11.12,4.44,4.44,8.55,1.82
77.00,1.00,274.81,-2.06,-64.38,-0.62,0.31,-1.19,8.55,1.82
77.00,2.00,240.12,-14.81,21.06,-1.19,0.12,3.25,8.55,1.82
77.00,0.00,291.38,3.56,-100.94,11.25,6.25,4.06,9.08,1.84
77.00,1.00,274.81,-2.12,-64.38,-0.56,0.00,-1.56,9.08,1.84
77.00,2.00,240.06,-14.88,21.06,0.69,0.50,3.00,9.08,1.84
77.00,0.00,291.12,3.69,-101.19,14.00,4.88,5.94,9.71,1.86
77.00,1.00,274.81,-2.12,-64.38,-0.81,-0.25,-1.75,9.71,1.86
77.00,2.00,240.00,-14.88,21.06,1.44,0.44,2.81,9.71,1.86
77.00,0.00,290.88,3.81,-101.50,15.50,4.38,8.19,10.39,1.88
77.00,1.00,274.88,-2.19,-64.31,0.12,0.19,-1.94,10.39,1.88
77.00,2.00,239.94,-14.88,21.00,1.81,-0.75,2.38,10.39,1.88
77.00,0.00,290.56,4.00,-101.75,14.06,6.06,7.38,10.99,1.90
77.00,1.00,274.94,-2.19,-64.31,0.00,0.12,-1.94,10.99,1.90
77.00,2.00,239.94,-14.88,20.94,2.25,-1.19,2.19,10.99,1.90
77.00,0.00,290.19,4.19,-102.06,14.69,7.19,7.69,11.56,1.92
77.00,1.00,274.94,-2.25,-64.31,-0.69,-0.19,-1.88,11.56,1.92
77.00,2.00,239.88,-14.94,20.88,3.31,-0.75,2.25,11.56,1.92
77.00,0.00,289.88,4.38,-102.31,15.19,6.19,8.19,12.22,1.94
77.00,1.00,275.00,-2.25,-64.31,-0.38,1.12,-2.31,12.22,1.94
77.00,2.00,239.81,-14.94,20.81,1.94,-1.69,3.31,12.22,1.94
77.00,0.00,289.50,4.56,-102.62,15.38,5.81,8.81,12.96,1.96
77.00,1.00,275.00,-2.31,-64.31,-0.12,1.31,-1.69,12.96,1.96
77.00,2.00,239.75,-14.94,20.81,0.56,-2.44,3.81,12.96,1.96
77.00,0.00,289.19,4.75,-102.94,14.94,6.38,8.56,13.69,1.98
77.00,1.00,275.00,-2.31,-64.31,-0.38,0.19,-0.62,13.69,1.98
77.00,2.00,239.62,-14.88,20.75,0.38,-2.19,4.31,13.69,1.98
77.00,0.00,288.88,4.94,-103.19,16.25,5.00,8.75,14.46,2.00
77.00,1.00,275.06,-2.38,-64.31,-0.50,-0.19,-0.94,14.46,2.00
77.00,2.00,239.56,-14.88,20.75,1.00,-1.56,3.00,14.46,2.00
77.00,0.00,288.56,5.12,-103.56,18.31,2.31,10.69,15.31,2.02
77.00,1.00,275.06,-2.38,-64.31,-0.50,0.38,-1.31,15.31,2.02
77.00,2.00,239.50,-14.94,20.69,1.38,-0.75,2.31,15.31,2.02
77.00,0.00,288.25,5.31,-103.94,17.62,1.75,10.25,16.08,2.04
77.00,1.00,275.06,-2.38,-64.31,-0.38,1.12,-1.12,16.08,2.04
77.00,2.00,239.50,-14.88,20.69,2.19,-2.19,1.69,16.08,2.04
77.00,0.00,288.00,5.50,-104.19,15.19,3.12,7.94,16.64,2.06
77.00,1.00,275.06,-2.44,-64.31,-0.81,1.00,-0.94,16.64,2.06
77.00,2.00,239.44,-14.88,20.56,4.06,-3.94,1.44,16.64,2.06
77.00,0.00,287.75,5.62,-104.50,12.94,4.38,6.06,17.01,2.08
77.00,1.00,275.12,-2.44,-64.31,-0.88,0.31,-0.94,17.01,2.08
77.00,2.00,239.44,-14.81,20.50,5.44,-3.62,1.88,17.01,2.08
77.00,0.00,287.50,5.75,-104.75,13.62,3.38,7.12,17.46,2.10
77.00,1.00,275.12,-2.50,-64.31,-0.56,0.75,-1.12,17.46,2.10
77.00,2.00,239.38,-14.75,20.38,4.62,-3.62,3.31,17.46,2.10
77.00,0.00,287.19,5.94,-105.00,16.00,1.31,9.88,18.17,2.12
77.00,1.00,275.12,-2.50,-64.31,-0.38,1.25,-1.25,18.17,2.12
77.00,2.00,239.25,-14.75,20.25,2.00,-3.19,4.38,18.17,2.12
77.00,0.00,286.94,6.12,-105.31,15.62,2.88,9.50,18.96,2.14
77.00,1.00,275.12,-2.56,-64.31,-0.69,1.62,-1.50,18.96,2.14
77.00,2.00,239.19,-14.75,20.25,-0.25,-2.19,5.06,18.96,2.14
77.00,0.00,286.62,6.31,-105.62,15.31,4.62,8.12,19.69,2.16
77.00,1.00,275.12,-2.56,-64.25,-1.50,1.56,-1.94,19.69,2.16
77.00,2.00,239.06,-14.75,20.19,0.81,-0.88,4.50,19.69,2.16
77.00,0.00,286.31,6.50,-105.94,18.19,2.69,9.38,20.50,2.18
77.00,1.00,275.19,-2.62,-64.25,-1.94,2.19,-2.56,20.50,2.18
77.00,2.00,239.00,-14.75,20.19,2.00,0.00,3.62,20.50,2.18
77.00,0.00,286.00,6.75,-106.38,21.56,-0.94,12.19,21.48,2.20
77.00,1.00,275.19,-2.69,-64.19,-1.00,1.69,-2.38,21.48,2.20
77.00,2.00,238.94,-14.81,20.12,1.94,-1.00,3.44,21.48,2.20
77.00,0.00,285.75,6.94,-106.81,20.56,-0.56,11.44,22.51,2.22
77.00,1.00,275.19,-2.75,-64.19,0.56,0.50,-1.50,22.51,2.22
77.00,2.00,238.88,-14.81,20.06,0.00,-2.12,4.31,22.51,2.22
77.00,0.00,285.50,7.12,-107.19,18.62,1.12,8.12,23.45,2.24
77.00,1.00,275.25,-2.75,-64.19,0.06,-0.25,-1.06,23.45,2.24
77.00,2.00,238.75,-14.81,20.06,0.00,-1.62,4.44,23.45,2.24
77.00,0.00,285.31,7.19,-107.50,17.44,1.94,5.06,24.30,2.26
77.00,1.00,275.25,-2.81,-64.19,-0.12,0.69,-1.19,24.30,2.26
77.00,2.00,238.69,-14.81,20.06,0.44,-0.88,4.44,24.30,2.26
77.00,0.00,285.19,7.25,-107.69,19.12,-0.38,4.94,25.23,2.28
77.00,1.00,275.31,-2.81,-64.19,-0.31,0.38,-1.31,25.23,2.28
77.00,2.00,238.56,-14.81,20.00,0.62,-1.31,4.44,25.23,2.28
77.00,0.00,285.06,7.31,-108.06,21.88,-3.19,6.75,26.35,2.30
77.00,1.00,275.31,-2.81,-64.19,-0.06,0.12,-1.38,26.35,2.30
77.00,2.00,238.50,-14.88,20.00,-0.50,-0.81,4.44,26.35,2.30
77.00,0.00,285.00,7.44,-108.50,22.19,-4.06,7.25,27.50,2.32
77.00,1.00,275.31,-2.88,-64.19,-0.25,-0.69,-1.44,27.50,2.32
77.00,2.00,238.38,-14.88,20.00,-0.81,-1.19,3.75,27.50,2.32
77.00,0.00,284.88,7.50,-108.94,20.06,-2.75,4.31,28.51,2.34
77.00,1.00,275.38,-2.88,-64.19,-0.81,-0.69,-1.62,28.51,2.34
77.00,2.00,238.31,-14.88,20.00,-0.19,-1.62,3.31,28.51,2.34
77.00,0.00,284.81,7.56,-109.31,18.31,-1.69,2.12,29.45,2.36
77.00,1.00,275.44,-2.88,-64.19,-1.31,-0.62,-1.38,29.45,2.36
77.00,2.00,238.25,-14.88,19.94,-0.38,-0.62,3.25,29.45,2.36
77.00,0.00,284.75,7.56,-109.69,19.69,-3.44,2.38,30.44,2.38
77.00,1.00,275.44,-2.94,-64.19,-1.31,-0.81,-1.56,30.44,2.38
77.00,2.00,238.19,-14.88,19.94,-0.12,-0.75,3.12,30.44,2.38
77.00,0.00,284.75,7.62,-110.06,20.62,-5.19,5.31,31.48,2.40
77.00,1.00,275.50,-2.94,-64.12,-1.19,-0.81,-1.50,31.48,2.40
77.00,2.00,238.12,-14.88,19.94,-0.12,-1.38,3.00,31.48,2.40
77.00,0.00,284.69,7.69,-110.50,18.25,-3.88,4.62,32.41,2.42
77.00,1.00,275.50,-2.94,-64.12,-0.94,-0.81,-1.19,32.41,2.42
77.00,2.00,238.06,-14.88,19.94,-0.12,-2.56,3.56,32.41,2.42
77.00,0.00,284.62,7.75,-110.81,16.69,-2.06,3.06,33.22,2.44
77.00,1.00,275.56,-3.00,-64.06,-1.06,-0.62,-1.56,33.22,2.44
77.00,2.00,238.00,-14.88,19.88,0.50,-2.19,3.62,33.22,2.44
77.00,0.00,284.56,7.75,-111.12,16.62,-1.62,2.62,33.93,2.46
77.00,1.00,275.56,-3.00,-64.06,-0.88,-0.50,-1.31,33.93,2.46
77.00,2.00,237.94,-14.88,19.88,2.38,-0.94,3.12,33.93,2.46
77.00,0.00,284.50,7.81,-111.50,17.06,-2.88,3.19,34.70,2.48
77.00,1.00,275.62,-3.00,-64.06,-1.25,-0.19,-0.88,34.70,2.48
77.00,2.00,237.88,-14.88,19.81,1.75,-1.25,3.00,34.70,2.48
77.00,0.00,284.44,7.81,-111.81,17.06,-4.81,4.38,35.56,2.50
77.00,1.00,275.62,-3.00,-64.00,-1.25,0.06,-0.62,35.56,2.50
77.00,2.00,237.81,-14.88,19.75,-0.19,-2.00,3.38,35.56,2.50
77.00,0.00,284.44,7.88,-112.19,16.81,-5.25,4.44,36.42,2.52
77.00,1.00,275.62,-3.06,-64.00,-1.06,-0.38,-0.88,36.42,2.52
77.00,2.00,237.69,-14.88,19.75,-0.25,-3.00,3.62,36.42,2.52
77.00,0.00,284.44,7.94,-112.50,15.56,-3.69,4.12,37.14,2.54
77.00,1.00,275.62,-3.06,-64.00,-0.94,-0.12,-0.88,37.14,2.54
77.00,2.00,237.62,-14.88,19.69,1.19,-2.38,3.50,37.14,2.54
77.00,0.00,284.38,8.00,-112.81,14.19,-2.75,3.50,37.76,2.56
77.00,1.00,275.62,-3.06,-63.94,-1.06,0.62,-0.50,37.76,2.56
77.00,2.00,237.56,-14.81,19.69,1.75,-2.25,3.38,37.76,2.56
77.00,0.00,284.31,8.00,-113.06,14.19,-2.19,3.44,38.45,2.58
77.00,1.00,275.62,-3.06,-63.94,-0.88,1.56,-0.69,38.45,2.58
77.00,2.00,237.50,-14.81,19.62,0.44,-1.94,3.75,38.45,2.58
77.00,0.00,284.19,8.12,-113.38,15.62,-0.75,6.06,39.20,2.60
77.00,1.00,275.62,-3.12,-63.94,-1.06,1.38,-0.38,39.20,2.60
77.00,2.00,237.38,-14.81,19.62,0.75,-2.19,4.00,39.20,2.60
77.00,0.00,284.00,8.19,-113.69,15.75,-0.94,6.75,39.99,2.62
77.00,1.00,275.62,-3.12,-63.88,-0.94,0.62,-0.12,39.99,2.62
77.00,2.00,237.31,-14.81,19.56,-0.06,-2.62,4.19,39.99,2.62
77.00,0.00,283.81,8.31,-113.94,14.50,0.25,7.12,40.73,2.64
77.00,1.00,275.62,-3.12,-63.88,-0.56,0.75,0.00,40.73,2.64
77.00,2.00,237.19,-14.81,19.56,-0.31,-2.88,4.31,40.73,2.64
77.00,0.00,283.56,8.44,-114.25,12.88,0.75,6.12,41.38,2.66
77.00,1.00,275.56,-3.12,-63.88,-1.31,2.00,-0.25,41.38,2.66
77.00,2.00,237.12,-14.75,19.50,-0.06,-2.62,4.56,41.38,2.66
77.00,0.00,283.38,8.56,-114.50,13.50,0.00,6.44,41.99,2.68
77.00,1.00,275.56,-3.12,-63.88,-1.12,3.31,-0.38,41.99,2.68
77.00,2.00,237.00,-14.75,19.50,1.25,-2.12,4.69,41.99,2.68
77.00,0.00,283.25,8.69,-114.75,14.44,-1.31,6.56,42.63,2.70
77.00,1.00,275.50,-3.19,-63.81,-0.81,2.56,0.00,42.63,2.70
77.00,2.00,236.94,-14.75,19.44,1.81,-2.81,4.50,42.63,2.70
77.00,0.00,283.12,8.75,-115.06,14.00,-2.31,7.00,43.18,2.72
77.00,1.00,275.50,-3.19,-63.81,-0.50,2.38,-0.06,43.18,2.72
77.00,2.00,236.81,-14.75,19.31,3.00,-2.25,4.06,43.18,2.72
77.00,0.00,283.00,8.88,-115.31,11.44,-1.25,5.19,43.69,2.74
77.00,1.00,275.44,-3.19,-63.81,-0.62,2.56,-0.19,43.69,2.74
77.00,2.00,236.75,-14.75,19.25,1.31,-1.75,5.06,43.69,2.74
77.00,0.00,282.88,8.94,-115.56,12.50,-1.88,4.19,44.29,2.76
77.00,1.00,275.44,-3.25,-63.81,-1.12,2.75,-0.88,44.29,2.76
77.00,2.00,236.62,-14.75,19.25,0.44,-1.12,5.88,44.29,2.76
77.00,0.00,282.81,9.00,-115.88,16.69,-4.56,6.44,45.08,2.78
77.00,1.00,275.44,-3.31,-63.81,-1.75,3.62,-1.12,45.08,2.78
77.00,2.00,236.50,-14.75,19.19,0.88,-0.69,5.44,45.08,2.78
77.00,0.00,282.69,9.06,-116.25,18.19,-5.75,9.31,45.96,2.80
77.00,1.00,275.38,-3.38,-63.75,-1.56,3.88,-1.12,45.96,2.80
77.00,2.00,236.44,-14.81,19.19,0.69,0.12,5.00,45.96,2.80
77.00,0.00,282.56,9.19,-116.56,16.12,-3.75,7.25,46.74,2.82
77.00,1.00,275.38,-3.38,-63.75,-0.69,3.12,-0.62,46.74,2.82
77.00,2.00,236.31,-14.81,19.12,0.62,-1.25,5.44,46.74,2.82
77.00,0.00,282.50,9.25,-116.88,15.25,-3.25,4.94,47.46,2.84
77.00,1.00,275.31,-3.44,-63.75,-1.06,2.50,-0.31,47.46,2.84
77.00,2.00,236.19,-14.81,19.06,0.88,-1.38,4.88,47.46,2.84
77.00,0.00,282.50,9.31,-117.19,16.31,-4.94,4.75,48.26,2.86
77.00,1.00,275.31,-3.44,-63.69,-1.44,2.62,-0.19,48.26,2.86
77.00,2.00,236.12,-14.88,19.06,0.19,-1.56,5.06,48.26,2.86
77.00,0.00,282.44,9.31,-117.56,16.94,-6.00,4.88,49.12,2.88
77.00,1.00,275.25,-3.44,-63.69,-0.81,2.62,-0.12,49.12,2.88
77.00,2.00,236.00,-14.81,19.00,-0.12,-2.44,5.31,49.12,2.88
77.00,0.00,282.50,9.31,-117.88,15.12,-5.44,3.19,49.89,2.90
77.00,1.00,275.25,-3.50,-63.69,-0.19,2.25,0.06,49.89,2.90
77.00,2.00,235.88,-14.81,19.00,-0.25,-3.44,5.12,49.89,2.90
77.00,0.00,282.50,9.31,-118.12,13.75,-4.50,2.00,50.55,2.92
77.00,1.00,275.25,-3.50,-63.69,-0.62,1.31,0.00,50.55,2.92
77.00,2.00,235.81,-14.75,18.94,0.62,-3.31,4.31,50.55,2.92
77.00,0.00,282.56,9.31,-118.38,12.38,-3.81,1.12,51.15,2.94
77.00,1.00,275.25,-3.56,-63.69,-1.44,0.81,-0.19,51.15,2.94
77.00,2.00,235.69,-14.75,18.94,0.38,-2.81,4.12,51.15,2.94
77.00,0.00,282.56,9.31,-118.62,13.62,-3.69,1.75,51.87,2.96
77.00,1.00,275.25,-3.56,-63.62,-1.19,1.19,-0.44,51.87,2.96
77.00,2.00,235.62,-14.75,18.94,-0.81,-2.75,4.12,51.87,2.96
77.00,0.00,282.56,9.31,-118.88,14.19,-3.00,3.12,52.63,2.98
77.00,1.00,275.19,-3.56,-63.62,-0.94,0.88,-0.31,52.63,2.98
77.00,2.00,235.50,-14.69,18.88,-1.00,-2.94,3.62,52.63,2.98
77.00,0.00,282.50,9.31,-119.12,12.81,-1.56,2.81,53.31,3.00
77.00,1.00,275.19,-3.62,-63.62,-1.25,0.94,-0.31,53.31,3.00
77.00,2.00,235.44,-14.69,18.88,-0.75,-2.75,2.94,53.31,3.00
77.00,0.00,282.38,9.38,-119.31,11.19,-0.38,1.19,53.92,3.02
77.00,1.00,275.19,-3.62,-63.62,-1.62,0.62,-0.12,53.92,3.02
77.00,2.00,235.38,-14.62,18.88,-0.81,-2.94,2.75,53.92,3.02
77.00,0.00,282.31,9.38,-119.50,12.44,-1.50,2.12,54.57,3.04
77.00,1.00,275.19,-3.62,-63.56,-1.44,0.62,-0.44,54.57,3.04
77.00,2.00,235.31,-14.62,18.88,-0.69,-2.56,2.94,54.57,3.04
77.00,0.00,282.19,9.44,-119.81,15.50,-1.75,5.75,55.38,3.06
77.00,1.00,275.19,-3.62,-63.50,-0.88,0.81,-0.50,55.38,3.06
77.00,2.00,235.25,-14.56,18.88,-0.62,-2.56,2.69,55.38,3.06
77.00,0.00,282.00,9.56,-120.12,12.88,2.50,4.62,56.09,3.08
77.00,1.00,275.19,-3.69,-63.50,0.25,0.81,-0.19,56.09,3.08
77.00,2.00,235.19,-14.50,18.88,-1.25,-3.69,2.19,56.09,3.08
77.00,0.00,281.69,9.62,-120.31,9.81,4.62,1.31,56.66,3.10
77.00,1.00,275.19,-3.69,-63.50,-0.81,0.38,0.00,56.66,3.10
77.00,2.00,235.12,-14.44,18.94,-1.50,-3.94,1.88,56.66,3.10
77.00,0.00,281.50,9.69,-120.50,10.06,4.06,1.50,57.20,3.12
77.00,1.00,275.19,-3.69,-63.50,-0.75,0.31,0.31,57.20,3.12
77.00,2.00,235.12,-14.44,18.94,-0.88,-2.88,1.31,57.20,3.12
77.00,0.00,281.25,9.75,-120.69,10.81,2.88,2.62,57.80,3.14
77.00,1.00,275.25,-3.69,-63.50,-0.12,0.19,0.56,57.80,3.14
77.00,2.00,235.06,-14.38,18.94,-1.12,-4.31,2.06,57.80,3.14
77.00,0.00,281.06,9.81,-120.88,10.00,1.69,3.25,58.40,3.16
77.00,1.00,275.19,-3.69,-63.50,-0.56,0.31,0.88,58.40,3.16
77.00,2.00,235.00,-14.25,18.94,-1.81,-4.94,1.94,58.40,3.16
77.00,0.00,280.94,9.88,-121.06,10.06,1.12,2.94,58.92,3.18
77.00,1.00,275.19,-3.69,-63.50,-0.62,0.81,0.81,58.92,3.18
77.00,2.00,234.94,-14.25,18.94,-0.50,-3.19,1.31,58.92,3.18
77.00,0.00,280.75,9.94,-121.19,8.81,2.88,2.62,59.39,3.20
77.00,1.00,275.19,-3.69,-63.50,-0.38,1.31,1.19,59.39,3.20
77.00,2.00,234.94,-14.19,18.94,-0.44,-3.19,0.88,59.39,3.20
77.00,0.00,280.56,10.00,-121.31,6.69,3.50,1.38,59.80,3.22
77.00,1.00,275.19,-3.69,-63.50,-0.50,-0.69,1.25,59.80,3.22
77.00,2.00,234.88,-14.12,18.94,-1.62,-3.94,1.62,59.80,3.22
77.00,0.00,280.44,10.06,-121.44,7.50,2.06,2.38,60.27,3.24
77.00,1.00,275.12,-3.69,-63.50,-0.38,-0.88,1.12,60.27,3.24
77.00,2.00,234.81,-14.06,18.94,-1.69,-3.62,1.56,60.27,3.24
77.00,0.00,280.25,10.12,-121.62,8.81,1.88,3.75,60.80,3.26
77.00,1.00,275.12,-3.69,-63.56,-0.69,-0.06,0.62,60.80,3.26
77.00,2.00,234.81,-14.00,19.00,-1.81,-2.94,1.25,60.80,3.26
77.00,0.00,280.00,10.19,-121.75,7.94,2.50,3.94,61.24,3.28
77.00,1.00,275.12,-3.69,-63.50,-0.12,0.69,1.25,61.24,3.28
77.00,2.00,234.75,-13.94,19.00,-0.94,-2.81,0.38,61.24,3.28
77.00,0.00,279.81,10.25,-121.88,5.31,3.19,2.12,61.57,3.30
77.00,1.00,275.12,-3.69,-63.50,0.50,-0.50,1.44,61.57,3.30
77.00,2.00,234.75,-13.88,19.00,-1.31,-3.06,0.44,61.57,3.30
77.00,0.00,279.69,10.31,-121.94,2.69,3.06,-0.75,61.72,3.32
77.00,1.00,275.12,-3.69,-63.50,0.81,-0.69,1.44,61.72,3.32
77.00,2.00,234.75,-13.88,19.06,-0.19,-3.38,0.50,61.72,3.32
77.00,0.00,279.62,10.31,-121.94,2.31,2.19,-1.75,61.85,3.34
77.00,1.00,275.06,-3.62,-63.56,0.88,-0.69,1.62,61.85,3.34
77.00,2.00,234.75,-13.81,19.06,-0.25,-3.38,0.56,61.85,3.34
77.00,0.00,279.62,10.31,-122.00,4.25,0.00,-0.25,62.11,3.36
77.00,1.00,275.06,-3.62,-63.56,0.81,-0.56,1.75,62.11,3.36
77.00,2.00,234.69,-13.75,19.06,-1.06,-2.81,0.88,62.11,3.36
77.00,0.00,279.56,10.31,-122.12,5.94,-0.06,2.25,62.45,3.38
77.00,1.00,275.06,-3.56,-63.56,0.69,-0.62,1.50,62.45,3.38
77.00,2.00,234.69,-13.75,19.06,-0.81,-1.81,0.38,62.45,3.38
77.00,0.00,279.38,10.38,-122.19,4.75,2.50,2.50,62.69,3.40
77.00,1.00,275.06,-3.56,-63.56,0.88,-1.00,1.25,62.69,3.40
77.00,2.00,234.69,-13.69,19.06,0.06,-2.12,0.19,62.69,3.40
77.00,0.00,279.19,10.44,-122.25,3.00,3.75,1.56,62.82,3.42
77.00,1.00,275.06,-3.56,-63.62,1.12,-1.19,0.94,62.82,3.42
77.00,2.00,234.69,-13.62,19.06,0.25,-2.75,0.44,62.82,3.42
77.00,0.00,279.06,10.50,-122.31,3.00,2.94,0.81,62.99,3.44
77.00,1.00,275.06,-3.50,-63.62,0.75,-0.81,1.12,62.99,3.44
77.00,2.00,234.62,-13.62,19.06,-0.31,-2.88,0.62,62.99,3.44
77.00,0.00,279.00,10.50,-122.38,4.50,0.94,1.06,63.29,3.46
77.00,1.00,275.00,-3.50,-63.62,1.00,-1.00,1.12,63.29,3.46
77.00,2.00,234.62,-13.56,19.12,-1.44,-3.38,1.06,63.29,3.46
77.00,0.00,278.88,10.56,-122.50,6.38,-0.38,1.81,63.62,3.48
77.00,1.00,275.00,-3.50,-63.69,1.38,-1.31,1.44,63.62,3.48
77.00,2.00,234.62,-13.50,19.12,-0.25,-2.88,-0.06,63.62,3.48
77.00,0.00,278.81,10.56,-122.62,7.06,-0.50,2.12,63.94,3.50
77.00,1.00,275.00,-3.44,-63.69,1.94,-1.44,1.38,63.94,3.50
77.00,2.00,234.62,-13.44,19.12,0.62,-3.31,-0.75,63.94,3.50
77.00,0.00,278.69,10.62,-122.81,7.31,0.81,2.50,64.24,3.52
77.00,1.00,275.06,-3.44,-63.75,1.81,-2.06,1.00,64.24,3.52
77.00,2.00,234.62,-13.44,19.12,1.31,-3.12,-0.62,64.24,3.52
77.00,0.00,278.50,10.69,-122.94,7.75,2.62,2.62,64.50,3.54
77.00,1.00,275.06,-3.38,-63.75,1.94,-2.06,0.94,64.50,3.54
77.00,2.00,234.62,-13.38,19.06,2.62,-3.19,-0.69,64.50,3.54
77.00,0.00,278.25,10.81,-123.12,9.06,2.56,4.00,64.82,3.56
77.00,1.00,275.06,-3.38,-63.81,2.38,-1.75,0.88,64.82,3.56
77.00,2.00,234.62,-13.31,19.00,2.75,-3.31,-0.38,64.82,3.56
77.00,0.00,278.06,10.88,-123.31,9.00,2.25,3.62,65.22,3.58
77.00,1.00,275.06,-3.38,-63.88,1.94,-1.50,1.06,65.22,3.58
77.00,2.00,234.62,-13.25,18.94,1.00,-3.44,0.06,65.22,3.58
77.00,0.00,277.81,10.94,-123.44,8.12,2.75,2.12,65.59,3.60
77.00,1.00,275.06,-3.31,-63.94,1.50,-1.75,1.38,65.59,3.60
77.00,2.00,234.56,-13.19,18.94,0.62,-3.94,0.06,65.59,3.60
77.00,0.00,277.69,11.00,-123.62,7.75,1.81,0.94,65.92,3.62
77.00,1.00,275.06,-3.25,-63.94,1.62,-1.62,1.31,65.92,3.62
77.00,2.00,234.56,-13.06,18.94,1.31,-4.31,0.06,65.92,3.62
77.00,0.00,277.50,11.00,-123.81,9.19,0.94,2.62,66.30,3.64
77.00,1.00,275.06,-3.25,-64.00,1.50,-1.06,1.25,66.30,3.64
77.00,2.00,234.56,-13.00,18.88,1.62,-4.62,0.25,66.30,3.64
77.00,0.00,277.31,11.12,-124.00,8.88,2.44,4.44,66.66,3.66
77.00,1.00,275.06,-3.25,-64.00,1.69,-0.69,1.31,66.66,3.66
77.00,2.00,234.50,-12.94,18.81,1.62,-5.25,1.19,66.66,3.66
77.00,0.00,276.94,11.25,-124.19,7.75,4.88,4.75,66.99,3.68
77.00,1.00,275.00,-3.19,-64.06,1.25,-0.31,2.06,66.99,3.68
77.00,2.00,234.50,-12.81,18.75,1.19,-5.31,2.00,66.99,3.68
77.00,0.00,276.62,11.38,-124.31,7.62,5.62,4.75,67.31,3.70
77.00,1.00,274.94,-3.19,-64.12,1.25,0.12,2.25,67.31,3.70
77.00,2.00,234.44,-12.75,18.75,1.19,-5.19,2.62,67.31,3.70
77.00,0.00,276.19,11.56,-124.44,8.44,6.88,4.25,67.74,3.72
77.00,1.00,274.94,-3.12,-64.12,0.50,0.81,1.88,67.74,3.72
77.00,2.00,234.31,-12.69,18.69,-0.19,-5.25,3.12,67.74,3.72
77.00,0.00,275.88,11.62,-124.56,6.88,6.19,1.94,68.12,3.74
77.00,1.00,274.88,-3.12,-64.19,0.62,0.94,2.00,68.12,3.74
77.00,2.00,234.25,-12.62,18.69,-0.69,-6.00,3.19,68.12,3.74
77.00,0.00,275.62,11.69,-124.69,6.62,4.00,0.00,68.52,3.76
77.00,1.00,274.81,-3.06,-64.19,0.62,0.56,2.31,68.52,3.76
77.00,2.00,234.19,-12.50,18.69,-1.31,-6.06,2.88,68.52,3.76
77.00,0.00,275.50,11.75,-124.88,9.38,1.56,1.94,69.05,3.78
77.00,1.00,274.81,-3.06,-64.19,-0.31,0.38,2.25,69.05,3.78
77.00,2.00,234.12,-12.44,18.69,-1.12,-4.75,2.19,69.05,3.78
77.00,0.00,275.25,11.81,-125.06,10.44,1.88,4.88,69.61,3.80
77.00,1.00,274.75,-3.00,-64.25,-0.50,1.00,2.12,69.61,3.80
77.00,2.00,234.06,-12.38,18.69,-0.88,-4.44,2.38,69.61,3.80
77.00,0.00,274.94,11.94,-125.25,9.50,3.81,5.12,70.13,3.82
77.00,1.00,274.69,-3.00,-64.25,-0.62,1.12,2.06,70.13,3.82
77.00,2.00,234.00,-12.25,18.69,-0.81,-5.75,3.19,70.13,3.82
77.00,0.00,274.56,12.06,-125.44,8.94,5.25,4.38,70.64,3.84
77.00,1.00,274.62,-2.94,-64.25,-0.62,0.00,2.25,70.64,3.84
77.00,2.00,233.88,-12.19,18.69,-1.19,-5.25,3.31,70.64,3.84
77.00,0.00,274.25,12.19,-125.56,8.00,6.19,2.88,71.14,3.86
77.00,1.00,274.62,-2.94,-64.25,-0.75,-0.19,1.94,71.14,3.86
77.00,2.00,233.81,-12.12,18.69,-2.06,-4.25,2.25,71.14,3.86
77.00,0.00,274.00,12.25,-125.69,7.19,3.81,-0.06,71.61,3.88
77.00,1.00,274.56,-2.94,-64.19,-1.88,0.25,1.75,71.61,3.88
77.00,2.00,233.75,-12.06,18.69,-2.19,-4.81,1.88,71.61,3.88
77.00,0.00,273.94,12.25,-125.81,8.50,0.62,0.56,72.17,3.90
77.00,1.00,274.56,-2.94,-64.19,-2.00,0.44,1.50,72.17,3.90
77.00,2.00,233.69,-12.00,18.75,-2.75,-5.44,1.81,72.17,3.90
77.00,0.00,273.81,12.25,-126.00,7.75,0.75,1.50,72.64,3.92
77.00,1.00,274.56,-2.88,-64.12,-1.12,-1.31,1.69,72.64,3.92
77.00,2.00,233.62,-11.88,18.75,-1.44,-6.25,1.75,72.64,3.92
77.00,0.00,273.62,12.31,-126.12,8.62,1.19,3.44,73.06,3.94
77.00,1.00,274.50,-2.81,-64.12,-1.25,-1.38,1.50,73.06,3.94
77.00,2.00,233.62,-11.81,18.75,0.06,-5.88,1.06,73.06,3.94
77.00,0.00,273.31,12.44,-126.25,8.38,4.69,3.94,73.47,3.96
77.00,1.00,274.50,-2.81,-64.12,-0.62,-1.38,1.50,73.47,3.96
77.00,2.00,233.56,-11.69,18.75,0.19,-4.94,1.00,73.47,3.96
77.00,0.00,273.00,12.56,-126.38,8.25,5.94,2.56,73.94,3.98
77.00,1.00,274.50,-2.75,-64.12,-0.56,-1.69,1.19,73.94,3.98
77.00,2.00,233.50,-11.62,18.81,-1.06,-4.38,1.06,73.94,3.98
77.00,0.00,272.69,12.62,-126.44,7.62,5.44,1.44,74.39,4.00
77.00,1.00,274.50,-2.75,-64.06,0.25,-1.94,0.81,74.39,4.00
77.00,2.00,233.50,-11.56,18.81,-1.31,-4.81,0.56,74.39,4.00
77.00,0.00,272.50,12.69,-126.50,7.25,4.38,0.12,74.83,4.02
77.00,1.00,274.50,-2.75,-64.06,-0.25,-1.69,1.00,74.83,4.02
77.00,2.00,233.50,-11.50,18.88,-1.50,-4.31,-0.38,74.83,4.02
77.00,0.00,272.44,12.69,-126.62,9.00,1.06,1.50,75.37,4.04
77.00,1.00,274.56,-2.69,-64.06,-0.06,-2.56,1.31,75.37,4.04
77.00,2.00,233.50,-11.44,18.94,-1.75,-3.06,-0.81,75.37,4.04
77.00,0.00,272.19,12.75,-126.75,9.44,1.81,4.12,75.92,4.06
77.00,1.00,274.56,-2.69,-64.06,0.31,-2.62,1.25,75.92,4.06
77.00,2.00,233.50,-11.38,19.00,-1.69,-2.81,-1.06,75.92,4.06
77.00,0.00,271.94,12.88,-126.88,5.06,5.25,2.88,76.19,4.08
77.00,1.00,274.62,-2.62,-64.06,0.38,-3.50,0.81,76.19,4.08
77.00,2.00,233.50,-11.31,19.00,-0.31,-3.19,-0.94,76.19,4.08
77.00,0.00,271.75,12.94,-126.88,1.56,4.06,-0.19,76.21,4.10
77.00,1.00,274.62,-2.62,-64.06,0.75,-3.00,0.81,76.21,4.10
77.00,2.00,233.50,-11.25,19.00,1.31,-3.31,-0.81,76.21,4.10
77.00,0.00,271.69,12.88,-126.88,2.69,0.31,-0.81,76.28,4.12
77.00,1.00,274.62,-2.56,-64.06,0.81,-2.88,1.00,76.28,4.12
77.00,2.00,233.50,-11.19,19.00,1.12,-2.81,-1.31,76.28,4.12
77.00,0.00,271.69,12.88,-126.94,5.44,-2.31,1.44,76.53,4.14
77.00,1.00,274.69,-2.56,-64.06,1.06,-3.31,1.38,76.53,4.14
77.00,2.00,233.56,-11.12,19.00,0.50,-2.62,-1.94,76.53,4.14
77.00,0.00,271.69,12.88,-127.06,6.06,-1.19,4.31,76.82,4.16
77.00,1.00,274.69,-2.50,-64.12,1.12,-3.44,1.56,76.82,4.16
77.00,2.00,233.56,-11.12,19.00,0.25,-2.19,-2.19,76.82,4.16
77.00,0.00,271.56,12.94,-127.19,3.50,1.12,3.38,76.94,4.18
77.00,1.00,274.69,-2.44,-64.12,1.38,-4.00,1.00,76.94,4.18
77.00,2.00,233.62,-11.06,19.00,1.19,-2.25,-2.00,76.94,4.18
77.00,0.00,271.44,13.00,-127.25,2.44,2.25,2.19,76.91,4.20
77.00,1.00,274.75,-2.38,-64.12,1.81,-3.44,0.75,76.91,4.20
77.00,2.00,233.69,-11.00,18.94,2.94,-2.38,-2.31,76.91,4.20
77.00,0.00,271.25,13.06,-127.31,3.12,1.38,2.19,76.90,4.22
77.00,1.00,274.75,-2.38,-64.19,2.25,-2.88,0.69,76.90,4.22
77.00,2.00,233.69,-10.94,18.94,3.31,-2.94,-2.44,76.90,4.22
77.00,0.00,271.12,13.12,-127.38,3.75,0.50,2.69,76.96,4.24
77.00,1.00,274.81,-2.31,-64.25,2.38,-2.75,1.06,76.96,4.24
77.00,2.00,233.75,-10.88,18.88,2.69,-3.38,-1.75,76.96,4.24
77.00,0.00,271.00,13.19,-127.50,4.50,0.62,5.12,77.08,4.26
77.00,1.00,274.81,-2.31,-64.25,2.56,-2.44,1.31,77.08,4.26
77.00,2.00,233.75,-10.81,18.81,2.00,-3.62,-1.56,77.08,4.26
77.00,0.00,270.81,13.31,-127.56,3.94,1.44,5.19,77.16,4.28
77.00,1.00,274.81,-2.25,-64.31,2.62,-2.69,1.31,77.16,4.28
77.00,2.00,233.81,-10.75,18.75,2.44,-3.75,-1.88,77.16,4.28
77.00,0.00,270.62,13.38,-127.69,3.81,1.94,4.81,77.19,4.30
77.00,1.00,274.81,-2.19,-64.38,2.75,-2.81,1.50,77.19,4.30
77.00,2.00,233.81,-10.62,18.75,3.19,-3.50,-2.44,77.19,4.30
77.00,0.00,270.44,13.50,-127.75,4.38,1.25,4.69,77.27,4.32
77.00,1.00,274.81,-2.12,-64.44,2.56,-2.81,1.81,77.27,4.32
77.00,2.00,233.88,-10.56,18.69,2.88,-3.25,-2.75,77.27,4.32
77.00,0.00,270.25,13.56,-127.88,4.56,0.69,4.31,77.38,4.34
77.00,1.00,274.81,-2.12,-64.50,2.56,-3.06,1.69,77.38,4.34
77.00,2.00,233.94,-10.50,18.62,2.31,-3.75,-2.62,77.38,4.34
77.00,0.00,270.12,13.62,-128.00,7.19,-1.12,5.56,77.61,4.36
77.00,1.00,274.88,-2.06,-64.56,3.00,-3.50,1.62,77.61,4.36
77.00,2.00,233.94,-10.38,18.56,2.56,-3.50,-2.69,77.61,4.36
77.00,0.00,269.94,13.69,-128.12,6.75,-0.50,5.75,77.79,4.38
77.00,1.00,274.88,-2.00,-64.62,3.06,-4.00,1.62,77.79,4.38
77.00,2.00,234.00,-10.31,18.56,3.25,-4.00,-3.12,77.79,4.38
77.00,0.00,269.75,13.81,-128.25,5.25,0.50,4.38,77.87,4.40
77.00,1.00,274.88,-1.94,-64.69,2.94,-4.19,1.44,77.87,4.40
77.00,2.00,234.06,-10.25,18.50,3.62,-3.94,-3.62,77.87,4.40
77.00,0.00,269.62,13.88,-128.38,6.12,0.19,4.19,78.01,4.42
77.00,1.00,274.94,-1.88,-64.69,3.00,-3.75,1.44,78.01,4.42
77.00,2.00,234.12,-10.12,18.44,3.31,-3.69,-3.06,78.01,4.42
77.00,0.00,269.44,13.94,-128.50,6.75,0.56,4.00,78.20,4.44
77.00,1.00,274.94,-1.81,-64.75,2.69,-4.31,1.38,78.20,4.44
77.00,2.00,234.19,-10.06,18.38,3.00,-4.44,-2.50,78.20,4.44
77.00,0.00,269.25,14.00,-128.69,7.06,0.81,4.12,78.41,4.46
77.00,1.00,274.94,-1.75,-64.81,3.19,-4.44,1.44,78.41,4.46
77.00,2.00,234.19,-9.94,18.31,2.69,-4.38,-2.44,78.41,4.46
77.00,0.00,269.06,14.06,-128.81,6.88,0.75,4.50,78.61,4.48
77.00,1.00,275.00,-1.69,-64.88,2.88,-4.06,1.12,78.61,4.48
77.00,2.00,234.25,-9.88,18.25,3.06,-3.56,-2.94,78.61,4.48
77.00,0.00,268.88,14.12,-129.00,7.00,1.38,5.06,78.78,4.50
77.00,1.00,275.00,-1.69,-64.94,2.44,-3.19,1.06,78.78,4.50
77.00,2.00,234.31,-9.75,18.19,3.56,-3.62,-2.69,78.78,4.50
77.00,0.00,268.62,14.25,-129.12,6.88,1.81,4.25,78.89,4.52
77.00,1.00,275.06,-1.62,-65.00,3.00,-3.00,1.69,78.89,4.52
77.00,2.00,234.38,-9.69,18.12,4.56,-5.06,-2.00,78.89,4.52
77.00,0.00,268.38,14.31,-129.25,6.69,1.06,3.69,78.98,4.54
77.00,1.00,275.06,-1.56,-65.06,3.44,-3.00,1.44,78.98,4.54
77.00,2.00,234.38,-9.56,18.00,4.88,-4.81,-1.25,78.98,4.54
77.00,0.00,268.19,14.38,-129.44,6.44,1.25,3.50,79.10,4.56
77.00,1.00,275.06,-1.50,-65.12,3.50,-2.25,2.06,79.10,4.56
77.00,2.00,234.38,-9.50,17.88,4.19,-4.62,-0.50,79.10,4.56
77.00,0.00,267.94,14.50,-129.56,6.25,1.94,3.25,79.22,4.58
77.00,1.00,275.00,-1.44,-65.25,3.81,-1.94,2.12,79.22,4.58
77.00,2.00,234.38,-9.38,17.81,3.88,-4.69,0.25,79.22,4.58
77.00,0.00,267.62,14.56,-129.75,6.75,2.19,3.31,79.35,4.60
77.00,1.00,275.00,-1.38,-65.38,3.62,-1.19,1.62,79.35,4.60
77.00,2.00,234.38,-9.31,17.69,4.12,-3.12,0.75,79.35,4.60
77.00,0.00,267.31,14.69,-129.94,7.00,2.75,3.62,79.47,4.62
77.00,1.00,274.94,-1.38,-65.44,2.81,-0.12,1.44,79.47,4.62
77.00,2.00,234.31,-9.25,17.56,4.56,-2.69,1.19,79.47,4.62
77.00,0.00,267.00,14.81,-130.12,6.56,3.31,3.62,79.58,4.64
77.00,1.00,274.94,-1.31,-65.50,2.31,1.44,1.44,79.58,4.64
77.00,2.00,234.31,-9.19,17.44,4.31,-3.38,2.38,79.58,4.64
77.00,0.00,266.62,14.88,-130.25,5.19,3.94,3.50,79.69,4.66
77.00,1.00,274.88,-1.31,-65.56,1.75,2.50,1.69,79.69,4.66
77.00,2.00,234.19,-9.12,17.31,3.12,-4.44,3.75,79.69,4.66
77.00,0.00,266.38,15.00,-130.31,2.56,4.38,2.06,79.70,4.68
77.00,1.00,274.75,-1.31,-65.62,1.12,2.81,1.81,79.70,4.68
77.00,2.00,234.12,-9.06,17.19,2.31,-5.12,4.94,79.70,4.68
77.00,0.00,266.19,15.06,-130.38,2.56,3.31,1.88,79.75,4.70
77.00,1.00,274.69,-1.25,-65.69,0.31,3.50,2.12,79.75,4.70
77.00,2.00,234.00,-9.00,17.12,1.56,-4.31,5.38,79.75,4.70
77.00,0.00,265.94,15.12,-130.44,3.31,3.25,3.12,79.88,4.72
77.00,1.00,274.62,-1.25,-65.69,0.19,4.56,1.81,79.88,4.72
77.00,2.00,233.88,-8.94,17.06,0.75,-3.56,5.44,79.88,4.72
77.00,0.00,265.75,15.25,-130.50,3.12,3.88,1.25,80.00,4.74
77.00,1.00,274.50,-1.25,-65.75,-0.19,4.00,1.44,80.00,4.74
77.00,2.00,233.75,-8.94,17.00,0.75,-3.69,6.06,80.00,4.74
77.00,0.00,265.56,15.25,-130.56,3.25,3.25,0.56,80.16,4.76
77.00,1.00,274.44,-1.25,-65.75,-0.81,3.81,1.31,80.16,4.76
77.00,2.00,233.62,-8.88,17.00,-0.06,-2.94,5.81,80.16,4.76
77.00,0.00,265.38,15.31,-130.62,4.62,2.44,-0.62,80.43,4.78
77.00,1.00,274.38,-1.31,-65.75,-1.00,3.50,0.62,80.43,4.78
77.00,2.00,233.50,-8.88,17.00,-0.69,-2.25,5.31,80.43,4.78
77.00,0.00,265.25,15.31,-130.69,5.19,2.19,-1.38,80.73,4.80
77.00,1.00,274.38,-1.31,-65.69,-1.00,2.56,0.44,80.73,4.80
77.00,2.00,233.38,-8.88,17.00,-0.75,-2.38,5.44,80.73,4.80
77.00,0.00,265.12,15.31,-130.81,5.25,2.62,-1.25,80.98,4.82
77.00,1.00,274.31,-1.31,-65.69,-1.25,2.00,0.12,80.98,4.82
77.00,2.00,233.31,-8.81,16.94,0.12,-2.81,5.50,80.98,4.82
77.00,0.00,264.94,15.38,-130.88,5.44,3.38,-0.94,81.22,4.84
77.00,1.00,274.31,-1.38,-65.69,-1.50,1.69,-0.44,81.22,4.84
77.00,2.00,233.19,-8.81,16.94,0.75,-2.81,4.94,81.22,4.84
77.00,0.00,264.75,15.38,-131.00,5.25,3.38,-0.94,81.43,4.86
77.00,1.00,274.25,-1.38,-65.62,-2.19,1.62,-0.56,81.43,4.86
77.00,2.00,233.06,-8.81,16.88,0.94,-2.69,4.50,81.43,4.86
77.00,0.00,264.56,15.38,-131.06,5.12,2.88,-1.06,81.70,4.88
77.00,1.00,274.25,-1.38,-65.56,-2.25,1.69,-0.50,81.70,4.88
77.00,2.00,233.00,-8.75,16.88,-0.25,-2.69,4.44,81.70,4.88
77.00,0.00,264.38,15.44,-131.12,6.12,3.00,-0.56,82.04,4.90
77.00,1.00,274.25,-1.44,-65.56,-2.38,1.44,-0.75,82.04,4.90
77.00,2.00,232.94,-8.75,16.88,-0.50,-2.75,4.06,82.04,4.90
77.00,0.00,264.19,15.50,-131.25,7.00,3.75,0.69,82.43,4.92
77.00,1.00,274.25,-1.44,-65.50,-2.25,1.69,-0.75,82.43,4.92
77.00,2.00,232.81,-8.69,16.88,-0.88,-2.00,3.06,82.43,4.92
77.00,0.00,263.94,15.56,-131.25,4.38,4.81,-1.31,82.67,4.94
77.00,1.00,274.25,-1.50,-65.44,-1.62,0.62,-0.81,82.67,4.94
77.00,2.00,232.75,-8.69,16.94,-0.50,-2.31,2.38,82.67,4.94
77.00,0.00,263.81,15.56,-131.31,3.88,2.88,-2.12,82.81,4.96
77.00,1.00,274.31,-1.50,-65.44,-1.62,0.38,-1.06,82.81,4.96
77.00,2.00,232.75,-8.69,16.94,1.19,-2.88,2.69,82.81,4.96
77.00,0.00,263.62,15.56,-131.38,4.75,2.94,-0.19,82.98,4.98
77.00,1.00,274.31,-1.50,-65.38,-1.25,0.44,-1.06,82.98,4.98
77.00,2.00,232.69,-8.62,16.88,1.44,-2.56,2.88,82.98,4.98
77.00,0.00,263.38,15.62,-131.50,5.81,4.00,2.44,83.19,5.00
77.00,1.00,274.31,-1.56,-65.38,-1.62,1.25,-0.94,83.19,5.00
77.00,2.00,232.62,-8.62,16.88,1.50,-2.38,2.94,83.19,5.00
77.00,0.00,263.06,15.75,-131.56,4.56,5.81,2.50,83.35,5.02
77.00,1.00,274.31,-1.56,-65.31,-1.81,1.50,-0.94,83.35,5.02
77.00,2.00,232.56,-8.62,16.81,1.44,-1.88,2.56,83.35,5.02
77.00,0.00,262.75,15.88,-131.56,1.12,6.69,-0.38,83.36,5.04
77.00,1.00,274.31,-1.62,-65.31,-1.88,2.50,-0.69,83.36,5.04
77.00,2.00,232.50,-8.56,16.81,0.81,-1.75,2.81,83.36,5.04
77.00,0.00,262.62,15.88,-131.56,0.25,3.06,-2.75,83.38,5.06
77.00,1.00,274.31,-1.62,-65.25,-1.75,1.88,-0.38,83.38,5.06
77.00,2.00,232.44,-8.56,16.75,-0.12,-2.06,3.25,83.38,5.06
77.00,0.00,262.62,15.88,-131.62,3.12,-0.25,-0.19,83.57,5.08
77.00,1.00,274.25,-1.62,-65.19,-2.00,1.62,-0.56,83.57,5.08
77.00,2.00,232.38,-8.56,16.75,-0.56,-0.94,2.50,83.57,5.08
77.00,0.00,262.50,15.88,-131.69,4.44,0.62,2.56,83.79,5.10
77.00,1.00,274.25,-1.69,-65.19,-2.00,2.38,-0.88,83.79,5.10
77.00,2.00,232.31,-8.56,16.75,0.00,0.00,1.81,83.79,5.10
77.00,0.00,262.38,15.94,-131.75,3.25,0.69,2.94,83.98,5.12
77.00,1.00,274.25,-1.75,-65.12,-2.38,2.69,-0.81,83.98,5.12
77.00,2.00,232.31,-8.56,16.75,-0.62,-0.06,2.00,83.98,5.12
77.00,0.00,262.31,15.94,-131.81,1.12,0.19,0.94,84.07,5.14
77.00,1.00,274.25,-1.75,-65.06,-1.81,1.88,-0.38,84.07,5.14
77.00,2.00,232.25,-8.62,16.81,-0.56,-0.62,1.75,84.07,5.14
77.00,0.00,262.38,15.94,-131.81,-0.06,-0.81,-1.12,84.06,5.16
77.00,1.00,274.19,-1.81,-65.06,-0.94,1.00,-0.44,84.06,5.16
77.00,2.00,232.19,-8.62,16.81,0.06,-1.19,1.44,84.06,5.16
77.00,0.00,262.50,15.88,-131.75,0.31,-2.38,-0.88,84.08,5.18
77.00,1.00,274.19,-1.81,-65.06,-0.75,0.75,-0.38,84.08,5.18
77.00,2.00,232.19,-8.62,16.81,-0.06,-0.81,0.69,84.08,5.18
77.00,0.00,262.62,15.88,-131.75,1.75,-2.44,0.50,84.19,5.20
77.00,1.00,274.19,-1.81,-65.06,-0.69,0.31,-0.25,84.19,5.20
77.00,2.00,232.19,-8.62,16.88,-0.50,-0.38,-0.06,84.19,5.20
77.00,0.00,262.62,15.88,-131.75,1.69,-0.50,1.56,84.30,5.22
77.00,1.00,274.25,-1.81,-65.00,-0.94,-0.19,-0.44,84.30,5.22
77.00,2.00,232.19,-8.62,16.88,-0.50,-0.31,-0.38,84.30,5.22
77.00,0.00,262.56,15.88,-131.69,-0.12,1.50,0.12,84.31,5.24
77.00,1.00,274.25,-1.88,-65.00,-0.94,-1.12,-0.81,84.31,5.24
77.00,2.00,232.19,-8.62,16.88,-0.31,-0.44,-1.31,84.31,5.24
77.00,0.00,262.56,15.88,-131.69,0.88,1.12,0.00,84.37,5.26
77.00,1.00,274.31,-1.88,-64.94,-1.06,-2.12,-0.81,84.37,5.26
77.00,2.00,232.25,-8.62,16.94,-0.25,-0.12,-2.19,84.37,5.26
77.00,0.00,262.56,15.88,-131.69,0.75,1.06,0.69,84.45,5.28
77.00,1.00,274.38,-1.88,-64.94,-0.56,-2.81,-0.75,84.45,5.28
77.00,2.00,232.31,-8.62,17.00,-0.88,-0.50,-2.12,84.45,5.28
77.00,0.00,262.50,15.94,-131.62,-0.50,1.44,0.12,84.42,5.30
77.00,1.00,274.44,-1.88,-64.94,-0.12,-3.81,-0.75,84.42,5.30
77.00,2.00,232.31,-8.62,17.00,0.06,-0.94,-2.25,84.42,5.30
77.00,0.00,262.50,15.94,-131.56,-1.50,1.88,-0.56,84.26,5.32
77.00,1.00,274.50,-1.88,-64.88,0.50,-4.06,-0.88,84.26,5.32
77.00,2.00,232.38,-8.62,17.00,1.81,-0.19,-2.75,84.26,5.32
77.00,0.00,262.44,15.94,-131.56,-1.31,1.25,0.19,84.10,5.34
77.00,1.00,274.56,-1.88,-64.88,0.44,-3.69,-0.88,84.10,5.34
77.00,2.00,232.44,-8.62,17.00,1.81,-0.69,-2.38,84.10,5.34
77.00,0.00,262.38,15.94,-131.56,-0.69,1.38,0.62,83.97,5.36
77.00,1.00,274.62,-1.88,-64.88,1.12,-3.25,-0.62,83.97,5.36
77.00,2.00,232.50,-8.56,17.00,1.81,-1.00,-1.88,83.97,5.36
77.00,0.00,262.38,16.00,-131.50,0.12,1.00,0.81,83.90,5.38
77.00,1.00,274.69,-1.88,-64.94,1.31,-2.62,-0.19,83.90,5.38
77.00,2.00,232.50,-8.56,16.94,1.62,-0.94,-1.81,83.90,5.38
77.00,0.00,262.31,16.00,-131.50,0.56,0.00,1.12,83.87,5.40
77.00,1.00,274.69,-1.88,-64.94,1.44,-2.38,-0.12,83.87,5.40
77.00,2.00,232.56,-8.56,16.94,1.19,-0.56,-2.25,83.87,5.40
77.00,0.00,262.31,16.00,-131.56,1.19,-0.38,1.25,83.82,5.42
77.00,1.00,274.75,-1.81,-64.94,1.69,-2.25,0.06,83.82,5.42
77.00,2.00,232.62,-8.56,16.94,2.25,-0.62,-2.56,83.82,5.42
77.00,0.00,262.25,16.06,-131.62,1.69,-0.69,1.94,83.72,5.44
77.00,1.00,274.75,-1.81,-65.00,2.06,-2.06,0.06,83.72,5.44
77.00,2.00,232.62,-8.50,16.88,3.56,-0.44,-2.25,83.72,5.44
77.00,0.00,262.19,16.06,-131.69,1.00,-0.81,1.81,83.62,5.46
77.00,1.00,274.81,-1.81,-65.06,2.06,-1.31,0.31,83.62,5.46
77.00,2.00,232.69,-8.50,16.81,3.00,-1.31,-1.06,83.62,5.46
77.00,0.00,262.12,16.06,-131.69,0.88,-0.62,2.12,83.53,5.48
77.00,1.00,274.81,-1.81,-65.06,1.88,-0.75,0.62,83.53,5.48
77.00,2.00,232.69,-8.44,16.75,2.69,-1.62,-0.44,83.53,5.48
77.00,0.00,262.06,16.12,-131.75,0.38,0.44,2.12,83.43,5.50
77.00,1.00,274.81,-1.81,-65.12,1.88,-0.38,0.75,83.43,5.50
77.00,2.00,232.69,-8.44,16.62,2.38,-1.44,0.12,83.43,5.50
77.00,0.00,262.00,16.19,-131.81,2.06,0.06,2.50,83.45,5.52
77.00,1.00,274.75,-1.75,-65.19,1.75,0.69,1.44,83.45,5.52
77.00,2.00,232.69,-8.38,16.62,1.69,-1.50,0.69,83.45,5.52
77.00,0.00,261.88,16.25,-131.88,2.00,0.50,3.62,83.50,5.54
77.00,1.00,274.75,-1.75,-65.25,1.94,1.06,1.75,83.50,5.54
77.00,2.00,232.62,-8.38,16.56,1.06,-2.19,1.06,83.50,5.54
77.00,0.00,261.69,16.31,-131.94,1.00,1.69,2.62,83.48,5.56
77.00,1.00,274.69,-1.69,-65.25,1.81,0.88,1.75,83.48,5.56
77.00,2.00,232.62,-8.31,16.50,1.38,-2.50,1.81,83.48,5.56
77.00,0.00,261.62,16.31,-132.00,0.94,0.88,2.00,83.45,5.58
77.00,1.00,274.62,-1.69,-65.31,1.12,1.31,1.81,83.45,5.58
77.00,2.00,232.56,-8.31,16.44,1.38,-2.50,1.88,83.45,5.58
77.00,0.00,261.56,16.38,-132.00,1.19,0.44,2.00,83.47,5.60
77.00,1.00,274.56,-1.69,-65.38,1.25,1.75,2.06,83.47,5.60
77.00,2.00,232.50,-8.25,16.44,0.94,-2.75,2.38,83.47,5.60
77.00,0.00,261.44,16.44,-132.06,1.62,1.75,1.88,83.52,5.62
77.00,1.00,274.50,-1.62,-65.38,1.12,1.69,2.19,83.52,5.62
77.00,2.00,232.44,-8.19,16.44,0.50,-2.88,2.44,83.52,5.62
77.00,0.00,261.25,16.44,-132.12,2.19,2.19,1.69,83.58,5.64
77.00,1.00,274.44,-1.62,-65.44,0.94,2.00,2.12,83.58,5.64
77.00,2.00,232.44,-8.19,16.38,1.06,-3.00,2.62,83.58,5.64
77.00,0.00,261.12,16.50,-132.12,1.62,2.50,1.50,83.64,5.66
77.00,1.00,274.38,-1.62,-65.44,0.50,1.81,2.31,83.64,5.66
77.00,2.00,232.38,-8.12,16.38,0.50,-3.25,2.94,83.64,5.66
77.00,0.00,260.94,16.56,-132.19,2.06,2.69,1.19,83.76,5.68
77.00,1.00,274.31,-1.56,-65.44,0.38,1.50,2.44,83.76,5.68
77.00,2.00,232.25,-8.06,16.38,-0.50,-3.81,2.88,83.76,5.68
77.00,0.00,260.75,16.62,-132.19,2.38,2.81,1.12,83.93,5.70
77.00,1.00,274.25,-1.56,-65.50,0.19,0.44,2.00,83.93,5.70
77.00,2.00,232.19,-8.00,16.38,-0.94,-3.19,2.62,83.93,5.70
77.00,0.00,260.62,16.69,-132.25,3.12,2.44,1.19,84.15,5.72
77.00,1.00,274.25,-1.50,-65.50,-0.62,0.56,1.38,84.15,5.72
77.00,2.00,232.19,-8.00,16.38,-1.31,-2.69,1.75,84.15,5.72
77.00,0.00,260.44,16.75,-132.31,3.06,2.19,0.88,84.37,5.74
77.00,1.00,274.19,-1.50,-65.44,-1.31,0.94,1.25,84.37,5.74
77.00,2.00,232.12,-7.94,16.44,-1.31,-3.38,1.62,84.37,5.74
77.00,0.00,260.31,16.75,-132.38,2.94,2.38,0.94,84.52,5.76
77.00,1.00,274.19,-1.50,-65.44,-0.69,0.12,1.44,84.52,5.76
77.00,2.00,232.06,-7.88,16.44,-0.06,-3.31,1.44,84.52,5.76
77.00,0.00,260.12,16.81,-132.38,2.12,2.50,1.19,84.58,5.78
77.00,1.00,274.19,-1.44,-65.44,-0.06,-0.25,1.38,84.58,5.78
77.00,2.00,232.06,-7.81,16.44,0.94,-2.81,1.38,84.58,5.78
77.00,0.00,260.06,16.81,-132.38,2.12,2.06,1.50,84.65,5.80
77.00,1.00,274.12,-1.44,-65.44,0.12,0.00,0.81,84.65,5.80
77.00,2.00,232.00,-7.75,16.38,0.69,-2.69,1.56,84.65,5.80
77.00,0.00,259.88,16.94,-132.44,2.12,1.94,1.31,84.74,5.82
77.00,1.00,274.12,-1.44,-65.44,-0.56,0.50,0.62,84.74,5.82
77.00,2.00,232.00,-7.75,16.38,0.50,-2.12,1.62,84.74,5.82
77.00,0.00,259.81,16.94,-132.50,1.25,2.25,0.94,84.78,5.84
77.00,1.00,274.12,-1.44,-65.44,-0.94,0.69,0.50,84.78,5.84
77.00,2.00,231.94,-7.69,16.38,0.38,-2.25,1.19,84.78,5.84
77.00,0.00,259.69,17.00,-132.50,0.94,1.31,0.94,84.84,5.86
77.00,1.00,274.12,-1.44,-65.44,-1.50,0.94,0.38,84.84,5.86
77.00,2.00,231.88,-7.69,16.38,-0.19,-2.12,1.69,84.84,5.86
77.00,0.00,259.62,17.00,-132.50,1.00,0.56,1.75,84.96,5.88
77.00,1.00,274.06,-1.44,-65.38,-1.75,1.25,0.31,84.96,5.88
77.00,2.00,231.88,-7.69,16.38,-1.38,-1.94,2.00,84.96,5.88
77.00,0.00,259.50,17.06,-132.50,0.88,1.19,1.69,85.05,5.90
77.00,1.00,274.06,-1.44,-65.38,-1.25,1.25,0.31,85.05,5.90
77.00,2.00,231.81,-7.62,16.44,-1.06,-1.69,1.88,85.05,5.90
77.00,0.00,259.44,17.06,-132.50,1.06,1.62,0.94,85.10,5.92
77.00,1.00,274.06,-1.50,-65.31,-0.75,1.44,-0.25,85.10,5.92
77.00,2.00,231.81,-7.62,16.44,0.19,-0.19,1.31,85.10,5.92
77.00,0.00,259.38,17.06,-132.56,1.00,1.31,0.44,85.13,5.94
77.00,1.00,274.06,-1.50,-65.31,-1.38,1.56,0.06,85.13,5.94
77.00,2.00,231.75,-7.62,16.44,0.25,-0.38,1.00,85.13,5.94
77.00,0.00,259.31,17.12,-132.56,0.19,0.94,0.44,85.16,5.96
77.00,1.00,274.00,-1.50,-65.31,-0.75,1.62,-0.12,85.16,5.96
77.00,2.00,231.75,-7.62,16.44,-0.25,-1.31,1.62,85.16,5.96
77.00,0.00,259.31,17.12,-132.56,-1.06,0.88,-0.12,85.07,5.98
77.00,1.00,274.00,-1.50,-65.31,-0.50,0.81,-0.50,85.07,5.98
77.00,2.00,231.69,-7.62,16.38,0.62,-1.38,1.75,85.07,5.98
77.00,0.00,259.31,17.12,-132.50,0.50,-0.56,0.06,85.07,6.00
77.00,1.00,274.00,-1.50,-65.31,-0.69,1.19,-0.25,85.07,6.00
77.00,2.00,231.69,-7.62,16.38,0.44,-0.50,1.69,85.07,6.00
77.00,0.00,259.31,17.12,-132.56,1.62,1.12,0.75,85.18,6.02
77.00,1.00,274.00,-1.56,-65.25,-0.62,1.12,-0.06,85.18,6.02
77.00,2.00,231.62,-7.62,16.38,-0.50,-0.50,1.56,85.18,6.02
77.00,0.00,259.19,17.12,-132.56,1.06,1.19,-0.12,85.27,6.04
77.00,1.00,274.00,-1.56,-65.25,-0.62,0.56,-0.25,85.27,6.04
77.00,2.00,231.62,-7.62,16.38,-0.62,-0.38,1.56,85.27,6.04
77.00,0.00,259.19,17.19,-132.56,1.00,0.44,-0.62,85.29,6.06
77.00,1.00,274.00,-1.56,-65.25,-0.69,0.38,-0.69,85.29,6.06
77.00,2.00,231.56,-7.62,16.38,0.50,-0.44,1.00,85.29,6.06
77.00,0.00,259.12,17.12,-132.56,1.62,0.31,-0.31,85.32,6.08
77.00,1.00,274.00,-1.56,-65.25,-0.75,0.25,-1.00,85.32,6.08
77.00,2.00,231.56,-7.62,16.38,1.06,0.06,0.81,85.32,6.08
77.00,0.00,259.12,17.12,-132.62,1.38,0.25,0.44,85.38,6.10
77.00,1.00,274.00,-1.62,-65.25,-0.56,0.75,-0.75,85.38,6.10
77.00,2.00,231.56,-7.62,16.38,0.12,-0.44,1.56,85.38,6.10
77.00,0.00,259.12,17.12,-132.62,1.06,-0.25,0.25,85.45,6.12
77.00,1.00,274.00,-1.62,-65.25,-0.75,0.94,-0.44,85.45,6.12
77.00,2.00,231.50,-7.69,16.38,-0.38,-0.12,1.44,85.45,6.12
77.00,0.00,259.06,17.12,-132.69,1.12,0.75,-0.19,85.52,6.14
77.00,1.00,274.00,-1.62,-65.25,-0.56,1.06,0.12,85.52,6.14
77.00,2.00,231.50,-7.69,16.38,-0.12,-0.62,1.00,85.52,6.14
77.00,0.00,259.06,17.19,-132.69,1.38,0.75,-0.56,85.60,6.16
77.00,1.00,274.00,-1.62,-65.19,-0.75,0.94,0.31,85.60,6.16
77.00,2.00,231.44,-7.69,16.38,-0.38,-0.56,1.00,85.60,6.16
77.00,0.00,259.00,17.19,-132.69,1.69,0.69,-0.19,85.71,6.18
77.00,1.00,274.00,-1.62,-65.19,-0.56,0.56,0.44,85.71,6.18
77.00,2.00,231.44,-7.62,16.38,-0.44,-1.00,1.44,85.71,6.18
77.00,0.00,258.94,17.19,-132.75,1.56,1.44,-0.19,85.76,6.20
77.00,1.00,274.00,-1.62,-65.19,-0.44,0.62,0.06,85.76,6.20
77.00,2.00,231.38,-7.62,16.38,0.50,-1.62,1.75,85.76,6.20
77.00,0.00,258.81,17.19,-132.75,0.12,3.12,-0.12,85.70,6.22
77.00,1.00,274.00,-1.62,-65.19,-0.38,0.38,-0.12,85.70,6.22
77.00,2.00,231.38,-7.62,16.31,1.38,-1.38,2.25,85.70,6.22
77.00,0.00,258.69,17.25,-132.75,-0.56,0.56,0.06,85.64,6.24
77.00,1.00,274.00,-1.69,-65.19,-0.62,1.00,0.06,85.64,6.24
77.00,2.00,231.31,-7.62,16.31,0.62,-1.25,2.81,85.64,6.24
77.00,0.00,258.75,17.25,-132.75,-0.12,-2.38,0.75,85.65,6.26
77.00,1.00,273.94,-1.69,-65.19,-1.25,1.25,0.62,85.65,6.26
77.00,2.00,231.25,-7.62,16.31,-0.25,-1.25,2.00,85.65,6.26
77.00,0.00,258.88,17.19,-132.75,0.00,-2.12,0.38,85.71,6.28
77.00,1.00,273.94,-1.69,-65.12,-1.50,2.00,0.50,85.71,6.28
77.00,2.00,231.25,-7.62,16.31,-1.19,-0.56,1.31,85.71,6.28
77.00,0.00,258.94,17.19,-132.69,0.06,-1.19,0.06,85.80,6.30
77.00,1.00,273.88,-1.69,-65.12,-1.12,1.88,0.81,85.80,6.30
77.00,2.00,231.19,-7.62,16.38,-1.81,0.19,1.50,85.80,6.30
77.00,0.00,259.00,17.19,-132.69,0.44,-0.75,0.12,85.89,6.32
77.00,1.00,273.88,-1.69,-65.12,-1.00,0.94,0.88,85.89,6.32
77.00,2.00,231.19,-7.62,16.38,-1.25,0.06,0.81,85.89,6.32
77.00,0.00,259.00,17.19,-132.69,0.00,-1.25,0.06,85.90,6.34
77.00,1.00,273.88,-1.69,-65.12,-0.50,-0.19,0.19,85.90,6.34
77.00,2.00,231.19,-7.62,16.38,-0.19,0.94,0.25,85.90,6.34
77.00,0.00,259.06,17.12,-132.69,-0.81,-1.19,0.44,85.83,6.36
77.00,1.00,273.88,-1.69,-65.06,-1.00,0.44,-0.62,85.83,6.36
77.00,2.00,231.19,-7.69,16.38,0.56,1.81,-0.06,85.83,6.36
77.00,0.00,259.19,17.12,-132.69,-1.69,-1.38,0.56,85.73,6.38
77.00,1.00,273.88,-1.69,-65.06,-1.31,1.31,-0.31,85.73,6.38
77.00,2.00,231.19,-7.69,16.44,0.25,0.88,0.56,85.73,6.38
77.00,0.00,259.25,17.12,-132.62,-2.38,-1.50,0.81,85.60,6.40
77.00,1.00,273.88,-1.75,-65.06,-0.19,0.31,0.06,85.60,6.40
77.00,2.00,231.19,-7.69,16.44,0.12,0.56,0.06,85.60,6.40
77.00,0.00,259.25,17.12,-132.56,-2.19,-0.06,0.81,85.50,6.42
77.00,1.00,273.88,-1.75,-65.06,-0.06,0.44,0.12,85.50,6.42
77.00,2.00,231.19,-7.69,16.44,-0.12,0.69,0.06,85.50,6.42
77.00,0.00,259.19,17.19,-132.56,-1.38,1.88,0.69,85.45,6.44
77.00,1.00,273.88,-1.75,-65.06,0.06,0.00,0.06,85.45,6.44
77.00,2.00,231.19,-7.75,16.44,-0.38,1.12,-0.38,85.45,6.44
77.00,0.00,259.12,17.19,-132.50,-0.44,1.38,0.31,85.44,6.46
77.00,1.00,273.88,-1.75,-65.06,0.06,0.12,-0.31,85.44,6.46
77.00,2.00,231.19,-7.75,16.44,-0.31,1.12,-0.50,85.44,6.48
77.00,0.00,259.12,17.19,-132.50,0.12,0.06,0.56,85.43,6.48
77.00,1.00,273.88,-1.75,-65.06,0.06,0.31,-0.69,85.43,6.48
77.00,2.00,231.19,-7.75,16.44,0.44,0.88,-0.31,85.43,6.50
77.00,0.00,259.12,17.19,-132.50,0.94,0.62,0.62,85.45,6.50
77.00,1.00,273.88,-1.75,-65.06,0.00,0.12,-0.69,85.45,6.50
77.00,2.00,231.19,-7.81,16.44,0.44,1.00,-0.06,85.45,6.50
77.00,0.00,259.06,17.19,-132.56,1.19,1.00,0.50,85.53,6.52
77.00,1.00,273.88,-1.75,-65.06,0.25,0.31,-0.25,85.53,6.52
77.00,2.00,231.19,-7.81,16.44,-0.31,1.00,0.38,85.53,6.54
77.00,0.00,259.06,17.19,-132.56,1.38,0.56,0.06,85.63,6.54
77.00,1.00,273.88,-1.75,-65.06,0.38,-0.56,0.00,85.63,6.54
77.00,2.00,231.19,-7.81,16.44,-0.69,0.25,-0.12,85.63,6.54
77.00,0.00,259.06,17.19,-132.56,1.50,-1.00,-0.50,85.70,6.56
77.00,1.00,273.88,-1.75,-65.06,0.31,-1.38,-0.31,85.70,6.56
77.00,2.00,231.19,-7.81,16.50,0.12,0.50,-0.31,85.70,6.58
77.00,0.00,259.12,17.19,-132.56,1.50,-1.44,-0.69,85.72,6.58
77.00,1.00,273.94,-1.75,-65.06,1.12,-0.88,-0.38,85.72,6.58
77.00,2.00,231.25,-7.81,16.50,1.12,0.81,-1.56,85.72,6.60
77.00,0.00,259.12,17.12,-132.62,2.12,-0.56,-0.75,85.80,6.60
77.00,1.00,273.94,-1.75,-65.06,1.25,-1.00,-0.50,85.80,6.60
77.00,2.00,231.25,-7.81,16.50,0.44,0.38,-1.56,85.80,6.60
77.00,0.00,259.19,17.12,-132.62,2.31,0.12,-1.31,85.90,6.62
77.00,1.00,273.94,-1.75,-65.06,1.38,-2.31,-0.50,85.90,6.62
77.00,2.00,231.31,-7.81,16.50,0.31,0.56,-2.38,85.90,6.62
