Iteration,IMUNo,OrientationX (deg),OrientationY,OrientationZ,GyroX (20rad/sec),GyroY,GyroZ,Elbow_Pos (rad),Time (sec)
9.00,0.00,223.56,0.50,-106.06,0.38,-0.75,-0.12,0.00,1.02
9.00,1.00,246.62,-2.94,-61.88,-0.12,-0.12,-0.19,0.00,1.02
9.00,2.00,324.31,-15.75,21.38,0.44,-0.19,0.19,0.00,1.02
9.00,0.00,223.56,0.50,-106.06,0.25,-0.81,-0.25,0.00,1.02
9.00,1.00,246.62,-2.94,-61.88,-0.44,-0.19,-0.06,0.00,1.04
9.00,2.00,324.31,-15.75,21.38,0.38,-0.06,-0.06,0.00,1.04
9.00,0.00,223.56,0.50,-106.06,0.19,-0.44,-0.25,-0.01,1.04
9.00,1.00,246.62,-2.94,-61.88,-0.25,-0.06,0.00,-0.01,1.06
9.00,2.00,324.31,-15.75,21.38,0.44,-0.25,-0.19,-0.01,1.06
9.00,0.00,223.56,0.50,-106.06,0.25,0.00,-0.19,-0.01,1.06
9.00,1.00,246.62,-2.94,-61.88,-0.38,-0.12,0.00,-0.01,1.06
9.00,2.00,324.31,-15.75,21.38,0.25,-0.06,0.25,-0.01,1.06
9.00,0.00,223.56,0.50,-106.06,0.12,-0.19,-0.25,-0.01,1.08
9.00,1.00,246.62,-2.94,-61.88,-0.25,0.06,-0.06,-0.01,1.08
9.00,2.00,324.31,-15.75,21.38,0.12,0.00,0.44,-0.01,1.08
9.00,0.00,223.56,0.50,-106.06,0.56,-0.38,-0.12,-0.01,1.10
9.00,1.00,246.62,-2.94,-61.88,-0.06,-0.25,-0.12,-0.01,1.10
9.00,2.00,324.31,-15.75,21.38,0.44,-0.06,0.19,-0.01,1.10
9.00,0.00,223.56,0.50,-106.06,0.19,-0.38,0.06,-0.01,1.12
9.00,1.00,246.62,-2.94,-61.88,-0.38,-0.06,-0.06,-0.01,1.12
9.00,2.00,324.31,-15.75,21.38,0.38,0.00,0.38,-0.01,1.12
9.00,0.00,223.56,0.50,-106.06,0.00,-0.12,-0.06,-0.01,1.14
9.00,1.00,246.62,-2.94,-61.88,-0.31,0.19,-0.06,-0.01,1.14
9.00,2.00,324.31,-15.75,21.38,0.06,0.00,0.50,-0.01,1.14
9.00,0.00,223.56,0.50,-106.06,-0.06,-0.25,0.00,-0.01,1.16
9.00,1.00,246.62,-2.94,-61.88,-0.50,0.19,-0.06,-0.01,1.16
9.00,2.00,324.31,-15.75,21.38,-0.19,-0.44,0.62,-0.01,1.16
9.00,0.00,223.56,0.50,-106.06,0.19,-0.38,-0.06,-0.01,1.18
9.00,1.00,246.62,-2.94,-61.88,-0.56,0.00,-0.06,-0.01,1.18
9.00,2.00,324.31,-15.75,21.38,0.12,-0.12,-0.06,-0.01,1.18
9.00,0.00,223.56,0.50,-106.06,0.12,0.00,0.00,-0.01,1.20
9.00,1.00,246.62,-2.94,-61.88,-0.50,0.25,-0.12,-0.01,1.20
9.00,2.00,324.31,-15.75,21.38,0.50,-0.38,0.00,-0.01,1.20
9.00,0.00,223.56,0.50,-106.06,0.06,0.94,0.00,-0.01,1.22
9.00,1.00,246.62,-2.94,-61.88,-0.62,-0.50,0.12,-0.01,1.22
9.00,2.00,324.31,-15.75,21.38,-0.31,-0.50,0.44,-0.01,1.22
9.00,0.00,223.56,0.50,-106.06,0.06,0.75,0.19,0.00,1.24
9.00,1.00,246.69,-2.94,-61.88,-0.81,-0.94,-0.06,0.00,1.24
9.00,2.00,324.31,-15.75,21.38,-0.50,0.38,0.62,0.00,1.24
9.00,0.00,223.56,0.50,-106.06,0.31,0.62,0.44,0.02,1.26
9.00,1.00,246.69,-2.94,-61.88,-1.19,0.12,-0.69,0.02,1.26
9.00,2.00,324.31,-15.75,21.44,-0.81,0.25,0.12,0.02,1.26
9.00,0.00,223.56,0.50,-106.06,-0.06,0.12,0.50,0.03,1.28
9.00,1.00,246.69,-2.94,-61.81,-1.56,0.75,-0.38,0.03,1.28
9.00,2.00,324.31,-15.75,21.44,-0.69,0.12,-0.12,0.03,1.28
9.00,0.00,223.56,0.50,-106.06,-0.56,-1.19,-0.19,0.02,1.30
9.00,1.00,246.69,-2.94,-61.81,-1.38,0.12,-0.38,0.02,1.30
9.00,2.00,324.31,-15.75,21.44,0.25,-0.19,-0.19,0.02,1.30
9.00,0.00,223.56,0.44,-106.00,-0.94,-0.69,-1.12,0.00,1.32
9.00,1.00,246.69,-2.94,-61.75,-1.12,0.25,0.25,0.00,1.32
9.00,2.00,324.31,-15.75,21.44,0.31,0.06,0.12,0.00,1.32
9.00,0.00,223.62,0.44,-106.00,-0.88,-0.25,-1.00,-0.01,1.34
9.00,1.00,246.69,-2.94,-61.75,-0.69,0.31,0.19,-0.01,1.34
9.00,2.00,324.31,-15.75,21.44,-0.12,0.19,0.56,-0.01,1.34
9.00,0.00,223.62,0.44,-106.00,-0.19,-0.12,-0.69,-0.01,1.36
9.00,1.00,246.69,-2.94,-61.75,-0.88,0.12,0.00,-0.01,1.36
9.00,2.00,324.31,-15.75,21.44,-0.50,0.75,0.50,-0.01,1.36
9.00,0.00,223.62,0.44,-106.00,0.12,-0.62,-0.19,0.00,1.38
9.00,1.00,246.69,-2.94,-61.75,-1.31,0.12,-0.31,0.00,1.38
9.00,2.00,324.31,-15.75,21.44,-0.31,0.25,0.00,0.00,1.38
9.00,0.00,223.62,0.44,-106.00,0.25,-0.50,-0.31,0.00,1.40
9.00,1.00,246.69,-2.94,-61.69,-1.44,0.12,-0.56,0.00,1.40
9.00,2.00,324.31,-15.75,21.44,0.31,0.62,-0.44,0.00,1.40
9.00,0.00,223.62,0.44,-106.00,-0.25,0.19,-0.69,-0.01,1.42
9.00,1.00,246.69,-2.94,-61.69,-1.69,0.00,-0.62,-0.01,1.42
9.00,2.00,324.31,-15.75,21.44,0.12,0.69,0.06,-0.01,1.42
9.00,0.00,223.62,0.44,-106.00,-0.50,0.62,-0.81,-0.01,1.44
9.00,1.00,246.69,-2.94,-61.62,-1.38,0.31,-0.38,-0.01,1.44
9.00,2.00,324.31,-15.75,21.44,-0.50,0.00,0.62,-0.01,1.44
9.00,0.00,223.62,0.38,-106.00,-0.62,0.75,-0.50,-0.01,1.46
9.00,1.00,246.69,-2.94,-61.62,-1.19,0.25,-0.25,-0.01,1.46
9.00,2.00,324.25,-15.75,21.44,-0.44,0.19,1.06,-0.01,1.46
9.00,0.00,223.62,0.38,-106.00,-0.31,0.31,-0.25,-0.01,1.48
9.00,1.00,246.69,-2.94,-61.56,-1.50,0.38,-0.19,-0.01,1.48
9.00,2.00,324.25,-15.81,21.44,-0.44,0.50,0.75,-0.01,1.48
9.00,0.00,223.62,0.38,-106.00,-0.44,-0.44,-0.06,-0.01,1.50
9.00,1.00,246.69,-2.94,-61.56,-1.31,0.81,-0.12,-0.01,1.50
9.00,2.00,324.25,-15.81,21.44,-0.69,0.38,0.38,-0.01,1.50
9.00,0.00,223.62,0.38,-106.00,-0.69,-0.69,-0.25,-0.01,1.52
9.00,1.00,246.69,-2.94,-61.56,-1.25,0.25,-0.31,-0.01,1.52
9.00,2.00,324.25,-15.81,21.44,-0.56,0.31,0.56,-0.01,1.52
9.00,0.00,223.62,0.38,-106.00,-0.50,-0.06,-0.69,-0.02,1.54
9.00,1.00,246.69,-2.94,-61.50,-1.31,0.25,-0.38,-0.02,1.54
9.00,2.00,324.25,-15.81,21.44,0.00,0.56,0.62,-0.02,1.54
9.00,0.00,223.62,0.38,-106.00,-0.69,0.38,-0.81,-0.02,1.56
9.00,1.00,246.69,-2.94,-61.50,-1.06,0.25,-0.19,-0.02,1.56
9.00,2.00,324.19,-15.81,21.44,-0.31,0.56,0.88,-0.02,1.56
9.00,0.00,223.69,0.38,-106.00,-0.44,0.25,-0.75,-0.02,1.58
9.00,1.00,246.62,-2.94,-61.44,-1.06,0.25,0.00,-0.02,1.58
9.00,2.00,324.19,-15.81,21.44,-0.69,0.12,1.25,-0.02,1.58
9.00,0.00,223.69,0.38,-106.00,-0.44,-0.25,-0.56,-0.02,1.60
9.00,1.00,246.62,-2.94,-61.44,-0.75,0.50,-0.25,-0.02,1.60
9.00,2.00,324.19,-15.81,21.44,-0.38,0.31,0.81,-0.02,1.60
9.00,0.00,223.69,0.38,-106.00,0.19,-0.31,-0.62,-0.02,1.62
9.00,1.00,246.62,-2.94,-61.44,-0.81,0.25,-0.38,-0.02,1.62
9.00,2.00,324.19,-15.81,21.44,0.38,0.81,0.25,-0.02,1.62
9.00,0.00,223.69,0.31,-106.00,0.38,-0.12,-0.81,-0.02,1.64
9.00,1.00,246.62,-2.94,-61.44,-0.94,0.25,-0.31,-0.02,1.64
9.00,2.00,324.19,-15.88,21.44,0.25,0.62,0.38,-0.02,1.64
9.00,0.00,223.75,0.31,-106.00,0.12,-0.12,-1.00,-0.02,1.66
9.00,1.00,246.62,-2.94,-61.38,-0.94,0.50,-0.31,-0.02,1.66
9.00,2.00,324.19,-15.88,21.44,-0.19,0.06,0.75,-0.02,1.66
9.00,0.00,223.75,0.31,-106.00,0.25,-0.06,-1.00,-0.01,1.68
9.00,1.00,246.62,-2.94,-61.38,-0.88,0.69,-0.06,-0.01,1.68
9.00,2.00,324.12,-15.88,21.44,0.12,0.00,0.81,-0.01,1.68
9.00,0.00,223.75,0.31,-106.00,0.62,0.12,-0.62,-0.01,1.70
9.00,1.00,246.62,-2.94,-61.38,-0.19,0.56,0.12,-0.01,1.70
9.00,2.00,324.12,-15.88,21.44,0.31,-0.06,0.69,-0.01,1.70
9.00,0.00,223.75,0.31,-106.00,0.81,0.44,-0.44,0.00,1.72
9.00,1.00,246.62,-2.94,-61.38,-0.62,0.31,0.06,0.00,1.72
9.00,2.00,324.12,-15.88,21.38,0.38,-0.25,0.56,0.00,1.72
9.00,0.00,223.75,0.31,-106.00,0.88,0.88,-0.12,0.01,1.74
9.00,1.00,246.62,-2.94,-61.38,-0.38,0.06,-0.06,0.01,1.74
9.00,2.00,324.12,-15.88,21.38,0.38,-0.38,0.50,0.01,1.74
9.00,0.00,223.69,0.31,-106.00,0.75,1.00,-0.06,0.00,1.76
9.00,1.00,246.62,-2.94,-61.38,-0.69,0.12,-0.06,0.00,1.76
9.00,2.00,324.12,-15.88,21.38,0.94,-0.44,0.44,0.00,1.76
9.00,0.00,223.69,0.31,-106.06,0.81,1.12,0.00,0.01,1.78
9.00,1.00,246.62,-2.94,-61.38,-0.69,0.50,0.12,0.01,1.78
9.00,2.00,324.12,-15.88,21.38,0.69,-0.38,0.56,0.01,1.78
9.00,0.00,223.69,0.31,-106.06,0.56,0.81,0.19,-0.01,1.80
9.00,1.00,246.62,-3.00,-61.31,-0.69,0.75,0.44,-0.01,1.80
9.00,2.00,324.12,-15.88,21.38,1.50,-1.38,0.56,-0.01,1.80
9.00,0.00,223.62,0.31,-106.06,0.25,0.75,0.31,-0.07,1.82
9.00,1.00,246.62,-3.00,-61.31,-0.75,1.38,0.44,-0.07,1.82
9.00,2.00,324.12,-15.81,21.25,4.06,-2.19,-0.06,-0.07,1.82
9.00,0.00,223.62,0.31,-106.06,0.25,1.62,0.31,-0.15,1.84
9.00,1.00,246.62,-3.00,-61.31,-0.94,1.50,0.56,-0.15,1.84
9.00,2.00,324.12,-15.81,21.25,5.12,-2.12,-0.44,-0.15,1.84
9.00,0.00,223.50,0.31,-106.06,0.88,3.06,0.56,-0.21,1.86
9.00,1.00,246.56,-3.00,-61.31,-0.94,1.31,0.69,-0.21,1.86
9.00,2.00,324.12,-15.75,21.12,4.56,-3.31,0.19,-0.21,1.86
9.00,0.00,223.38,0.38,-106.12,2.25,4.62,1.19,-0.25,1.88
9.00,1.00,246.56,-3.00,-61.31,-0.50,2.06,0.62,-0.25,1.88
9.00,2.00,324.12,-15.69,21.00,4.44,-4.38,1.56,-0.25,1.88
9.00,0.00,223.19,0.44,-106.19,3.44,6.12,2.12,-0.27,1.90
9.00,1.00,246.50,-3.00,-61.31,-0.56,2.12,1.12,-0.27,1.90
9.00,2.00,324.06,-15.62,20.88,5.00,-4.88,1.75,-0.27,1.90
9.00,0.00,222.94,0.56,-106.38,5.69,7.50,2.81,-0.32,1.92
9.00,1.00,246.44,-3.00,-61.31,-1.44,1.31,0.94,-0.32,1.92
9.00,2.00,324.06,-15.50,20.69,8.88,-5.06,0.12,-0.32,1.92
9.00,0.00,222.62,0.69,-106.50,9.19,9.50,3.62,-0.30,1.94
9.00,1.00,246.44,-3.00,-61.31,-1.69,1.81,0.69,-0.30,1.94
9.00,2.00,324.06,-15.44,20.50,7.56,-4.06,0.94,-0.30,1.94
9.00,0.00,222.19,0.88,-106.81,13.12,11.94,5.06,-0.14,1.96
9.00,1.00,246.44,-3.06,-61.25,-2.25,2.38,0.19,-0.14,1.96
9.00,2.00,324.00,-15.38,20.50,3.75,-5.75,3.56,-0.14,1.96
9.00,0.00,221.69,1.06,-107.19,18.19,13.50,6.62,0.09,1.98
9.00,1.00,246.38,-3.12,-61.25,-1.56,2.00,-0.38,0.09,1.98
9.00,2.00,323.88,-15.31,20.31,4.00,-6.50,4.44,0.09,1.98
9.00,0.00,221.12,1.31,-107.62,24.12,13.75,8.44,0.44,2.00
9.00,1.00,246.38,-3.12,-61.19,-1.00,0.75,-0.25,0.44,2.00
9.00,2.00,323.81,-15.19,20.31,2.19,-6.06,3.38,0.44,2.00
9.00,0.00,220.62,1.56,-108.19,31.62,13.31,9.69,0.89,2.02
9.00,1.00,246.38,-3.12,-61.19,-0.38,-0.56,-0.88,0.89,2.02
9.00,2.00,323.75,-15.19,20.31,3.94,-3.44,2.38,0.89,2.02
9.00,0.00,219.94,1.88,-108.94,39.81,15.12,11.25,1.45,2.04
9.00,1.00,246.44,-3.12,-61.19,0.06,-1.19,-1.88,1.45,2.04
9.00,2.00,323.69,-15.12,20.19,5.50,-2.88,3.00,1.45,2.04
9.00,0.00,219.38,2.19,-109.81,46.56,16.06,12.50,2.11,2.06
9.00,1.00,246.50,-3.19,-61.19,0.00,-1.00,-2.31,2.11,2.06
9.00,2.00,323.69,-15.12,20.12,6.19,-3.50,4.06,2.11,2.06
9.00,0.00,218.56,2.50,-110.75,52.88,16.56,13.50,2.89,2.08
9.00,1.00,246.56,-3.19,-61.19,0.06,-0.69,-2.25,2.89,2.08
9.00,2.00,323.56,-15.06,19.94,4.88,-4.75,5.38,2.89,2.08
9.00,0.00,218.06,2.88,-111.88,58.50,15.06,14.56,3.78,2.10
9.00,1.00,246.56,-3.25,-61.19,0.12,-0.62,-1.62,3.78,2.10
9.00,2.00,323.44,-15.00,19.81,3.25,-4.38,5.62,3.78,2.10
9.00,0.00,217.31,3.25,-113.12,64.75,12.06,15.69,4.79,2.12
9.00,1.00,246.62,-3.25,-61.25,0.06,-1.12,-1.38,4.79,2.12
9.00,2.00,323.38,-15.00,19.75,3.00,-4.81,6.50,4.79,2.12
9.00,0.00,216.56,3.62,-114.44,69.31,10.00,15.62,5.84,2.14
9.00,1.00,246.69,-3.31,-61.25,-0.06,-0.69,-1.81,5.84,2.14
9.00,2.00,323.12,-14.94,19.62,4.25,-5.75,7.19,5.84,2.14
9.00,0.00,216.06,3.94,-115.81,71.75,6.88,12.94,6.92,2.16
9.00,1.00,246.69,-3.31,-61.25,-0.12,-0.12,-1.75,6.92,2.16
9.00,2.00,323.06,-14.88,19.50,5.50,-5.12,7.38,6.92,2.16
9.00,0.00,215.50,4.19,-117.25,74.50,5.31,11.62,8.12,2.18
9.00,1.00,246.75,-3.31,-61.25,-0.12,0.75,-0.56,8.12,2.18
9.00,2.00,322.81,-14.81,19.38,0.81,-4.00,9.00,8.12,2.18
9.00,0.00,214.81,4.44,-118.69,76.62,5.62,10.88,9.40,2.20
9.00,1.00,246.69,-3.38,-61.25,-2.38,2.25,0.62,9.40,2.20
9.00,2.00,322.62,-14.81,19.31,-2.31,-5.00,11.19,9.40,2.20
9.00,0.00,214.19,4.62,-120.19,77.88,5.56,9.94,10.74,2.22
9.00,1.00,246.69,-3.38,-61.25,-2.06,3.06,1.00,10.74,2.22
9.00,2.00,322.50,-14.81,19.31,-5.06,-5.50,12.19,10.74,2.22
9.00,0.00,213.56,4.88,-121.69,77.19,7.50,9.88,12.14,2.24
9.00,1.00,246.62,-3.38,-61.25,-0.12,2.94,1.12,12.14,2.24
9.00,2.00,321.94,-14.81,19.44,-8.50,-9.06,16.12,12.14,2.24
9.00,0.00,212.75,5.12,-123.12,74.69,10.88,8.62,13.48,2.26
9.00,1.00,246.56,-3.38,-61.31,1.19,3.69,1.25,13.48,2.26
9.00,2.00,321.75,-14.75,19.44,-8.25,-8.50,16.81,13.48,2.26
9.00,0.00,211.88,5.38,-124.56,75.31,9.94,9.44,14.83,2.28
9.00,1.00,246.50,-3.44,-61.38,-0.56,4.50,1.50,14.83,2.28
9.00,2.00,321.25,-14.69,19.50,-7.69,-5.88,15.69,14.83,2.28
9.00,0.00,210.94,5.69,-126.12,78.44,7.50,14.56,16.23,2.30
9.00,1.00,246.38,-3.44,-61.38,-1.62,4.94,1.81,16.23,2.30
9.00,2.00,320.94,-14.69,19.56,-7.69,-6.50,13.44,16.23,2.30
9.00,0.00,210.06,6.00,-127.62,75.44,5.50,12.56,17.57,2.32
9.00,1.00,246.31,-3.50,-61.44,-1.50,5.94,2.12,17.57,2.32
9.00,2.00,320.75,-14.69,19.62,-7.19,-8.19,13.12,17.57,2.32
9.00,0.00,209.31,6.19,-129.00,72.06,3.69,8.31,18.91,2.34
9.00,1.00,246.19,-3.50,-61.38,-6.06,5.44,3.00,18.91,2.34
9.00,2.00,320.31,-14.56,19.75,-10.19,-6.56,12.44,18.91,2.34
9.00,0.00,208.62,6.31,-130.38,70.19,3.31,6.44,20.28,2.36
9.00,1.00,246.06,-3.50,-61.31,-8.06,4.44,3.25,20.28,2.36
9.00,2.00,320.19,-14.56,19.81,-14.38,-5.62,10.62,20.28,2.36
9.00,0.00,208.06,6.38,-131.69,67.44,0.69,3.38,21.48,2.38
9.00,1.00,245.94,-3.50,-61.19,-6.25,4.44,2.62,21.48,2.38
9.00,2.00,319.88,-14.56,20.00,-6.44,-6.88,14.38,21.48,2.38
9.00,0.00,207.56,6.38,-133.00,65.69,-3.00,1.88,22.65,2.40
9.00,1.00,245.88,-3.50,-61.12,-3.62,4.75,1.56,22.65,2.40
9.00,2.00,319.38,-14.50,20.06,-6.19,-6.75,14.75,22.65,2.40
9.00,0.00,207.31,6.31,-134.25,64.50,-7.19,2.12,23.80,2.42
9.00,1.00,245.81,-3.56,-61.06,-2.94,5.19,1.25,23.80,2.42
9.00,2.00,319.25,-14.50,20.06,-6.62,-5.62,13.94,23.80,2.42
9.00,0.00,45.12,6.25,-135.50,62.62,-8.38,1.44,24.87,2.44
9.00,1.00,245.69,-3.56,-61.00,-5.19,4.50,1.19,24.87,2.44
9.00,2.00,318.88,-14.50,20.12,-3.19,-3.19,10.31,24.87,2.44
9.00,0.00,45.19,6.12,-136.69,60.31,-9.62,-0.12,25.94,2.46
9.00,1.00,245.62,-3.62,-60.94,-6.44,4.44,0.81,25.94,2.46
9.00,2.00,318.81,-14.50,20.12,-5.19,0.19,9.06,25.94,2.46
9.00,0.00,45.19,5.94,-137.88,59.94,-11.56,-0.81,27.03,2.48
9.00,1.00,245.62,-3.69,-60.81,-7.25,3.56,0.00,27.03,2.48
9.00,2.00,318.56,-14.62,20.19,-7.31,-0.06,9.38,27.03,2.48
9.00,0.00,44.94,5.75,-139.06,60.81,-13.19,-0.06,28.12,2.50
9.00,1.00,245.56,-3.75,-60.69,-6.50,3.94,-0.94,28.12,2.50
9.00,2.00,318.31,-14.69,20.31,-6.25,-0.31,8.88,28.12,2.50
9.00,0.00,44.94,5.56,-140.25,60.31,-14.25,-0.94,29.19,2.52
9.00,1.00,245.56,-3.81,-60.56,-6.88,3.12,-0.88,29.19,2.52
9.00,2.00,318.19,-14.75,20.38,-5.38,-0.06,8.50,29.19,2.52
9.00,0.00,44.94,5.31,-141.38,58.88,-16.00,-2.38,30.21,2.54
9.00,1.00,245.56,-3.81,-60.44,-6.00,2.25,-1.12,30.21,2.54
9.00,2.00,318.00,-14.81,20.44,-4.00,-1.06,6.62,30.21,2.54
9.00,0.00,45.00,5.00,-142.56,57.94,-18.94,-2.62,31.18,2.56
9.00,1.00,245.56,-3.88,-60.38,-4.50,2.19,-1.81,31.18,2.56
9.00,2.00,317.94,-14.81,20.50,-1.94,-1.75,5.94,31.18,2.56
9.00,0.00,45.00,4.62,-143.69,56.88,-20.50,-2.44,32.17,2.58
9.00,1.00,245.56,-3.94,-60.25,-5.69,1.31,-1.75,32.17,2.58
9.00,2.00,317.75,-14.81,20.56,-4.38,-1.75,5.19,32.17,2.58
9.00,0.00,45.00,4.44,-144.19,54.81,-21.44,-3.69,33.11,2.60
9.00,1.00,245.56,-4.00,-60.19,-4.38,0.94,-1.81,33.11,2.60
9.00,2.00,317.62,-14.81,20.62,-2.69,-4.19,5.12,33.11,2.60
9.00,0.00,45.06,4.06,-145.31,53.75,-19.62,-4.25,34.00,2.62
9.00,1.00,245.62,-4.06,-60.06,-4.31,0.19,-1.69,34.00,2.62
9.00,2.00,317.56,-14.75,20.62,-1.12,-4.44,4.44,34.00,2.62
9.00,0.00,45.00,3.75,-146.31,50.50,-17.12,-4.81,34.88,2.64
9.00,1.00,245.69,-4.12,-60.06,-4.19,0.31,-2.62,34.88,2.64
9.00,2.00,317.44,-14.69,20.69,-3.81,-3.94,2.69,34.88,2.64
9.00,0.00,44.69,3.44,-147.31,49.00,-16.25,-4.88,35.74,2.66
9.00,1.00,245.69,-4.12,-59.94,-4.69,0.94,-2.25,35.74,2.66
9.00,2.00,317.44,-14.69,20.69,-3.88,-4.31,2.94,35.74,2.66
9.00,0.00,44.69,3.12,-148.25,50.69,-16.00,-2.44,36.65,2.68
9.00,1.00,245.75,-4.19,-59.88,-3.12,0.19,-1.62,36.65,2.68
9.00,2.00,317.25,-14.56,20.81,-5.19,-4.94,4.25,36.65,2.68
9.00,0.00,44.69,2.81,-149.25,49.31,-13.12,-0.31,37.59,2.70
9.00,1.00,245.75,-4.25,-59.81,-3.50,0.19,-1.44,37.59,2.70
9.00,2.00,317.12,-14.50,20.94,-8.69,-8.81,3.38,37.59,2.70
9.00,0.00,44.75,2.69,-150.06,45.38,-9.00,-1.50,38.43,2.72
9.00,1.00,245.81,-4.25,-59.75,-3.12,0.19,-0.94,38.43,2.72
9.00,2.00,317.06,-14.44,21.00,-6.38,-9.94,2.25,38.43,2.72
9.00,0.00,44.75,2.56,-150.62,42.44,-6.12,-2.12,39.27,2.74
9.00,1.00,245.81,-4.25,-59.75,-2.94,0.94,-0.69,39.27,2.74
9.00,2.00,317.00,-14.12,21.25,-9.19,-9.88,0.88,39.27,2.74
9.00,0.00,44.50,2.50,-151.31,41.31,-5.06,-2.38,40.04,2.76
9.00,1.00,245.81,-4.31,-59.69,-2.69,0.06,-0.81,40.04,2.76
9.00,2.00,316.94,-14.06,21.31,-6.25,-11.00,0.75,40.04,2.76
9.00,0.00,44.50,2.38,-152.06,38.88,-6.25,-2.12,40.82,2.78
9.00,1.00,245.81,-4.31,-59.69,-3.50,-0.62,-1.12,40.82,2.78
9.00,2.00,316.81,-13.81,21.50,-8.81,-9.44,0.62,40.82,2.78
9.00,0.00,44.44,2.25,-152.81,37.94,-7.38,-1.69,41.61,2.80
9.00,1.00,245.88,-4.38,-59.62,-4.81,-0.56,-2.00,41.61,2.80
9.00,2.00,316.75,-13.62,21.69,-11.06,-10.56,-0.44,41.61,2.80
9.00,0.00,44.38,2.12,-153.50,34.81,-6.12,-3.88,42.38,2.82
9.00,1.00,245.94,-4.38,-59.56,-4.06,-1.00,-2.62,42.38,2.82
9.00,2.00,316.75,-13.50,21.81,-12.38,-9.31,-0.88,42.38,2.82
9.00,0.00,44.31,2.00,-154.19,32.94,-5.81,-5.56,43.01,2.84
9.00,1.00,246.00,-4.44,-59.50,-3.56,-2.56,-2.94,43.01,2.84
9.00,2.00,316.75,-13.25,22.06,-5.94,-9.12,-3.00,43.01,2.84
9.00,0.00,44.06,1.81,-154.75,33.12,-7.00,-5.56,43.65,2.86
9.00,1.00,246.12,-4.50,-59.44,-3.81,-2.56,-3.06,43.65,2.86
9.00,2.00,316.75,-13.19,22.12,-6.25,-6.75,-4.06,43.65,2.86
9.00,0.00,44.00,1.62,-155.38,32.25,-7.50,-4.88,44.30,2.88
9.00,1.00,246.19,-4.50,-59.38,-4.69,-4.06,-3.06,44.30,2.88
9.00,2.00,316.81,-12.94,22.31,-7.81,-5.75,-3.00,44.30,2.88
9.00,0.00,43.94,1.44,-156.00,32.06,-6.25,-5.12,44.92,2.90
9.00,1.00,246.31,-4.50,-59.31,-2.88,-3.31,-4.25,44.92,2.90
9.00,2.00,316.81,-12.88,22.44,-5.94,-4.62,-2.62,44.92,2.90
9.00,0.00,43.75,1.31,-156.62,31.50,-3.75,-6.75,45.50,2.92
9.00,1.00,246.44,-4.56,-59.31,-2.56,-2.38,-4.94,45.50,2.92
9.00,2.00,316.81,-12.81,22.50,-4.44,-3.94,-4.00,45.50,2.92
9.00,0.00,43.56,1.19,-157.19,29.50,-4.25,-8.19,46.08,2.94
9.00,1.00,246.56,-4.62,-59.25,-3.75,-3.44,-5.00,46.08,2.94
9.00,2.00,316.88,-12.69,22.69,-6.06,-2.06,-3.38,46.08,2.94
9.00,0.00,43.31,1.06,-157.75,29.31,-5.56,-7.69,46.65,2.96
9.00,1.00,246.69,-4.69,-59.25,-3.38,-3.81,-5.00,46.65,2.96
9.00,2.00,316.94,-12.62,22.75,-5.94,-1.44,-2.62,46.65,2.96
9.00,0.00,43.25,0.88,-158.38,29.38,-6.62,-4.50,47.21,2.98
9.00,1.00,246.81,-4.75,-59.19,-4.12,-2.12,-5.81,47.21,2.98
9.00,2.00,316.94,-12.56,22.88,-4.88,-3.25,-2.69,47.21,2.98
9.00,0.00,43.19,0.75,-158.88,25.94,-4.19,-4.38,47.72,3.00
9.00,1.00,246.94,-4.81,-59.19,-5.38,-1.56,-5.69,47.72,3.00
9.00,2.00,317.00,-12.50,22.94,-5.25,-2.88,-2.94,47.72,3.00
9.00,0.00,42.75,0.62,-159.31,22.88,-4.31,-6.75,48.21,3.02
9.00,1.00,247.06,-4.88,-59.12,-6.38,-1.88,-5.25,48.21,3.02
9.00,2.00,317.00,-12.44,23.06,-7.56,-1.12,-1.56,48.21,3.02
9.00,0.00,42.62,0.50,-159.75,22.06,-5.06,-5.44,48.70,3.04
9.00,1.00,247.19,-4.94,-59.06,-7.25,-1.06,-5.12,48.70,3.04
9.00,2.00,317.00,-12.44,23.25,-8.25,-0.31,0.69,48.70,3.04
9.00,0.00,42.38,0.44,-160.12,19.12,-1.44,-4.31,49.15,3.06
9.00,1.00,247.25,-5.06,-58.94,-8.25,-0.69,-4.62,49.15,3.06
9.00,2.00,316.94,-12.44,23.31,-8.25,-0.31,1.38,49.15,3.06
9.00,0.00,42.25,0.44,-160.38,12.88,2.88,-5.94,49.47,3.08
9.00,1.00,247.31,-5.12,-58.88,-8.50,0.75,-4.06,49.47,3.08
9.00,2.00,316.88,-12.38,23.44,-7.00,-2.44,1.00,49.47,3.08
9.00,0.00,42.12,0.44,-160.56,8.56,0.94,-6.19,49.77,3.10
9.00,1.00,247.31,-5.12,-58.75,-10.88,1.19,-2.88,49.77,3.10
9.00,2.00,316.81,-12.38,23.50,-10.00,-0.25,0.81,49.77,3.10
9.00,0.00,41.69,0.44,-160.62,-0.69,0.94,-8.69,49.98,3.12
9.00,1.00,247.38,-5.19,-58.62,-12.88,-0.31,-2.31,49.98,3.12
9.00,2.00,316.81,-12.44,23.75,-13.38,3.06,1.25,49.98,3.12
9.00,0.00,41.50,0.31,-160.56,-3.19,-3.94,-6.75,50.09,3.14
9.00,1.00,247.38,-5.25,-58.44,-14.62,0.56,-2.25,50.09,3.14
9.00,2.00,316.75,-12.50,24.06,-10.31,5.69,0.56,50.09,3.14
9.00,0.00,41.25,0.19,-160.44,-6.31,-7.81,-1.31,50.18,3.16
9.00,1.00,247.38,-5.25,-58.19,-16.44,2.00,-1.00,50.18,3.16
9.00,2.00,316.75,-12.56,24.19,-11.94,6.75,0.94,50.18,3.16
9.00,0.00,41.25,0.00,-160.19,-17.69,-6.75,-3.81,50.24,3.18
9.00,1.00,247.31,-5.25,-57.94,-17.94,2.81,0.25,50.24,3.18
9.00,2.00,316.69,-12.81,24.62,-21.38,9.88,3.88,50.24,3.18
9.00,0.00,41.06,-0.06,-159.69,-26.12,-5.75,-9.12,50.20,3.20
9.00,1.00,247.25,-5.31,-57.62,-18.75,3.81,-0.12,50.20,3.20
9.00,2.00,316.62,-12.94,24.88,-23.50,10.88,4.12,50.20,3.20
9.00,0.00,40.62,-0.25,-159.12,-31.38,-4.38,-9.62,49.99,3.22
9.00,1.00,247.19,-5.38,-57.31,-18.44,3.56,-0.94,49.99,3.22
9.00,2.00,316.56,-13.19,25.31,-18.44,12.38,1.38,49.99,3.22
9.00,0.00,40.50,-0.38,-158.38,-36.31,-4.31,-7.94,49.74,3.24
9.00,1.00,247.12,-5.44,-57.00,-19.56,4.56,-0.31,49.74,3.24
9.00,2.00,316.56,-13.56,25.88,-21.12,15.00,0.94,49.74,3.24
9.00,0.00,40.12,-0.50,-157.62,-40.31,-4.06,-6.81,49.48,3.26
9.00,1.00,247.06,-5.44,-56.69,-21.00,4.50,-0.19,49.48,3.26
9.00,2.00,316.50,-13.69,26.12,-23.94,15.94,1.19,49.48,3.26
9.00,0.00,40.00,-0.62,-156.75,-45.00,-3.00,-8.81,49.15,3.28
9.00,1.00,247.00,-5.50,-56.31,-22.56,3.25,-0.19,49.15,3.28
9.00,2.00,316.50,-14.12,26.94,-24.88,16.75,1.31,49.15,3.28
9.00,0.00,39.81,-0.81,-155.94,-42.75,-7.06,-9.62,48.85,3.30
9.00,1.00,246.94,-5.56,-55.88,-23.50,3.06,-0.69,48.85,3.30
9.00,2.00,316.50,-14.31,27.19,-23.94,17.12,0.56,48.85,3.30
9.00,0.00,39.44,-1.00,-155.19,-37.88,-10.94,-4.88,48.64,3.32
9.00,1.00,246.94,-5.62,-55.50,-23.94,3.25,-0.94,48.64,3.32
9.00,2.00,316.50,-14.62,27.69,-25.31,19.75,2.00,48.64,3.32
9.00,0.00,39.38,-1.25,-154.44,-40.19,-10.75,-6.31,48.38,3.34
9.00,1.00,246.88,-5.69,-55.06,-25.12,3.75,0.00,48.38,3.34
9.00,2.00,316.50,-15.12,28.44,-23.88,20.56,2.69,48.38,3.34
9.00,0.00,39.12,-1.50,-153.62,-42.06,-10.12,-10.25,48.08,3.36
9.00,1.00,246.75,-5.69,-54.56,-25.56,4.31,0.12,48.08,3.36
9.00,2.00,316.50,-15.31,28.69,-23.88,21.44,3.31,48.08,3.36
9.00,0.00,39.00,-1.81,-152.81,-40.81,-11.31,-10.81,47.82,3.38
9.00,1.00,246.69,-5.75,-54.06,-25.12,5.38,-0.38,47.82,3.38
9.00,2.00,316.44,-15.75,29.19,-25.00,20.44,4.31,47.82,3.38
9.00,0.00,38.81,-2.12,-152.06,-39.75,-12.44,-10.94,47.62,3.40
9.00,1.00,246.62,-5.81,-53.62,-23.88,4.38,-1.44,47.62,3.40
9.00,2.00,316.38,-16.12,29.69,-27.12,18.00,5.12,47.62,3.40
9.00,0.00,38.44,-2.44,-151.25,-40.69,-13.06,-11.31,47.33,3.42
9.00,1.00,246.62,-5.88,-53.19,-23.38,4.12,-2.44,47.33,3.42
9.00,2.00,316.31,-16.44,30.19,-22.69,17.31,4.31,47.33,3.42
9.00,0.00,38.31,-2.75,-150.50,-39.75,-12.56,-8.56,46.90,3.44
9.00,1.00,246.56,-6.00,-52.75,-24.06,5.69,-2.62,46.90,3.44
9.00,2.00,316.31,-16.94,30.75,-13.75,16.94,1.44,46.90,3.44
9.00,0.00,38.12,-3.00,-149.69,-39.69,-9.75,-5.38,46.50,3.46
9.00,1.00,246.50,-6.12,-52.25,-24.88,6.81,-2.00,46.50,3.46
9.00,2.00,316.31,-17.06,30.88,-15.00,15.50,1.31,46.50,3.46
9.00,0.00,38.00,-3.19,-148.94,-40.75,-8.25,-7.12,46.27,3.48
9.00,1.00,246.44,-6.19,-51.81,-25.06,6.06,-0.62,46.27,3.48
9.00,2.00,316.31,-17.31,31.31,-26.25,15.62,3.12,46.27,3.48
9.00,0.00,37.88,-3.38,-148.12,-39.81,-8.81,-7.62,46.04,3.50
9.00,1.00,246.38,-6.25,-51.31,-25.75,5.31,-0.56,46.04,3.50
9.00,2.00,316.25,-17.62,31.88,-25.94,16.06,3.12,46.04,3.50
9.00,0.00,37.81,-3.62,-147.44,-38.94,-7.94,-6.50,45.74,3.52
9.00,1.00,246.31,-6.38,-50.81,-26.12,4.62,-1.25,45.74,3.52
9.00,2.00,316.19,-17.94,32.31,-20.12,15.75,2.94,45.74,3.52
9.00,0.00,37.69,-3.75,-146.69,-38.75,-7.31,-6.69,45.40,3.54
9.00,1.00,246.25,-6.44,-50.31,-25.38,5.69,-2.06,45.40,3.54
9.00,2.00,316.19,-18.19,32.69,-18.06,15.56,0.94,45.40,3.54
9.00,0.00,37.50,-4.00,-145.94,-37.94,-6.38,-8.56,45.14,3.56
9.00,1.00,246.25,-6.56,-49.88,-22.50,5.62,-2.31,45.14,3.56
9.00,2.00,316.19,-18.44,33.12,-21.88,16.19,1.38,45.14,3.56
9.00,0.00,37.31,-4.19,-145.25,-36.19,-4.88,-9.38,44.87,3.58
9.00,1.00,246.25,-6.69,-49.44,-20.50,3.44,-3.56,44.87,3.58
9.00,2.00,316.12,-18.81,33.88,-19.44,13.19,1.94,44.87,3.58
9.00,0.00,37.12,-4.31,-144.56,-35.19,-3.62,-7.94,44.54,3.60
9.00,1.00,246.25,-6.75,-49.06,-19.38,3.25,-4.31,44.54,3.60
9.00,2.00,316.12,-18.94,34.00,-14.75,12.38,0.69,44.54,3.60
9.00,0.00,37.06,-4.44,-143.94,-33.00,-3.38,-5.44,44.19,3.62
9.00,1.00,246.25,-6.88,-48.69,-19.88,4.44,-3.81,44.19,3.62
9.00,2.00,316.19,-19.12,34.25,-11.44,11.69,-0.69,44.19,3.62
9.00,0.00,36.94,-4.50,-143.38,-30.75,-1.50,-5.62,43.97,3.64
9.00,1.00,246.25,-7.00,-48.31,-19.12,4.06,-3.44,43.97,3.64
9.00,2.00,316.19,-19.31,34.62,-17.19,10.50,0.06,43.97,3.64
9.00,0.00,36.94,-4.56,-142.88,-26.25,-0.25,-6.12,43.82,3.66
9.00,1.00,246.31,-7.12,-47.94,-17.12,3.38,-3.69,43.82,3.66
9.00,2.00,316.19,-19.44,35.00,-17.56,10.50,0.38,43.82,3.66
9.00,0.00,36.81,-4.62,-142.50,-23.25,0.25,-5.00,43.66,3.68
9.00,1.00,246.38,-7.25,-47.56,-16.12,2.88,-4.12,43.66,3.68
9.00,2.00,316.19,-19.62,35.31,-13.19,8.81,-0.06,43.66,3.68
9.00,0.00,36.69,-4.69,-142.06,-22.00,0.25,-3.56,43.44,3.70
9.00,1.00,246.38,-7.38,-47.25,-15.44,3.19,-3.88,43.44,3.70
9.00,2.00,316.19,-19.69,35.56,-8.62,7.44,-1.00,43.44,3.70
9.00,0.00,36.62,-4.69,-141.62,-22.06,1.25,-2.75,43.23,3.72
9.00,1.00,246.38,-7.44,-46.94,-16.06,3.56,-3.19,43.23,3.72
9.00,2.00,316.19,-19.81,35.75,-8.69,7.25,-0.56,43.23,3.72
9.00,0.00,36.50,-4.69,-141.25,-20.44,2.25,-3.50,43.06,3.74
9.00,1.00,246.38,-7.56,-46.62,-15.69,3.88,-2.44,43.06,3.74
9.00,2.00,316.19,-19.94,35.94,-10.31,6.62,0.50,43.06,3.74
9.00,0.00,36.50,-4.69,-140.88,-18.56,2.12,-3.31,42.95,3.76
9.00,1.00,246.38,-7.62,-46.31,-14.62,3.88,-2.25,42.95,3.76
9.00,2.00,316.19,-20.06,36.19,-11.94,6.88,2.12,42.95,3.76
9.00,0.00,36.38,-4.75,-140.50,-18.12,1.12,-3.81,42.82,3.78
9.00,1.00,246.38,-7.75,-46.06,-13.88,4.25,-1.88,42.82,3.78
9.00,2.00,316.12,-20.19,36.44,-10.00,5.81,1.75,42.82,3.78
9.00,0.00,36.31,-4.81,-140.12,-20.06,-0.62,-4.31,42.62,3.80
9.00,1.00,246.38,-7.81,-45.81,-13.50,4.50,-1.25,42.62,3.80
9.00,2.00,316.12,-20.31,36.62,-7.56,6.56,0.31,42.62,3.80
9.00,0.00,35.94,-4.88,-139.75,-21.94,-2.12,-6.19,42.41,3.82
9.00,1.00,246.31,-7.94,-45.50,-13.25,4.19,-1.44,42.41,3.82
9.00,2.00,316.12,-20.38,36.81,-8.81,5.75,1.38,42.41,3.82
9.00,0.00,35.81,-5.00,-139.38,-19.56,-3.94,-5.62,42.24,3.84
9.00,1.00,246.31,-8.00,-45.25,-13.44,4.19,-1.69,42.24,3.84
9.00,2.00,316.06,-20.50,37.00,-9.31,5.38,2.38,42.24,3.84
9.00,0.00,35.81,-5.12,-139.00,-17.38,-3.12,-4.06,42.09,3.86
9.00,1.00,246.31,-8.06,-45.12,-13.06,5.12,-1.06,42.09,3.86
9.00,2.00,316.00,-20.62,37.19,-8.31,6.19,2.38,42.09,3.86
9.00,0.00,35.69,-5.19,-138.69,-18.62,-0.50,-5.00,41.91,3.88
9.00,1.00,246.25,-8.12,-44.88,-12.31,5.25,-0.25,41.91,3.88
9.00,2.00,316.00,-20.75,37.38,-7.62,5.88,2.75,41.91,3.88
9.00,0.00,35.56,-5.25,-138.31,-19.50,1.12,-6.62,41.75,3.90
9.00,1.00,246.19,-8.25,-44.62,-12.12,5.19,-0.25,41.75,3.90
9.00,2.00,315.94,-20.94,37.56,-9.25,5.88,3.88,41.75,3.90
9.00,0.00,35.31,-5.31,-137.94,-19.00,1.75,-6.44,41.58,3.92
9.00,1.00,246.12,-8.31,-44.44,-11.62,4.88,-0.69,41.58,3.92
9.00,2.00,315.81,-21.06,37.69,-8.50,5.12,4.19,41.58,3.92
9.00,0.00,35.19,-5.38,-137.62,-17.38,1.25,-5.19,41.39,3.94
9.00,1.00,246.06,-8.38,-44.19,-11.50,5.44,-0.50,41.39,3.94
9.00,2.00,315.75,-21.19,37.81,-5.62,5.38,3.56,41.39,3.94
9.00,0.00,35.25,-5.44,-137.31,-17.19,1.25,-5.19,41.23,3.96
9.00,1.00,246.00,-8.50,-44.00,-11.19,5.00,-0.75,41.23,3.96
9.00,2.00,315.69,-21.31,38.00,-7.50,7.19,4.44,41.23,3.96
9.00,0.00,35.06,-5.50,-137.00,-17.25,1.00,-5.88,41.12,3.98
9.00,1.00,246.00,-8.56,-43.81,-11.19,4.44,-1.00,41.12,3.98
9.00,2.00,315.62,-21.50,38.19,-10.56,6.44,4.62,41.12,3.98
9.00,0.00,34.94,-5.62,-136.69,-16.69,-0.38,-5.62,40.98,4.00
9.00,1.00,245.94,-8.62,-43.56,-11.62,5.25,-1.00,40.98,4.00
9.00,2.00,315.56,-21.62,38.38,-7.75,5.94,3.31,40.98,4.00
9.00,0.00,34.88,-5.69,-136.38,-15.19,-2.88,-4.50,40.84,4.02
9.00,1.00,245.94,-8.75,-43.38,-11.31,5.50,-0.88,40.84,4.02
9.00,2.00,315.50,-21.75,38.50,-6.62,5.50,2.00,40.84,4.02
9.00,0.00,34.81,-5.81,-136.12,-13.88,-3.38,-3.94,40.76,4.04
9.00,1.00,245.88,-8.81,-43.12,-10.31,4.25,-0.62,40.76,4.04
9.00,2.00,315.44,-21.88,38.69,-9.19,4.88,3.06,40.76,4.04
9.00,0.00,34.56,-5.88,-135.81,-14.38,-1.31,-4.12,40.65,4.06
9.00,1.00,245.88,-8.88,-42.94,-9.38,3.25,-1.06,40.65,4.06
9.00,2.00,315.38,-21.94,38.81,-7.62,4.12,2.94,40.65,4.06
9.00,0.00,34.44,-5.94,-135.56,-14.06,-0.06,-4.56,40.52,4.08
9.00,1.00,245.81,-8.94,-42.75,-9.69,3.19,-1.31,40.52,4.08
9.00,2.00,315.31,-22.06,38.94,-5.75,3.44,1.94,40.52,4.08
9.00,0.00,34.38,-6.00,-135.38,-12.12,0.00,-4.44,40.42,4.10
9.00,1.00,245.81,-9.06,-42.56,-9.94,3.25,-1.00,40.42,4.10
9.00,2.00,315.31,-22.12,39.06,-6.31,3.38,0.94,40.42,4.10
9.00,0.00,231.56,-6.06,-135.12,-11.50,1.19,-3.94,40.35,4.12
9.00,1.00,245.81,-9.12,-42.38,-9.62,2.94,-1.00,40.35,4.12
9.00,2.00,315.25,-22.19,39.25,-6.88,2.81,1.19,40.35,4.12
9.00,0.00,231.50,-6.06,-134.94,-11.06,0.69,-2.19,40.26,4.14
9.00,1.00,245.81,-9.19,-42.25,-9.38,2.19,-0.56,40.26,4.14
9.00,2.00,315.25,-22.25,39.38,-6.06,2.12,0.88,40.26,4.14
9.00,0.00,231.62,-6.06,-134.69,-12.25,2.06,-1.38,40.18,4.16
9.00,1.00,245.75,-9.19,-42.06,-9.88,2.00,0.06,40.18,4.16
9.00,2.00,315.19,-22.25,39.50,-6.81,1.25,0.50,40.18,4.16
9.00,0.00,231.44,-6.06,-134.50,-12.00,2.75,-1.69,40.11,4.18
9.00,1.00,245.75,-9.25,-41.88,-9.75,1.62,0.44,40.11,4.18
9.00,2.00,315.19,-22.25,39.62,-8.12,0.56,0.44,40.11,4.18
9.00,0.00,231.19,-6.00,-134.25,-12.31,3.69,-1.62,40.06,4.20
9.00,1.00,245.69,-9.25,-41.69,-9.44,0.75,0.75,40.06,4.20
9.00,2.00,315.12,-22.25,39.81,-8.75,0.19,0.62,40.06,4.20
9.00,0.00,231.00,-6.00,-134.00,-13.19,4.06,-2.81,39.97,4.22
9.00,1.00,245.62,-9.25,-41.50,-9.44,0.88,1.00,39.97,4.22
9.00,2.00,315.12,-22.25,40.00,-8.00,0.44,0.06,39.97,4.22
9.00,0.00,230.88,-6.00,-133.75,-11.94,2.38,-2.38,39.88,4.24
9.00,1.00,245.62,-9.25,-41.31,-9.25,0.50,0.19,39.88,4.24
9.00,2.00,315.12,-22.25,40.12,-6.56,0.62,-1.38,39.88,4.24
9.00,0.00,230.75,-6.00,-133.69,-11.38,2.94,-1.88,39.79,4.26
9.00,1.00,245.62,-9.25,-41.12,-8.62,0.31,0.69,39.79,4.26
9.00,2.00,315.12,-22.25,40.25,-5.56,0.69,-1.12,39.79,4.26
9.00,0.00,230.50,-6.00,-133.31,-11.88,3.94,-2.12,39.69,4.28
9.00,1.00,245.56,-9.25,-40.94,-8.31,0.31,0.75,39.69,4.28
9.00,2.00,315.06,-22.25,40.38,-5.56,0.00,-0.25,39.69,4.28
9.00,0.00,230.31,-5.94,-133.12,-11.75,4.50,-2.31,39.61,4.30
9.00,1.00,245.56,-9.25,-40.81,-8.12,0.38,1.31,39.61,4.30
9.00,2.00,315.06,-22.25,40.50,-6.75,0.12,0.25,39.61,4.30
9.00,0.00,230.00,-5.94,-132.94,-11.19,3.56,-2.50,39.55,4.32
9.00,1.00,245.50,-9.25,-40.62,-8.44,0.06,1.25,39.55,4.32
9.00,2.00,315.00,-22.25,40.69,-7.94,-0.31,0.06,39.55,4.32
9.00,0.00,229.94,-5.94,-132.81,-10.38,2.62,-2.12,39.48,4.34
9.00,1.00,245.50,-9.25,-40.44,-7.94,0.50,0.81,39.48,4.34
9.00,2.00,315.00,-22.25,40.81,-6.06,-0.06,-0.69,39.48,4.34
9.00,0.00,229.81,-5.94,-132.62,-9.50,2.56,-1.88,39.40,4.36
9.00,1.00,245.44,-9.25,-40.31,-7.81,0.62,0.56,39.40,4.36
9.00,2.00,315.00,-22.25,40.88,-4.50,0.06,-0.31,39.40,4.36
9.00,0.00,229.75,-6.00,-132.44,-8.81,1.31,-2.25,39.38,4.38
9.00,1.00,245.44,-9.25,-40.19,-7.31,1.00,1.44,39.38,4.38
9.00,2.00,315.00,-22.25,41.00,-7.31,0.94,0.44,39.38,4.38
9.00,0.00,229.75,-6.00,-132.31,-8.38,0.56,-2.69,39.33,4.40
9.00,1.00,245.38,-9.25,-40.00,-6.44,0.19,0.88,39.33,4.40
9.00,2.00,314.94,-22.25,41.19,-5.25,1.12,0.31,39.33,4.40
9.00,0.00,229.50,-6.06,-132.19,-7.88,0.00,-2.44,39.27,4.42
9.00,1.00,245.38,-9.25,-39.88,-6.25,0.31,0.81,39.27,4.42
9.00,2.00,314.94,-22.31,41.25,-4.50,1.06,0.31,39.27,4.42
9.00,0.00,229.50,-6.12,-132.00,-7.69,0.38,-2.06,39.23,4.44
9.00,1.00,245.38,-9.25,-39.75,-6.00,0.12,0.75,39.23,4.44
9.00,2.00,314.94,-22.31,41.38,-4.88,0.19,0.81,39.23,4.44
9.00,0.00,229.50,-6.12,-131.88,-7.38,0.62,-2.00,39.18,4.46
9.00,1.00,245.31,-9.25,-39.62,-5.62,0.50,0.62,39.18,4.46
9.00,2.00,314.88,-22.31,41.44,-4.56,0.31,0.94,39.18,4.46
9.00,0.00,229.50,-6.12,-131.75,-6.44,0.31,-1.88,39.15,4.48
9.00,1.00,245.31,-9.25,-39.56,-5.25,0.25,0.50,39.15,4.48
9.00,2.00,314.88,-22.31,41.56,-4.56,0.44,0.62,39.15,4.48
9.00,0.00,229.50,-6.19,-131.62,-4.69,-0.38,-1.12,39.13,4.50
9.00,1.00,245.31,-9.25,-39.44,-5.12,0.69,0.19,39.13,4.50
9.00,2.00,314.81,-22.31,41.62,-3.75,0.31,0.38,39.13,4.50
9.00,0.00,229.50,-6.19,-131.56,-4.31,-0.94,-0.88,39.13,4.52
9.00,1.00,245.31,-9.25,-39.31,-4.94,0.88,0.31,39.13,4.52
9.00,2.00,314.81,-22.31,41.69,-3.75,0.44,0.44,39.13,4.52
9.00,0.00,229.50,-6.25,-131.44,-4.31,-0.50,-0.44,39.12,4.54
9.00,1.00,245.25,-9.31,-39.25,-4.81,1.00,0.62,39.12,4.54
9.00,2.00,314.81,-22.31,41.81,-4.19,-0.69,0.31,39.12,4.54
9.00,0.00,229.50,-6.25,-131.38,-4.62,-0.19,-0.38,39.10,4.56
9.00,1.00,245.25,-9.31,-39.12,-4.50,1.31,1.38,39.10,4.56
9.00,2.00,314.75,-22.31,41.88,-3.25,-1.31,0.75,39.10,4.56
9.00,0.00,229.44,-6.25,-131.25,-4.75,1.06,-0.50,39.07,4.58
9.00,1.00,245.19,-9.31,-39.06,-4.25,0.50,0.81,39.07,4.58
9.00,2.00,314.75,-22.31,41.94,-2.69,-1.38,0.50,39.07,4.58
9.00,0.00,229.38,-6.19,-131.19,-4.00,1.06,-0.12,39.07,4.60
9.00,1.00,245.19,-9.31,-38.94,-4.31,0.25,0.75,39.07,4.60
9.00,2.00,314.75,-22.31,42.00,-4.19,-0.75,0.50,39.07,4.60
9.00,0.00,229.31,-6.19,-131.12,-3.69,1.12,0.12,39.08,4.62
9.00,1.00,245.19,-9.31,-38.88,-4.06,0.56,0.88,39.08,4.62
9.00,2.00,314.69,-22.31,42.06,-4.19,-0.12,0.56,39.08,4.62
9.00,0.00,229.25,-6.19,-131.06,-3.75,2.12,0.44,39.04,4.64
9.00,1.00,245.12,-9.31,-38.81,-3.69,0.88,0.75,39.04,4.64
9.00,2.00,314.69,-22.31,42.12,-1.38,-0.12,0.38,39.04,4.64
9.00,0.00,229.12,-6.12,-131.00,-4.25,2.06,0.38,38.99,4.66
9.00,1.00,245.12,-9.31,-38.75,-2.62,0.81,0.56,38.99,4.66
9.00,2.00,314.69,-22.31,42.12,-0.88,-0.19,0.31,38.99,4.66
9.00,0.00,229.00,-6.12,-130.88,-4.62,1.81,-0.06,38.95,4.68
9.00,1.00,245.12,-9.31,-38.69,-2.25,0.62,1.06,38.95,4.68
9.00,2.00,314.69,-22.31,42.19,-2.50,-0.19,0.62,38.95,4.68
9.00,0.00,228.94,-6.12,-130.81,-4.25,1.12,0.12,38.92,4.70
9.00,1.00,245.06,-9.31,-38.62,-2.56,0.62,1.19,38.92,4.70
9.00,2.00,314.62,-22.31,42.25,-2.56,-0.62,0.88,38.92,4.70
9.00,0.00,228.81,-6.06,-130.75,-3.50,2.06,-0.12,38.89,4.72
9.00,1.00,245.06,-9.31,-38.62,-2.25,0.62,0.81,38.89,4.72
9.00,2.00,314.62,-22.31,42.31,-1.44,-0.69,0.81,38.89,4.72
9.00,0.00,228.69,-6.06,-130.69,-3.19,3.19,-0.06,38.86,4.74
9.00,1.00,245.06,-9.31,-38.56,-2.00,1.00,0.50,38.86,4.74
9.00,2.00,314.62,-22.31,42.31,-1.06,-0.62,0.62,38.86,4.74
9.00,0.00,228.56,-6.00,-130.62,-2.50,2.44,0.50,38.84,4.76
9.00,1.00,245.00,-9.31,-38.50,-2.12,1.25,0.56,38.84,4.76
9.00,2.00,314.56,-22.31,42.31,-1.75,-0.31,1.00,38.84,4.76
9.00,0.00,228.44,-6.00,-130.62,-1.69,1.75,1.19,38.84,4.78
9.00,1.00,245.00,-9.31,-38.50,-2.00,1.25,0.88,38.84,4.78
9.00,2.00,314.56,-22.31,42.31,-1.62,-0.56,1.12,38.84,4.78
9.00,0.00,228.31,-5.94,-130.56,-1.81,1.50,1.38,38.83,4.80
9.00,1.00,244.94,-9.38,-38.44,-1.94,1.75,0.94,38.83,4.80
9.00,2.00,314.50,-22.31,42.38,-1.00,-0.81,1.00,38.83,4.80
9.00,0.00,228.31,-5.94,-130.56,-1.75,0.38,0.62,38.82,4.82
9.00,1.00,244.94,-9.38,-38.44,-2.19,1.75,0.81,38.82,4.82
9.00,2.00,314.50,-22.31,42.38,-1.44,-0.31,0.94,38.82,4.82
9.00,0.00,228.31,-5.94,-130.50,-1.00,-1.19,0.25,38.82,4.84
9.00,1.00,244.94,-9.38,-38.38,-2.31,1.69,0.56,38.82,4.84
9.00,2.00,314.44,-22.38,42.38,-0.62,0.25,1.00,38.82,4.84
9.00,0.00,228.38,-5.94,-130.50,-0.19,-1.94,0.12,38.82,4.86
9.00,1.00,244.88,-9.44,-38.31,-2.12,1.81,0.25,38.82,4.86
9.00,2.00,314.44,-22.38,42.38,0.00,0.12,1.06,38.82,4.86
9.00,0.00,228.62,-6.00,-130.50,-0.50,-2.00,-0.06,38.81,4.88
9.00,1.00,244.88,-9.44,-38.31,-1.94,2.50,0.44,38.81,4.88
9.00,2.00,314.38,-22.38,42.38,-0.12,-0.19,1.75,38.81,4.88
9.00,0.00,228.69,-6.00,-130.50,-1.69,-1.62,-0.56,38.81,4.90
9.00,1.00,244.81,-9.50,-38.25,-1.69,2.75,0.69,38.81,4.90
9.00,2.00,314.38,-22.38,42.38,-1.56,-0.56,2.12,38.81,4.90
9.00,0.00,228.88,-6.06,-130.44,-2.00,-1.38,-1.44,38.79,4.92
9.00,1.00,244.81,-9.50,-38.25,-1.75,1.94,0.44,38.79,4.92
9.00,2.00,314.31,-22.44,42.44,-1.19,-0.38,2.00,38.79,4.92
9.00,0.00,228.94,-6.06,-130.44,-1.75,-1.31,-1.81,38.78,4.94
9.00,1.00,244.81,-9.56,-38.25,-1.62,2.12,0.12,38.78,4.94
9.00,2.00,314.25,-22.44,42.44,-0.62,0.62,2.06,38.78,4.94
9.00,0.00,229.06,-6.12,-130.38,-1.00,-1.88,-1.25,38.78,4.96
9.00,1.00,244.75,-9.56,-38.19,-2.00,2.88,0.75,38.78,4.96
9.00,2.00,314.25,-22.50,42.44,-1.38,0.88,2.31,38.78,4.96
9.00,0.00,229.25,-6.19,-130.38,-0.81,-0.94,-0.94,38.81,4.98
9.00,1.00,244.75,-9.62,-38.19,-1.81,2.50,0.25,38.81,4.98
9.00,2.00,314.19,-22.56,42.44,-2.75,0.38,2.69,38.81,4.98
9.00,0.00,229.31,-6.19,-130.38,-1.19,0.19,-1.50,38.81,5.00
9.00,1.00,244.75,-9.62,-38.12,-1.75,1.94,0.00,38.81,5.00
9.00,2.00,314.12,-22.56,42.50,-0.75,-0.06,2.12,38.81,5.00
9.00,0.00,229.25,-6.19,-130.31,-2.00,1.50,-1.94,38.78,5.02
9.00,1.00,244.69,-9.69,-38.12,-1.69,1.88,0.12,38.78,5.02
9.00,2.00,314.06,-22.62,42.50,-0.56,-0.31,2.12,38.78,5.02
9.00,0.00,229.25,-6.19,-130.31,-2.19,1.50,-1.88,38.79,5.04
9.00,1.00,244.69,-9.69,-38.06,-1.62,2.06,0.56,38.79,5.04
9.00,2.00,314.00,-22.62,42.50,-2.75,-0.69,2.50,38.79,5.04
9.00,0.00,229.19,-6.25,-130.25,-1.88,0.88,-1.94,38.81,5.06
9.00,1.00,244.69,-9.75,-38.06,-1.75,2.06,0.94,38.81,5.06
9.00,2.00,313.94,-22.62,42.50,-2.81,-0.69,2.44,38.81,5.06
9.00,0.00,229.25,-6.25,-130.25,-1.50,0.44,-1.88,38.81,5.08
9.00,1.00,244.62,-9.75,-38.00,-1.38,1.94,0.38,38.81,5.08
9.00,2.00,313.88,-22.69,42.56,-1.62,-0.75,1.94,38.81,5.08
9.00,0.00,229.25,-6.25,-130.19,-1.06,0.12,-1.50,38.81,5.10
9.00,1.00,244.62,-9.81,-38.00,-1.50,1.56,0.06,38.81,5.10
9.00,2.00,313.88,-22.69,42.56,-1.12,-0.19,0.94,38.81,5.10
9.00,0.00,229.25,-6.31,-130.19,-0.44,0.62,-1.06,38.82,5.12
9.00,1.00,244.62,-9.81,-38.00,-1.38,1.50,0.19,38.82,5.12
9.00,2.00,313.81,-22.69,42.56,-0.94,-0.12,1.00,38.82,5.12
9.00,0.00,229.31,-6.31,-130.19,-0.50,0.44,-0.88,38.83,5.14
9.00,1.00,244.62,-9.81,-37.94,-1.50,1.12,0.31,38.83,5.14
9.00,2.00,313.81,-22.69,42.56,-0.94,-0.50,1.00,38.83,5.14
9.00,0.00,229.25,-6.31,-130.19,-0.94,0.81,-0.88,38.83,5.16
9.00,1.00,244.56,-9.88,-37.94,-1.75,1.38,0.19,38.83,5.16
9.00,2.00,313.81,-22.69,42.62,-1.06,-0.50,0.88,38.83,5.16
9.00,0.00,229.31,-6.31,-130.19,-1.31,1.12,-0.81,38.84,5.18
9.00,1.00,244.56,-9.88,-37.88,-1.81,1.25,0.44,38.84,5.18
9.00,2.00,313.75,-22.69,42.62,-2.25,-1.19,1.06,38.84,5.18
9.00,0.00,229.31,-6.31,-130.19,-1.25,0.56,-0.62,38.85,5.20
9.00,1.00,244.56,-9.88,-37.88,-1.44,0.69,0.56,38.85,5.20
9.00,2.00,313.69,-22.69,42.69,-1.62,-0.88,0.25,38.85,5.20
9.00,0.00,229.50,-6.31,-130.12,-1.75,0.69,-0.25,38.84,5.22
9.00,1.00,244.56,-9.88,-37.81,-1.69,-0.12,0.00,38.84,5.22
9.00,2.00,313.69,-22.69,42.69,-1.06,-0.56,0.12,38.84,5.22
9.00,0.00,229.44,-6.31,-130.06,-1.81,1.12,0.31,38.83,5.24
9.00,1.00,244.56,-9.88,-37.81,-1.75,0.50,-0.25,38.83,5.24
9.00,2.00,313.69,-22.69,42.69,-1.44,0.12,0.44,38.83,5.24
9.00,0.00,229.38,-6.25,-130.06,-1.50,1.38,0.19,38.83,5.26
9.00,1.00,244.56,-9.88,-37.75,-1.88,1.38,-0.44,38.83,5.26
9.00,2.00,313.69,-22.69,42.75,-1.25,0.06,0.25,38.83,5.26
9.00,0.00,229.50,-6.25,-130.06,-1.44,0.25,0.19,38.81,5.28
9.00,1.00,244.56,-9.94,-37.75,-0.81,1.19,-0.25,38.81,5.28
9.00,2.00,313.69,-22.69,42.75,-0.62,-0.12,0.12,38.81,5.28
9.00,0.00,229.50,-6.25,-130.00,-1.88,-0.75,0.19,38.81,5.30
9.00,1.00,244.50,-9.94,-37.75,-0.75,0.69,0.25,38.81,5.30
9.00,2.00,313.69,-22.69,42.75,-1.44,-0.31,0.50,38.81,5.30
9.00,0.00,229.69,-6.25,-129.94,-2.50,-0.75,0.19,38.80,5.32
9.00,1.00,244.50,-9.94,-37.69,-1.12,0.81,0.50,38.80,5.32
9.00,2.00,313.69,-22.69,42.81,-2.19,-0.12,0.75,38.80,5.32
9.00,0.00,229.69,-6.31,-129.94,-2.38,-0.44,-0.19,38.80,5.34
9.00,1.00,244.50,-9.94,-37.69,-1.62,0.62,0.31,38.80,5.34
9.00,2.00,313.62,-22.75,42.81,-2.00,-0.44,0.88,38.80,5.34
9.00,0.00,229.69,-6.31,-129.88,-1.50,0.38,-0.69,38.78,5.36
9.00,1.00,244.50,-9.94,-37.62,-1.25,0.94,0.06,38.78,5.36
9.00,2.00,313.62,-22.75,42.81,-0.56,-0.44,0.81,38.78,5.36
9.00,0.00,229.69,-6.31,-129.88,-0.31,0.38,-0.56,38.79,5.38
9.00,1.00,244.50,-10.00,-37.62,-1.25,1.06,0.12,38.79,5.38
9.00,2.00,313.62,-22.75,42.88,-1.00,-0.25,0.69,38.79,5.38
9.00,0.00,229.69,-6.31,-129.88,-0.19,0.06,0.19,38.82,5.40
9.00,1.00,244.50,-10.00,-37.62,-1.31,0.81,0.75,38.82,5.40
9.00,2.00,313.56,-22.75,42.88,-1.88,-0.62,0.75,38.82,5.40
9.00,0.00,229.69,-6.31,-129.88,-0.56,0.19,0.25,38.85,5.42
9.00,1.00,244.44,-10.00,-37.56,-1.62,1.06,1.12,38.85,5.42
9.00,2.00,313.56,-22.75,42.94,-2.69,-1.44,1.06,38.85,5.42
9.00,0.00,229.69,-6.31,-129.88,-1.12,0.88,-0.56,38.87,5.44
9.00,1.00,244.44,-10.00,-37.56,-1.19,0.56,1.12,38.87,5.44
9.00,2.00,313.50,-22.75,42.94,-2.06,-1.44,1.00,38.87,5.44
9.00,0.00,229.62,-6.31,-129.81,-1.06,1.69,-1.44,38.87,5.46
9.00,1.00,244.38,-9.94,-37.56,-0.62,0.25,0.94,38.87,5.46
9.00,2.00,313.44,-22.75,42.94,-1.12,-1.19,1.25,38.87,5.46
9.00,0.00,229.62,-6.31,-129.81,-0.94,1.88,-1.62,38.86,5.48
9.00,1.00,244.38,-9.94,-37.56,-0.50,0.19,1.06,38.86,5.48
9.00,2.00,313.44,-22.75,42.94,-0.38,-0.81,1.50,38.86,5.48
9.00,0.00,229.56,-6.25,-129.81,-0.50,2.44,-1.12,38.87,5.50
9.00,1.00,244.38,-9.94,-37.56,-0.50,0.62,1.06,38.87,5.50
9.00,2.00,313.38,-22.75,42.94,-0.81,-1.44,1.69,38.87,5.50
9.00,0.00,229.50,-6.25,-129.81,-0.38,2.75,-0.75,38.88,5.52
9.00,1.00,244.31,-9.94,-37.56,-0.25,0.62,1.19,38.88,5.52
9.00,2.00,313.31,-22.75,42.94,-1.00,-1.62,1.88,38.88,5.52
9.00,0.00,229.44,-6.25,-129.81,-0.62,2.38,-1.00,38.87,5.54
9.00,1.00,244.31,-9.94,-37.56,-0.25,0.69,1.56,38.87,5.54
9.00,2.00,313.31,-22.75,42.94,-0.56,-1.56,1.62,38.87,5.54
9.00,0.00,229.38,-6.25,-129.81,-0.88,2.38,-1.19,38.88,5.56
9.00,1.00,244.25,-9.94,-37.56,-0.75,0.94,1.44,38.88,5.56
9.00,2.00,313.25,-22.75,42.94,-1.44,-1.25,1.88,38.88,5.56
9.00,0.00,229.31,-6.19,-129.81,-1.00,1.81,-1.19,38.88,5.58
9.00,1.00,244.25,-9.94,-37.56,-0.94,1.38,0.94,38.88,5.58
9.00,2.00,313.19,-22.75,42.94,-0.75,-1.06,1.38,38.88,5.58
9.00,0.00,229.25,-6.25,-129.75,-0.94,0.94,-1.06,38.87,5.60
9.00,1.00,244.19,-9.94,-37.56,-1.12,1.31,0.94,38.87,5.60
9.00,2.00,313.12,-22.75,42.94,-0.44,-1.00,1.31,38.87,5.60
9.00,0.00,229.31,-6.25,-129.75,-1.06,0.00,-0.31,38.87,5.62
9.00,1.00,244.19,-9.94,-37.50,-1.06,1.75,0.81,38.87,5.62
9.00,2.00,313.12,-22.75,42.94,-1.06,-0.94,1.19,38.87,5.62
9.00,0.00,229.25,-6.25,-129.75,-0.94,-0.12,0.44,38.88,5.64
9.00,1.00,244.19,-10.00,-37.50,-1.12,1.62,0.50,38.88,5.64
9.00,2.00,313.06,-22.75,42.94,-1.25,-0.81,1.00,38.88,5.64
9.00,0.00,229.25,-6.25,-129.75,-0.69,-0.50,0.44,38.88,5.66
9.00,1.00,244.19,-10.00,-37.50,-1.12,0.94,-0.25,38.88,5.66
9.00,2.00,313.06,-22.75,42.94,-0.62,-0.31,0.56,38.88,5.66
9.00,0.00,229.38,-6.25,-129.75,0.25,-1.75,1.50,38.88,5.68
9.00,1.00,244.12,-10.00,-37.44,-1.19,1.06,-0.38,38.88,5.68
9.00,2.00,313.06,-22.75,42.94,0.06,0.75,0.19,38.88,5.68
9.00,0.00,229.38,-6.19,-129.69,0.50,-1.31,2.12,38.90,5.70
9.00,1.00,244.12,-10.06,-37.44,-1.19,1.00,-0.56,38.90,5.70
9.00,2.00,313.06,-22.75,42.94,-0.88,1.00,0.44,38.90,5.70
9.00,0.00,229.50,-6.19,-129.69,0.81,-1.12,2.12,38.94,5.72
9.00,1.00,244.12,-10.06,-37.44,-0.94,0.38,-0.81,38.94,5.72
9.00,2.00,313.06,-22.81,43.00,-1.31,0.75,0.62,38.94,5.72
9.00,0.00,229.50,-6.19,-129.75,0.94,-0.31,2.31,38.96,5.74
9.00,1.00,244.19,-10.06,-37.38,-0.88,0.25,-0.75,38.96,5.74
9.00,2.00,313.06,-22.81,43.00,-0.31,0.81,0.25,38.96,5.74
9.00,0.00,229.44,-6.12,-129.75,0.81,0.12,2.31,38.97,5.76
9.00,1.00,244.19,-10.06,-37.38,-1.31,0.12,-0.88,38.97,5.76
9.00,2.00,313.06,-22.81,43.00,-0.06,0.50,-0.31,38.97,5.76
9.00,0.00,229.38,-6.12,-129.75,0.81,0.06,2.38,38.99,5.78
9.00,1.00,244.19,-10.06,-37.38,-1.38,0.19,-0.81,38.99,5.78
9.00,2.00,313.06,-22.81,43.00,-0.44,0.50,-0.56,38.99,5.78
9.00,0.00,229.31,-6.06,-129.75,0.19,0.19,2.75,39.00,5.80
9.00,1.00,244.19,-10.06,-37.31,-1.56,0.50,-0.31,39.00,5.80
9.00,2.00,313.12,-22.81,43.00,-0.25,0.00,-0.88,39.00,5.80
9.00,0.00,229.25,-6.00,-129.75,-0.31,1.31,2.81,39.00,5.82
9.00,1.00,244.19,-10.06,-37.25,-1.88,0.44,0.38,39.00,5.82
9.00,2.00,313.12,-22.75,43.00,-0.75,-0.94,-0.75,39.00,5.82
9.00,0.00,229.12,-5.94,-129.75,-1.19,1.44,2.62,39.01,5.84
9.00,1.00,244.19,-10.06,-37.25,-2.12,-0.56,0.50,39.01,5.84
9.00,2.00,313.12,-22.75,43.06,-1.56,-1.19,-0.94,39.01,5.84
9.00,0.00,229.00,-5.88,-129.69,-1.31,1.81,2.69,39.03,5.86
9.00,1.00,244.19,-10.06,-37.19,-2.25,-0.44,0.44,39.03,5.86
9.00,2.00,313.06,-22.75,43.06,-2.44,-1.31,-0.56,39.03,5.86
9.00,0.00,229.06,-5.81,-129.69,-1.12,2.12,2.88,39.04,5.88
9.00,1.00,244.19,-10.06,-37.12,-2.00,0.00,0.38,39.04,5.88
9.00,2.00,313.06,-22.69,43.12,-1.50,-0.62,-0.75,39.04,5.88
9.00,0.00,228.88,-5.75,-129.69,-1.44,1.75,2.69,39.03,5.90
9.00,1.00,244.19,-10.06,-37.12,-1.62,-0.50,0.50,39.03,5.90
9.00,2.00,313.06,-22.69,43.12,-1.25,-0.69,-0.56,39.03,5.90
9.00,0.00,228.81,-5.69,-129.62,-1.81,1.31,2.38,39.04,5.92
9.00,1.00,244.19,-10.06,-37.12,-1.31,-0.69,0.81,39.04,5.92
9.00,2.00,313.06,-22.69,43.19,-2.00,-0.12,-0.19,39.04,5.92
