Iteration,IMUNo,OrientationX (deg),OrientationY,OrientationZ,GyroX (20rad/sec),GyroY,GyroZ,Elbow_Pos (rad),Time (sec)
37.00,0.00,88.69,-1.88,-91.75,-1.56,-0.50,0.06,0.01,1.02
37.00,1.00,351.00,2.94,-55.88,-1.44,0.06,0.19,0.01,1.02
37.00,2.00,75.06,-14.62,18.12,-2.00,-0.19,-0.69,0.01,1.02
37.00,0.00,88.69,-1.88,-91.75,-1.31,0.12,0.12,0.02,1.04
37.00,1.00,351.00,2.94,-55.88,-0.94,-0.25,-0.25,0.02,1.04
37.00,2.00,75.06,-14.62,18.12,-1.50,-0.31,-0.38,0.02,1.04
37.00,0.00,88.69,-1.88,-91.69,-0.88,0.38,0.31,0.02,1.06
37.00,1.00,351.00,2.94,-55.88,-0.62,0.31,-0.06,0.02,1.06
37.00,2.00,75.06,-14.62,18.19,-0.94,-0.06,-0.50,0.02,1.06
37.00,0.00,88.69,-1.88,-91.69,-0.69,0.50,0.31,0.02,1.08
37.00,1.00,351.00,2.94,-55.81,-0.50,0.50,0.06,0.02,1.08
37.00,2.00,75.06,-14.62,18.19,-0.75,-0.25,-0.50,0.02,1.08
37.00,0.00,88.69,-1.88,-91.69,-0.31,0.56,0.25,0.03,1.10
37.00,1.00,350.94,2.94,-55.81,-0.62,0.19,0.81,0.03,1.10
37.00,2.00,75.06,-14.62,18.19,-0.62,-0.69,0.06,0.03,1.10
37.00,0.00,88.62,-1.88,-91.69,-0.56,1.19,0.12,0.04,1.12
37.00,1.00,350.94,2.94,-55.81,-0.38,-0.06,1.00,0.04,1.12
37.00,2.00,75.06,-14.62,18.25,-0.81,-1.12,0.19,0.04,1.12
37.00,0.00,88.62,-1.88,-91.69,-0.69,1.44,0.19,0.04,1.14
37.00,1.00,350.94,3.00,-55.81,-0.56,0.00,1.19,0.04,1.14
37.00,2.00,75.06,-14.56,18.25,-0.75,-1.31,0.50,0.04,1.14
37.00,0.00,88.62,-1.88,-91.69,-0.44,1.62,0.62,0.06,1.16
37.00,1.00,350.88,3.00,-55.81,-0.62,0.44,1.12,0.06,1.16
37.00,2.00,75.00,-14.56,18.25,-0.88,-1.00,0.56,0.06,1.16
37.00,0.00,88.56,-1.88,-91.69,-0.56,1.94,0.62,0.07,1.18
37.00,1.00,350.88,3.00,-55.81,-0.88,0.50,1.12,0.07,1.18
37.00,2.00,75.00,-14.56,18.25,-0.94,-0.56,0.50,0.07,1.18
37.00,0.00,88.50,-1.88,-91.69,-0.56,2.31,0.62,0.08,1.20
37.00,1.00,350.88,3.00,-55.81,-1.31,0.44,1.06,0.08,1.20
37.00,2.00,75.00,-14.56,18.31,-0.94,-0.88,0.62,0.08,1.20
37.00,0.00,88.44,-1.88,-91.69,-0.56,1.31,0.50,0.10,1.22
37.00,1.00,350.81,3.06,-55.75,-1.56,0.81,0.81,0.10,1.22
37.00,2.00,75.00,-14.50,18.31,-1.06,-0.81,0.38,0.10,1.22
37.00,0.00,88.44,-1.88,-91.69,-0.62,1.00,0.50,0.11,1.24
37.00,1.00,350.81,3.06,-55.75,-1.06,0.75,0.81,0.11,1.24
37.00,2.00,75.00,-14.50,18.31,-0.94,-0.69,0.50,0.11,1.24
37.00,0.00,88.44,-1.88,-91.69,-0.31,0.69,0.31,0.12,1.26
37.00,1.00,350.81,3.06,-55.69,-0.88,0.69,0.75,0.12,1.26
37.00,2.00,75.00,-14.50,18.31,-0.69,-0.69,0.19,0.12,1.26
37.00,0.00,88.44,-1.88,-91.69,-0.38,-0.38,0.12,0.13,1.28
37.00,1.00,350.81,3.06,-55.69,-1.00,-0.06,0.56,0.13,1.28
37.00,2.00,75.00,-14.50,18.38,-0.62,-1.06,-0.19,0.13,1.28
37.00,0.00,88.44,-1.88,-91.69,-0.12,-0.19,0.00,0.14,1.30
37.00,1.00,350.81,3.06,-55.69,-0.75,-0.06,0.62,0.14,1.30
37.00,2.00,75.00,-14.44,18.31,-0.44,-0.75,-0.50,0.14,1.30
37.00,0.00,88.44,-1.88,-91.69,0.00,-0.81,0.00,0.15,1.32
37.00,1.00,350.75,3.06,-55.69,-0.56,-0.50,0.50,0.15,1.32
37.00,2.00,75.00,-14.44,18.38,-0.19,-0.56,-0.75,0.15,1.32
37.00,0.00,88.44,-1.88,-91.69,0.56,-0.75,0.06,0.15,1.34
37.00,1.00,350.75,3.06,-55.69,-0.12,-0.81,-0.06,0.15,1.34
37.00,2.00,75.00,-14.44,18.38,0.44,-0.12,-0.94,0.15,1.34
37.00,0.00,88.44,-1.88,-91.69,0.94,-0.81,0.31,0.16,1.36
37.00,1.00,350.81,3.06,-55.69,0.25,-0.81,-0.31,0.16,1.36
37.00,2.00,75.00,-14.44,18.38,0.56,0.25,-1.06,0.16,1.36
37.00,0.00,88.50,-1.88,-91.69,1.12,-1.38,0.38,0.17,1.38
37.00,1.00,350.81,3.06,-55.69,0.06,-1.00,-0.19,0.17,1.38
37.00,2.00,75.06,-14.44,18.38,0.81,0.44,-1.00,0.17,1.38
37.00,0.00,88.50,-1.88,-91.75,0.88,-1.62,0.31,0.18,1.40
37.00,1.00,350.81,3.12,-55.69,0.50,-0.88,-0.31,0.18,1.40
37.00,2.00,75.06,-14.44,18.38,0.69,0.44,-1.06,0.18,1.40
37.00,0.00,88.56,-1.88,-91.75,1.00,-1.31,0.12,0.19,1.42
37.00,1.00,350.81,3.12,-55.69,0.12,-0.94,-0.56,0.19,1.42
37.00,2.00,75.12,-14.44,18.31,0.75,0.31,-1.12,0.19,1.42
37.00,0.00,88.56,-1.88,-91.75,0.75,-1.44,0.00,0.18,1.44
37.00,1.00,350.81,3.12,-55.69,0.25,-1.12,-0.19,0.18,1.44
37.00,2.00,75.12,-14.44,18.31,0.81,0.31,-1.19,0.18,1.44
37.00,0.00,88.62,-1.88,-91.75,0.56,-1.31,0.00,0.18,1.46
37.00,1.00,350.81,3.12,-55.69,0.38,-0.94,-0.06,0.18,1.46
37.00,2.00,75.12,-14.44,18.31,0.62,0.12,-1.06,0.18,1.46
37.00,0.00,88.62,-1.88,-91.75,0.56,-0.62,0.06,0.17,1.48
37.00,1.00,350.88,3.12,-55.69,0.25,-1.06,-0.25,0.17,1.48
37.00,2.00,75.19,-14.44,18.31,0.81,-0.25,-1.00,0.17,1.48
37.00,0.00,88.62,-1.88,-91.75,0.50,-0.50,0.19,0.18,1.50
37.00,1.00,350.88,3.19,-55.69,0.12,-0.88,0.00,0.18,1.50
37.00,2.00,75.19,-14.38,18.31,0.31,0.19,-0.88,0.18,1.50
37.00,0.00,88.62,-1.88,-91.75,0.44,-0.06,0.19,0.19,1.52
37.00,1.00,350.88,3.19,-55.69,0.19,-0.50,0.06,0.19,1.52
37.00,2.00,75.19,-14.38,18.31,0.25,0.00,-0.56,0.19,1.52
37.00,0.00,88.62,-1.88,-91.75,-0.25,0.75,-0.06,0.17,1.54
37.00,1.00,350.88,3.19,-55.69,0.19,-0.81,0.19,0.17,1.54
37.00,2.00,75.19,-14.38,18.31,0.25,0.38,-0.31,0.17,1.54
37.00,0.00,88.62,-1.88,-91.75,-0.44,0.62,-0.12,0.16,1.56
37.00,1.00,350.88,3.19,-55.69,0.38,-0.31,0.00,0.16,1.56
37.00,2.00,75.19,-14.44,18.31,-0.25,0.62,-0.25,0.16,1.56
37.00,0.00,88.56,-1.88,-91.75,-0.25,0.81,0.25,0.17,1.58
37.00,1.00,350.88,3.19,-55.69,0.06,0.00,0.25,0.17,1.58
37.00,2.00,75.19,-14.44,18.31,-0.31,0.56,-0.12,0.17,1.58
37.00,0.00,88.56,-1.88,-91.75,-0.19,1.50,0.25,0.17,1.60
37.00,1.00,350.88,3.19,-55.69,-0.19,-0.06,0.12,0.17,1.60
37.00,2.00,75.19,-14.44,18.31,-0.38,0.44,0.31,0.17,1.60
37.00,0.00,88.50,-1.88,-91.75,0.00,1.94,0.50,0.18,1.62
37.00,1.00,350.88,3.19,-55.69,-0.06,0.06,-0.12,0.18,1.62
37.00,2.00,75.19,-14.44,18.31,-0.12,0.62,0.44,0.18,1.62
37.00,0.00,88.50,-1.88,-91.75,0.19,1.69,0.75,0.19,1.64
37.00,1.00,350.88,3.19,-55.69,0.00,0.19,0.38,0.19,1.64
37.00,2.00,75.19,-14.44,18.31,-0.31,-0.19,0.44,0.19,1.64
37.00,0.00,88.44,-1.88,-91.75,0.25,1.81,0.12,0.19,1.66
37.00,1.00,350.88,3.19,-55.69,-0.06,-0.50,-0.19,0.19,1.66
37.00,2.00,75.19,-14.44,18.31,0.31,-0.38,0.25,0.19,1.66
37.00,0.00,88.44,-1.88,-91.75,-0.12,1.19,-0.31,0.18,1.68
37.00,1.00,350.88,3.19,-55.69,0.31,0.12,-0.25,0.18,1.68
37.00,2.00,75.19,-14.44,18.31,0.06,-0.06,0.00,0.18,1.68
37.00,0.00,88.38,-1.88,-91.75,-0.38,0.31,-0.38,0.16,1.70
37.00,1.00,350.88,3.19,-55.69,-0.12,0.69,0.06,0.16,1.70
37.00,2.00,75.19,-14.44,18.31,0.25,0.50,-0.31,0.16,1.70
37.00,0.00,88.44,-1.88,-91.75,0.06,-0.94,-0.44,0.16,1.72
37.00,1.00,350.88,3.19,-55.69,0.00,0.69,0.19,0.16,1.72
37.00,2.00,75.19,-14.44,18.31,0.31,0.25,-0.44,0.16,1.72
37.00,0.00,88.44,-1.88,-91.75,0.06,-1.06,-0.69,0.15,1.74
37.00,1.00,350.88,3.19,-55.69,0.12,0.44,0.38,0.15,1.74
37.00,2.00,75.19,-14.44,18.31,0.12,0.25,-0.31,0.15,1.74
37.00,0.00,88.50,-1.88,-91.75,-0.12,-1.31,-0.62,0.15,1.76
37.00,1.00,350.88,3.19,-55.69,-0.06,0.25,0.44,0.15,1.76
37.00,2.00,75.19,-14.44,18.31,-0.12,-0.06,-0.12,0.15,1.76
37.00,0.00,88.50,-1.88,-91.75,0.19,-0.75,-0.50,0.16,1.78
37.00,1.00,350.88,3.19,-55.69,-0.06,0.31,0.06,0.16,1.78
37.00,2.00,75.19,-14.44,18.31,0.06,0.62,0.25,0.16,1.78
37.00,0.00,88.50,-1.88,-91.75,0.81,0.31,-0.12,0.18,1.80
37.00,1.00,350.88,3.19,-55.69,0.19,0.00,-0.06,0.18,1.80
37.00,2.00,75.19,-14.44,18.31,0.00,0.94,0.19,0.18,1.80
37.00,0.00,88.44,-1.81,-91.81,1.31,2.06,0.69,0.22,1.82
37.00,1.00,350.88,3.19,-55.69,0.19,-0.12,0.00,0.22,1.82
37.00,2.00,75.19,-14.44,18.31,0.06,1.00,0.25,0.22,1.82
37.00,0.00,88.31,-1.75,-91.88,1.69,4.06,1.00,0.27,1.84
37.00,1.00,350.88,3.19,-55.69,0.12,-0.31,0.25,0.27,1.84
37.00,2.00,75.19,-14.50,18.31,0.19,0.56,0.56,0.27,1.84
37.00,0.00,88.19,-1.75,-91.94,1.50,4.81,1.12,0.31,1.86
37.00,1.00,350.88,3.19,-55.69,-0.12,-0.19,0.75,0.31,1.86
37.00,2.00,75.19,-14.50,18.31,0.25,0.94,1.00,0.31,1.86
37.00,0.00,88.06,-1.69,-91.94,0.94,5.12,1.12,0.36,1.88
37.00,1.00,350.81,3.19,-55.69,-0.25,0.69,0.88,0.36,1.88
37.00,2.00,75.19,-14.50,18.31,-0.44,-0.31,1.38,0.36,1.88
37.00,0.00,87.94,-1.69,-91.94,0.00,4.81,1.06,0.38,1.90
37.00,1.00,350.81,3.19,-55.69,-0.38,1.38,1.94,0.38,1.90
37.00,2.00,75.12,-14.50,18.31,-0.56,-0.50,1.50,0.38,1.90
37.00,0.00,87.81,-1.69,-91.94,0.06,5.44,0.56,0.40,1.92
37.00,1.00,350.75,3.19,-55.62,-1.12,1.56,1.62,0.40,1.92
37.00,2.00,75.12,-14.50,18.31,-0.75,-1.25,2.25,0.40,1.92
37.00,0.00,87.69,-1.69,-91.94,-0.19,4.75,0.19,0.43,1.94
37.00,1.00,350.69,3.19,-55.62,-0.31,1.88,2.06,0.43,1.94
37.00,2.00,75.06,-14.50,18.31,-1.06,-0.94,2.19,0.43,1.94
37.00,0.00,87.62,-1.69,-91.94,-0.56,3.94,-0.25,0.44,1.96
37.00,1.00,350.62,3.25,-55.62,0.00,1.69,2.06,0.44,1.96
37.00,2.00,75.00,-14.50,18.31,-0.75,-1.31,1.56,0.44,1.96
37.00,0.00,87.56,-1.69,-91.94,-0.44,2.62,-0.38,0.43,1.98
37.00,1.00,350.56,3.25,-55.62,-0.19,0.94,1.12,0.43,1.98
37.00,2.00,74.94,-14.50,18.31,-0.31,-0.94,1.12,0.43,1.98
37.00,0.00,87.50,-1.69,-91.94,-0.38,1.38,-0.12,0.45,2.00
37.00,1.00,350.56,3.25,-55.62,0.81,0.12,0.88,0.45,2.00
37.00,2.00,74.94,-14.50,18.31,-0.81,0.19,0.19,0.45,2.00
37.00,0.00,87.50,-1.69,-91.94,-0.69,0.38,-0.31,0.46,2.02
37.00,1.00,350.56,3.25,-55.69,0.44,0.38,0.19,0.46,2.02
37.00,2.00,74.94,-14.50,18.31,-1.19,0.25,-0.31,0.46,2.02
37.00,0.00,87.50,-1.69,-91.94,-0.81,-0.38,-0.19,0.48,2.04
37.00,1.00,350.56,3.25,-55.69,-0.62,0.12,0.06,0.48,2.04
37.00,2.00,74.94,-14.50,18.38,-1.38,0.38,-0.62,0.48,2.04
37.00,0.00,87.56,-1.69,-91.94,-1.25,-0.94,-0.50,0.48,2.06
37.00,1.00,350.56,3.25,-55.69,-0.69,-0.31,-0.44,0.48,2.06
37.00,2.00,74.94,-14.50,18.38,-1.19,0.44,-1.00,0.48,2.06
37.00,0.00,87.56,-1.69,-91.88,-1.06,-2.31,-0.56,0.48,2.08
37.00,1.00,350.56,3.25,-55.69,-0.75,-0.38,-0.69,0.48,2.08
37.00,2.00,75.00,-14.50,18.44,-1.06,0.44,-1.31,0.48,2.08
37.00,0.00,87.69,-1.69,-91.88,-0.44,-3.56,-0.25,0.49,2.10
37.00,1.00,350.56,3.19,-55.69,-0.69,-0.31,-0.88,0.49,2.10
37.00,2.00,75.00,-14.44,18.44,-0.62,0.44,-1.62,0.49,2.10
37.00,0.00,87.75,-1.69,-91.88,-0.62,-3.12,-0.88,0.47,2.12
37.00,1.00,350.62,3.19,-55.69,-0.19,-0.75,-1.00,0.47,2.12
37.00,2.00,75.06,-14.44,18.44,0.00,0.56,-1.50,0.47,2.12
37.00,0.00,87.81,-1.75,-91.88,-0.12,-3.06,-0.81,0.46,2.14
37.00,1.00,350.62,3.19,-55.69,-0.25,-0.88,-1.31,0.46,2.14
37.00,2.00,75.06,-14.44,18.44,0.19,0.56,-1.62,0.46,2.14
37.00,0.00,87.88,-1.75,-91.88,0.25,-2.31,-0.44,0.46,2.16
37.00,1.00,350.69,3.19,-55.69,-0.12,-0.75,-1.12,0.46,2.16
37.00,2.00,75.12,-14.44,18.44,0.12,0.62,-1.75,0.46,2.16
37.00,0.00,87.88,-1.75,-91.88,0.19,-1.75,0.25,0.47,2.18
37.00,1.00,350.75,3.12,-55.69,-0.06,-0.94,-1.06,0.47,2.18
37.00,2.00,75.12,-14.44,18.44,-0.19,0.69,-1.44,0.47,2.18
37.00,0.00,87.94,-1.69,-91.88,0.25,-0.75,0.44,0.50,2.20
37.00,1.00,350.75,3.12,-55.75,-0.19,-0.75,-0.69,0.50,2.20
37.00,2.00,75.19,-14.50,18.44,-0.69,0.31,-0.94,0.50,2.20
37.00,0.00,87.88,-1.69,-91.88,0.25,0.75,0.81,0.52,2.22
37.00,1.00,350.75,3.12,-55.75,0.00,-1.19,-0.56,0.52,2.22
37.00,2.00,75.19,-14.50,18.50,-0.44,0.12,-0.62,0.52,2.22
37.00,0.00,87.81,-1.62,-91.88,0.44,0.94,1.38,0.56,2.24
37.00,1.00,350.75,3.19,-55.75,0.12,-0.69,-0.06,0.56,2.24
37.00,2.00,75.19,-14.50,18.44,-0.62,0.00,-0.19,0.56,2.24
37.00,0.00,87.75,-1.62,-91.88,0.44,1.56,1.62,0.63,2.26
37.00,1.00,350.75,3.19,-55.75,0.06,-0.62,1.00,0.63,2.26
37.00,2.00,75.19,-14.50,18.50,-1.75,-0.12,0.31,0.63,2.26
37.00,0.00,87.69,-1.56,-91.94,1.69,2.25,1.69,0.73,2.28
37.00,1.00,350.75,3.19,-55.75,-1.19,-0.75,0.75,0.73,2.28
37.00,2.00,75.19,-14.50,18.50,-1.25,-0.31,0.31,0.73,2.28
37.00,0.00,87.56,-1.50,-92.00,3.19,2.50,2.38,0.84,2.30
37.00,1.00,350.75,3.19,-55.69,-0.38,-0.56,0.75,0.84,2.30
37.00,2.00,75.12,-14.50,18.56,-0.25,-0.88,0.50,0.84,2.30
37.00,0.00,87.50,-1.44,-92.12,4.56,2.44,2.88,0.93,2.32
37.00,1.00,350.75,3.19,-55.69,-0.56,-0.25,0.75,0.93,2.32
37.00,2.00,75.12,-14.50,18.50,1.62,-1.38,0.44,0.93,2.32
37.00,0.00,87.38,-1.44,-92.25,6.12,1.94,2.94,1.09,2.34
37.00,1.00,350.75,3.25,-55.69,0.06,-0.25,1.00,1.09,2.34
37.00,2.00,75.12,-14.50,18.50,1.31,-2.00,0.69,1.09,2.34
37.00,0.00,87.31,-1.38,-92.38,6.69,1.56,2.31,1.29,2.36
37.00,1.00,350.69,3.25,-55.69,0.19,0.00,1.94,1.29,2.36
37.00,2.00,75.12,-14.50,18.44,0.38,-1.94,1.44,1.29,2.36
37.00,0.00,87.25,-1.31,-92.50,7.12,1.12,2.00,1.52,2.38
37.00,1.00,350.62,3.31,-55.75,0.44,0.38,2.44,1.52,2.38
37.00,2.00,75.06,-14.50,18.38,0.06,-0.75,2.06,1.52,2.38
37.00,0.00,87.19,-1.25,-92.69,8.56,0.88,2.69,1.79,2.40
37.00,1.00,350.56,3.31,-55.75,0.44,0.62,2.62,1.79,2.40
37.00,2.00,75.00,-14.50,18.38,0.25,0.00,1.94,1.79,2.40
37.00,0.00,87.12,-1.19,-92.94,11.25,0.88,3.56,2.11,2.42
37.00,1.00,350.56,3.38,-55.75,0.19,1.06,2.50,2.11,2.42
37.00,2.00,75.00,-14.50,18.38,1.44,1.19,1.44,2.11,2.42
37.00,0.00,87.00,-1.12,-93.25,15.44,1.00,4.38,2.56,2.44
37.00,1.00,350.50,3.38,-55.75,0.25,0.88,2.25,2.56,2.44
37.00,2.00,75.00,-14.56,18.31,1.44,0.19,1.44,2.56,2.44
37.00,0.00,86.88,-1.00,-93.62,20.75,1.88,5.75,3.17,2.46
37.00,1.00,350.44,3.38,-55.75,0.69,-0.81,1.69,3.17,2.46
37.00,2.00,74.94,-14.56,18.31,1.94,0.56,1.31,3.17,2.46
37.00,0.00,86.69,-0.88,-94.06,26.12,4.38,6.50,3.97,2.48
37.00,1.00,350.44,3.44,-55.75,0.31,-1.44,1.94,3.97,2.48
37.00,2.00,74.94,-14.62,18.25,1.62,0.31,0.75,3.97,2.48
37.00,0.00,86.56,-0.81,-94.38,31.56,7.19,7.75,4.92,2.50
37.00,1.00,350.44,3.50,-55.75,0.88,-2.44,2.12,4.92,2.50
37.00,2.00,74.94,-14.62,18.25,2.31,0.00,0.88,4.92,2.50
37.00,0.00,86.25,-0.62,-95.00,36.75,10.75,9.00,5.91,2.52
37.00,1.00,350.44,3.56,-55.75,0.81,-3.56,2.19,5.91,2.52
37.00,2.00,74.88,-14.62,18.12,6.06,-0.62,1.69,5.91,2.52
37.00,0.00,85.81,-0.44,-95.75,41.81,15.44,10.44,7.09,2.54
37.00,1.00,350.44,3.62,-55.81,1.50,-3.88,2.31,7.09,2.54
37.00,2.00,74.88,-14.69,18.00,5.50,-1.25,3.12,7.09,2.54
37.00,0.00,85.25,-0.19,-96.56,48.25,18.56,13.06,8.51,2.56
37.00,1.00,350.38,3.69,-55.88,1.88,-3.75,3.31,8.51,2.56
37.00,2.00,74.81,-14.69,17.88,4.50,-3.75,4.69,8.51,2.56
37.00,0.00,84.56,0.06,-97.56,54.31,19.94,16.19,10.06,2.58
37.00,1.00,350.38,3.81,-55.88,1.00,-3.38,3.62,10.06,2.58
37.00,2.00,74.69,-14.62,17.75,6.44,-5.50,6.38,10.06,2.58
37.00,0.00,83.75,0.44,-98.62,60.25,20.75,19.06,11.76,2.60
37.00,1.00,350.31,3.88,-55.88,0.56,-3.38,3.44,11.76,2.60
37.00,2.00,74.56,-14.62,17.56,7.75,-6.00,6.69,11.76,2.60
37.00,0.00,82.88,0.88,-99.81,64.19,21.94,19.94,13.63,2.62
37.00,1.00,350.31,4.00,-55.94,0.62,-2.56,4.00,13.63,2.62
37.00,2.00,74.44,-14.56,17.31,6.38,-7.75,8.19,13.63,2.62
37.00,0.00,81.94,1.38,-101.06,67.06,23.94,20.69,15.67,2.64
37.00,1.00,350.19,4.06,-55.94,0.06,-1.44,4.88,15.67,2.64
37.00,2.00,74.25,-14.50,17.12,4.38,-8.75,9.81,15.67,2.64
37.00,0.00,80.94,1.88,-102.38,70.56,24.81,22.56,17.82,2.66
37.00,1.00,350.12,4.12,-55.94,0.25,-1.19,5.12,17.82,2.66
37.00,2.00,74.00,-14.38,16.94,4.25,-9.00,10.31,17.82,2.66
37.00,0.00,79.81,2.38,-103.75,74.06,24.44,24.81,20.10,2.68
37.00,1.00,350.06,4.25,-55.94,0.81,-0.25,4.88,20.10,2.68
37.00,2.00,73.69,-14.25,16.69,3.50,-8.44,10.88,20.10,2.68
37.00,0.00,78.62,3.00,-105.19,74.69,23.00,25.12,22.44,2.70
37.00,1.00,349.94,4.31,-56.00,0.69,0.75,4.62,22.44,2.70
37.00,2.00,73.56,-14.25,16.62,2.69,-8.12,10.81,22.44,2.70
37.00,0.00,77.50,3.56,-106.62,77.38,19.88,26.06,24.82,2.72
37.00,1.00,349.81,4.38,-56.00,1.19,1.50,4.62,24.82,2.72
37.00,2.00,73.25,-14.12,16.38,3.94,-7.38,11.25,24.82,2.72
37.00,0.00,76.38,4.12,-108.12,76.69,17.00,25.00,27.11,2.74
37.00,1.00,349.69,4.44,-56.06,1.50,3.19,5.06,27.11,2.74
37.00,2.00,73.06,-14.06,16.25,6.12,-6.94,14.50,27.11,2.74
37.00,0.00,75.25,4.69,-109.56,76.12,15.62,24.50,29.39,2.76
37.00,1.00,349.56,4.50,-56.12,0.94,3.69,5.19,29.39,2.76
37.00,2.00,72.81,-14.06,16.00,5.75,-7.44,14.88,29.39,2.76
37.00,0.00,74.19,5.25,-111.00,73.00,16.19,23.00,31.60,2.78
37.00,1.00,349.44,4.56,-56.12,0.81,4.69,5.62,31.60,2.78
37.00,2.00,72.31,-13.94,15.69,4.75,-9.94,15.12,31.60,2.78
37.00,0.00,73.06,5.75,-112.44,73.25,15.44,23.44,33.82,2.80
37.00,1.00,349.25,4.56,-56.19,-0.38,4.44,5.19,33.82,2.80
37.00,2.00,72.19,-13.88,15.56,4.62,-9.94,14.88,33.82,2.80
37.00,0.00,72.00,6.25,-113.81,71.69,10.88,23.12,35.98,2.82
37.00,1.00,349.12,4.56,-56.19,-1.12,5.56,4.62,35.98,2.82
37.00,2.00,71.88,-13.81,15.38,5.31,-10.19,15.38,35.98,2.82
37.00,0.00,71.00,6.75,-115.19,71.12,11.50,22.81,38.06,2.84
37.00,1.00,349.00,4.62,-56.19,-0.69,4.81,4.38,38.06,2.84
37.00,2.00,71.56,-13.69,15.19,6.81,-9.31,15.06,38.06,2.84
37.00,0.00,69.88,7.25,-116.56,69.69,11.94,21.06,40.10,2.86
37.00,1.00,348.81,4.62,-56.19,-1.00,5.81,4.44,40.10,2.86
37.00,2.00,71.25,-13.62,14.94,6.75,-9.62,14.94,40.10,2.86
37.00,0.00,68.88,7.69,-117.88,70.25,9.75,19.94,42.17,2.88
37.00,1.00,348.69,4.62,-56.19,-0.56,5.06,4.56,42.17,2.88
37.00,2.00,70.81,-13.38,14.62,6.31,-11.81,13.44,42.17,2.88
37.00,0.00,67.81,8.12,-119.25,70.62,8.81,19.75,44.26,2.90
37.00,1.00,348.56,4.62,-56.19,-1.00,4.88,3.81,44.26,2.90
37.00,2.00,70.69,-13.31,14.56,6.31,-11.38,13.19,44.26,2.90
37.00,0.00,66.88,8.50,-120.62,70.19,6.50,18.12,46.24,2.92
37.00,1.00,348.44,4.62,-56.19,-0.69,4.19,3.69,46.24,2.92
37.00,2.00,70.25,-13.12,14.19,9.06,-11.19,12.69,46.24,2.92
37.00,0.00,65.94,8.81,-122.00,69.75,4.12,16.62,48.19,2.94
37.00,1.00,348.31,4.69,-56.19,-0.81,4.38,3.69,48.19,2.94
37.00,2.00,70.12,-13.00,14.06,9.56,-11.75,12.50,48.19,2.94
37.00,0.00,65.06,9.12,-123.38,69.25,4.00,16.75,50.14,2.96
37.00,1.00,348.19,4.69,-56.19,0.00,4.62,4.31,50.14,2.96
37.00,2.00,69.88,-12.88,13.81,9.25,-11.56,12.88,50.14,2.96
37.00,0.00,64.12,9.44,-124.69,67.44,4.06,15.94,52.12,2.98
37.00,1.00,348.06,4.69,-56.19,0.62,4.25,5.06,52.12,2.98
37.00,2.00,69.44,-12.69,13.44,6.38,-9.62,16.06,52.12,2.98
37.00,0.00,63.12,9.75,-126.00,66.25,4.94,16.00,54.10,3.00
37.00,1.00,347.94,4.75,-56.19,1.44,4.25,5.69,54.10,3.00
37.00,2.00,69.25,-12.62,13.31,5.12,-9.19,16.69,54.10,3.00
37.00,0.00,62.06,10.06,-127.31,66.50,5.88,18.00,56.19,3.02
37.00,1.00,347.75,4.81,-56.25,1.62,4.94,6.06,56.19,3.02
37.00,2.00,68.75,-12.56,13.06,1.88,-9.12,18.25,56.19,3.02
37.00,0.00,60.88,10.44,-128.62,65.31,6.31,18.25,58.24,3.04
37.00,1.00,347.56,4.88,-56.31,1.69,5.56,6.06,58.24,3.04
37.00,2.00,68.56,-12.50,13.00,2.12,-11.38,18.62,58.24,3.04
37.00,0.00,59.62,10.81,-129.88,64.75,7.56,19.00,60.24,3.06
37.00,1.00,347.38,4.88,-56.31,1.50,6.06,5.94,60.24,3.06
37.00,2.00,68.19,-12.38,12.88,3.06,-12.75,17.81,60.24,3.06
37.00,0.00,58.31,11.12,-131.12,61.44,7.56,16.75,62.08,3.08
37.00,1.00,347.19,4.94,-56.31,0.81,6.06,5.56,62.08,3.08
37.00,2.00,67.69,-12.06,12.62,4.81,-14.69,14.25,62.08,3.08
37.00,0.00,57.06,11.50,-132.31,59.06,8.00,14.75,63.84,3.10
37.00,1.00,347.06,4.94,-56.31,0.06,5.88,4.94,63.84,3.10
37.00,2.00,67.56,-11.94,12.56,4.81,-14.56,13.12,63.84,3.10
37.00,0.00,55.81,11.75,-133.44,56.56,6.62,12.44,65.58,3.12
37.00,1.00,346.88,4.94,-56.31,-0.62,5.12,4.81,65.58,3.12
37.00,2.00,67.25,-11.69,12.44,2.81,-12.31,12.25,65.58,3.12
37.00,0.00,54.62,12.00,-134.50,54.56,6.12,10.69,67.26,3.14
37.00,1.00,346.75,5.00,-56.31,-0.62,4.50,4.31,67.26,3.14
37.00,2.00,67.00,-11.56,12.31,2.81,-11.12,12.44,67.26,3.14
37.00,0.00,53.56,12.19,-135.56,52.19,5.31,7.88,68.86,3.16
37.00,1.00,346.62,5.00,-56.25,-0.88,4.50,3.38,68.86,3.16
37.00,2.00,66.75,-11.38,12.19,2.62,-10.00,13.06,68.86,3.16
37.00,0.00,267.88,12.31,-136.56,52.00,4.12,6.12,70.52,3.18
37.00,1.00,346.56,5.00,-56.25,-0.94,4.31,3.50,70.52,3.18
37.00,2.00,66.50,-11.25,12.06,0.81,-9.56,13.12,70.52,3.18
37.00,0.00,267.81,12.50,-137.56,52.62,4.56,5.75,72.23,3.20
37.00,1.00,346.44,5.00,-56.25,-2.06,3.81,2.44,72.23,3.20
37.00,2.00,66.19,-11.12,12.00,0.00,-9.44,13.12,72.23,3.20
37.00,0.00,267.75,12.62,-138.56,51.88,4.06,3.75,73.89,3.22
37.00,1.00,346.38,5.00,-56.19,-2.81,3.12,1.56,73.89,3.22
37.00,2.00,65.94,-11.00,12.00,0.62,-8.12,12.00,73.89,3.22
37.00,0.00,267.62,12.69,-139.56,52.62,2.44,1.56,75.57,3.24
37.00,1.00,346.38,4.94,-56.12,-2.62,1.62,-1.06,75.57,3.24
37.00,2.00,65.69,-10.94,11.94,0.69,-6.00,10.94,75.57,3.24
37.00,0.00,267.56,12.75,-140.62,52.81,3.44,1.44,77.26,3.26
37.00,1.00,346.38,4.88,-56.06,-2.94,1.88,-1.88,77.26,3.26
37.00,2.00,65.50,-10.88,11.88,0.88,-5.25,10.25,77.26,3.26
37.00,0.00,267.38,12.75,-141.56,50.56,3.00,-0.81,78.87,3.28
37.00,1.00,346.44,4.88,-56.06,-2.62,2.06,-1.94,78.87,3.28
37.00,2.00,65.25,-10.81,11.81,0.81,-5.81,10.12,78.87,3.28
37.00,0.00,267.19,12.75,-142.50,48.25,3.44,-3.06,80.41,3.30
37.00,1.00,346.44,4.81,-56.00,-3.00,2.56,-2.31,80.41,3.30
37.00,2.00,65.06,-10.69,11.75,0.69,-6.62,10.06,80.41,3.30
37.00,0.00,266.94,12.75,-143.38,45.31,2.62,-4.75,81.89,3.32
37.00,1.00,346.44,4.75,-55.94,-2.44,2.25,-1.19,81.89,3.32
37.00,2.00,64.88,-10.62,11.69,-0.25,-8.12,9.94,81.89,3.32
37.00,0.00,266.69,12.69,-144.00,40.94,2.56,-5.94,83.27,3.34
37.00,1.00,346.44,4.69,-55.88,-2.25,1.75,-0.06,83.27,3.34
37.00,2.00,64.62,-10.50,11.69,-1.56,-9.19,9.75,83.27,3.34
37.00,0.00,266.44,12.69,-144.56,37.50,3.06,-6.00,84.52,3.36
37.00,1.00,346.44,4.69,-55.88,-2.31,1.75,0.56,84.52,3.36
37.00,2.00,64.44,-10.38,11.62,-1.19,-9.88,9.44,84.52,3.36
37.00,0.00,266.25,12.69,-145.19,32.69,5.19,-6.25,85.59,3.38
37.00,1.00,346.38,4.69,-55.81,-2.62,1.56,1.06,85.59,3.38
37.00,2.00,64.25,-10.19,11.56,-0.19,-10.44,9.75,85.59,3.38
37.00,0.00,266.00,12.69,-145.69,29.38,6.56,-7.00,86.53,3.40
37.00,1.00,346.38,4.69,-55.81,-1.56,1.75,1.38,86.53,3.40
37.00,2.00,64.00,-10.06,11.56,0.25,-10.00,9.62,86.53,3.40
37.00,0.00,265.75,12.75,-146.19,25.00,8.75,-7.88,87.31,3.42
37.00,1.00,346.31,4.69,-55.75,-1.81,1.69,2.00,87.31,3.42
37.00,2.00,63.81,-9.94,11.50,1.00,-9.38,9.44,87.31,3.42
37.00,0.00,265.50,12.81,-146.56,22.31,9.56,-7.06,87.99,3.44
37.00,1.00,346.25,4.69,-55.75,-1.69,1.88,1.31,87.99,3.44
37.00,2.00,63.62,-9.81,11.38,1.19,-9.31,9.06,87.99,3.44
37.00,0.00,265.25,12.88,-146.94,19.94,9.81,-6.31,88.62,3.46
37.00,1.00,346.19,4.69,-55.75,-1.50,2.06,1.12,88.62,3.46
37.00,2.00,63.44,-9.62,11.31,0.56,-9.88,9.44,88.62,3.46
37.00,0.00,265.06,13.06,-147.31,22.12,11.31,-2.81,89.32,3.48
37.00,1.00,346.19,4.69,-55.75,-1.12,2.12,1.69,89.32,3.48
37.00,2.00,63.25,-9.50,11.31,0.56,-9.31,9.19,89.32,3.48
37.00,0.00,264.94,13.25,-147.69,21.88,13.38,-0.62,90.05,3.50
37.00,1.00,346.12,4.69,-55.69,-1.62,2.56,1.94,90.05,3.50
37.00,2.00,63.00,-9.38,11.25,-0.75,-9.88,9.00,90.05,3.50
37.00,0.00,264.81,13.44,-148.06,22.06,12.56,0.31,90.84,3.52
37.00,1.00,346.06,4.69,-55.69,-2.25,2.19,2.31,90.84,3.52
37.00,2.00,62.81,-9.19,11.25,-2.19,-9.75,8.12,90.84,3.52
37.00,0.00,264.69,13.62,-148.31,20.12,11.50,-0.75,91.54,3.54
37.00,1.00,346.00,4.69,-55.62,-1.94,2.56,1.69,91.54,3.54
37.00,2.00,62.69,-9.06,11.25,-1.38,-9.69,6.50,91.54,3.54
37.00,0.00,264.56,13.81,-148.56,19.50,10.19,-0.44,92.19,3.56
37.00,1.00,346.00,4.62,-55.56,-2.06,1.31,0.06,92.19,3.56
37.00,2.00,62.56,-8.88,11.25,-0.62,-9.44,4.75,92.19,3.56
37.00,0.00,264.44,14.00,-148.81,18.38,11.12,0.44,92.80,3.58
37.00,1.00,346.00,4.62,-55.56,-2.00,0.31,-0.12,92.80,3.58
37.00,2.00,62.50,-8.75,11.25,-0.44,-10.12,3.38,92.80,3.58
37.00,0.00,264.31,14.12,-149.00,16.00,11.38,0.31,93.26,3.60
37.00,1.00,346.00,4.62,-55.50,-1.31,-0.50,0.25,93.26,3.60
37.00,2.00,62.38,-8.56,11.25,1.75,-10.69,2.19,93.26,3.60
37.00,0.00,264.19,14.31,-149.12,13.25,10.69,-0.12,93.66,3.62
37.00,1.00,346.00,4.62,-55.50,-1.12,-1.56,0.38,93.66,3.62
37.00,2.00,62.38,-8.38,11.19,0.88,-10.69,1.88,93.66,3.62
37.00,0.00,264.12,14.50,-149.25,10.69,10.50,-0.19,93.99,3.64
37.00,1.00,346.00,4.69,-55.50,-1.62,-1.62,1.06,93.99,3.64
37.00,2.00,62.31,-8.19,11.19,0.69,-10.00,1.00,93.99,3.64
37.00,0.00,264.00,14.69,-149.38,7.38,9.50,-0.31,94.20,3.66
37.00,1.00,346.00,4.69,-55.44,-1.62,-1.94,1.06,94.20,3.66
37.00,2.00,62.31,-8.00,11.12,0.88,-9.06,0.56,94.20,3.66
37.00,0.00,263.94,14.81,-149.50,5.50,8.69,0.06,94.33,3.68
37.00,1.00,346.00,4.75,-55.44,-2.12,-1.62,0.44,94.33,3.68
37.00,2.00,62.25,-7.88,11.12,1.44,-7.19,0.19,94.33,3.68
37.00,0.00,263.94,14.94,-149.56,4.75,7.75,1.94,94.44,3.70
37.00,1.00,346.00,4.75,-55.38,-1.69,-0.94,0.31,94.44,3.70
37.00,2.00,62.25,-7.75,11.06,1.19,-5.31,0.12,94.44,3.70
37.00,0.00,263.94,15.12,-149.69,4.62,8.62,4.06,94.59,3.72
37.00,1.00,346.06,4.75,-55.38,-1.81,-0.50,0.12,94.59,3.72
37.00,2.00,62.25,-7.62,11.06,0.25,-4.94,0.31,94.59,3.72
37.00,0.00,263.94,15.25,-149.69,1.81,6.69,2.88,94.67,3.74
37.00,1.00,346.06,4.75,-55.31,-1.88,0.00,-0.31,94.67,3.74
37.00,2.00,62.25,-7.56,11.06,-0.69,-4.81,0.19,94.67,3.74
37.00,0.00,264.00,15.38,-149.69,2.38,3.50,2.31,94.77,3.76
37.00,1.00,346.06,4.75,-55.31,-2.06,-0.06,-0.31,94.77,3.76
37.00,2.00,62.25,-7.50,11.06,-0.94,-4.31,-0.56,94.77,3.76
37.00,0.00,264.00,15.44,-149.75,3.75,3.69,3.62,94.96,3.78
37.00,1.00,346.06,4.75,-55.25,-2.31,0.25,-0.62,94.96,3.78
37.00,2.00,62.25,-7.38,11.12,-1.88,-4.06,-1.00,94.96,3.78
37.00,0.00,264.06,15.56,-149.88,3.88,2.88,4.75,95.16,3.80
37.00,1.00,346.06,4.75,-55.25,-2.31,-0.31,-0.19,95.16,3.80
37.00,2.00,62.25,-7.31,11.19,-2.31,-3.94,-0.62,95.16,3.80
37.00,0.00,264.12,15.62,-149.94,2.81,2.62,4.69,95.30,3.82
37.00,1.00,346.06,4.75,-55.19,-2.44,-0.44,-0.12,95.30,3.82
37.00,2.00,62.25,-7.25,11.19,-1.62,-4.12,-1.06,95.30,3.82
37.00,0.00,264.19,15.69,-149.94,0.69,2.31,3.50,95.33,3.84
37.00,1.00,346.06,4.75,-55.12,-1.62,-0.81,0.12,95.33,3.84
37.00,2.00,62.25,-7.19,11.19,-0.12,-3.75,-1.31,95.33,3.84
37.00,0.00,264.25,15.75,-150.00,0.81,1.31,3.19,95.35,3.86
37.00,1.00,346.06,4.75,-55.12,-1.62,-0.62,0.25,95.35,3.86
37.00,2.00,62.31,-7.12,11.19,0.19,-3.19,-1.12,95.35,3.86
37.00,0.00,264.31,15.81,-150.00,0.94,2.75,3.31,95.38,3.88
37.00,1.00,346.06,4.75,-55.06,-1.19,-0.50,0.12,95.38,3.88
37.00,2.00,62.31,-7.06,11.19,0.06,-3.19,-0.62,95.38,3.88
37.00,0.00,264.31,15.88,-150.00,0.69,3.19,2.88,95.41,3.90
37.00,1.00,346.06,4.75,-55.06,-1.19,-0.62,0.25,95.41,3.90
37.00,2.00,62.31,-7.00,11.19,-0.38,-3.31,-0.38,95.41,3.90
37.00,0.00,264.38,15.94,-150.00,0.62,3.38,1.81,95.40,3.92
37.00,1.00,346.06,4.75,-55.06,-1.44,-0.44,0.19,95.40,3.92
37.00,2.00,62.31,-6.94,11.19,0.81,-2.50,-0.81,95.40,3.92
37.00,0.00,264.38,16.06,-150.06,0.75,3.62,1.25,95.44,3.94
37.00,1.00,346.06,4.75,-55.00,-1.31,-0.50,0.06,95.44,3.94
37.00,2.00,62.31,-6.88,11.19,-0.25,-2.56,-0.44,95.44,3.94
37.00,0.00,264.38,16.12,-150.06,1.12,4.50,1.00,95.47,3.96
37.00,1.00,346.06,4.75,-55.00,-1.19,-0.44,0.31,95.47,3.96
37.00,2.00,62.31,-6.81,11.19,0.12,-2.38,0.00,95.47,3.96
37.00,0.00,264.31,16.19,-150.06,0.81,5.06,0.44,95.51,3.98
37.00,1.00,346.06,4.75,-55.00,-1.38,0.31,0.69,95.51,3.98
37.00,2.00,62.31,-6.81,11.19,-0.50,-2.38,0.19,95.51,3.98
37.00,0.00,264.31,16.25,-150.06,0.25,3.50,-0.50,95.54,4.00
37.00,1.00,346.06,4.75,-54.94,-1.06,0.56,0.75,95.54,4.00
37.00,2.00,62.25,-6.75,11.19,-0.56,-2.31,0.75,95.54,4.00
37.00,0.00,264.31,16.25,-150.06,0.12,3.31,-1.50,95.57,4.02
37.00,1.00,346.06,4.75,-54.94,-1.25,0.62,0.88,95.57,4.02
37.00,2.00,62.25,-6.75,11.19,-0.75,-1.56,1.12,95.57,4.02
37.00,0.00,264.19,16.31,-150.00,-0.19,2.81,-2.38,95.58,4.04
37.00,1.00,346.06,4.75,-54.94,-0.62,1.00,0.75,95.58,4.04
37.00,2.00,62.19,-6.69,11.19,-0.62,-2.06,1.25,95.58,4.04
37.00,0.00,264.19,16.31,-150.00,0.31,1.62,-2.62,95.61,4.06
37.00,1.00,346.00,4.75,-54.94,-0.75,1.38,0.88,95.61,4.06
37.00,2.00,62.19,-6.69,11.19,-0.56,-0.81,1.62,95.61,4.06
37.00,0.00,264.12,16.31,-150.00,0.50,1.19,-2.88,95.64,4.08
37.00,1.00,346.00,4.75,-54.88,-0.81,1.38,1.00,95.64,4.08
37.00,2.00,62.12,-6.69,11.12,-0.44,-0.38,1.69,95.64,4.08
37.00,0.00,264.06,16.25,-150.00,-0.31,-0.19,-3.38,95.66,4.10
37.00,1.00,345.94,4.75,-54.88,-0.81,1.38,0.69,95.66,4.10
37.00,2.00,62.12,-6.69,11.12,-0.81,0.12,1.88,95.66,4.10
37.00,0.00,264.00,16.25,-149.94,-1.12,0.56,-3.75,95.65,4.12
37.00,1.00,345.94,4.75,-54.88,-0.62,1.69,0.88,95.65,4.12
37.00,2.00,62.06,-6.69,11.19,-1.06,0.06,2.06,95.65,4.12
37.00,0.00,263.88,16.19,-149.94,-0.56,-0.94,-3.19,95.67,4.14
37.00,1.00,345.88,4.75,-54.88,-0.19,2.31,1.12,95.67,4.14
37.00,2.00,62.00,-6.69,11.12,-0.94,0.38,2.06,95.67,4.14
37.00,0.00,263.88,16.12,-149.94,-0.62,-1.88,-1.62,95.68,4.16
37.00,1.00,345.88,4.75,-54.88,-0.38,2.44,1.44,95.68,4.16
37.00,2.00,62.00,-6.75,11.12,-1.12,-0.12,2.12,95.68,4.16
37.00,0.00,263.81,16.06,-149.88,-0.94,-2.94,-1.94,95.71,4.18
37.00,1.00,345.81,4.75,-54.88,-1.31,2.56,0.69,95.71,4.18
37.00,2.00,61.94,-6.75,11.19,-1.69,0.75,1.69,95.71,4.18
37.00,0.00,263.81,16.00,-149.88,-0.31,-2.81,-1.44,95.76,4.20
37.00,1.00,345.75,4.75,-54.88,-1.12,2.69,0.38,95.76,4.20
37.00,2.00,61.94,-6.75,11.19,-2.06,1.06,1.31,95.76,4.20
37.00,0.00,263.81,15.94,-149.88,-0.12,-2.25,-1.31,95.79,4.22
37.00,1.00,345.75,4.69,-54.88,-1.12,2.56,0.12,95.79,4.22
37.00,2.00,61.88,-6.81,11.25,-1.00,1.56,1.12,95.79,4.22
37.00,0.00,263.81,15.94,-149.88,-0.75,-2.75,-0.94,95.78,4.24
37.00,1.00,345.75,4.69,-54.81,-0.19,2.06,0.75,95.78,4.24
37.00,2.00,61.88,-6.81,11.25,-0.25,1.31,0.44,95.78,4.24
37.00,0.00,263.81,15.88,-149.88,-1.12,-3.12,-0.94,95.74,4.26
37.00,1.00,345.69,4.62,-54.88,0.19,1.75,1.25,95.74,4.26
37.00,2.00,61.88,-6.88,11.19,0.00,0.38,0.31,95.74,4.26
37.00,0.00,263.75,15.75,-149.81,-3.25,-3.94,-2.25,95.65,4.28
37.00,1.00,345.62,4.69,-54.88,-0.25,1.06,1.81,95.65,4.28
37.00,2.00,61.88,-6.88,11.19,-0.56,-1.12,0.06,95.65,4.28
37.00,0.00,263.75,15.62,-149.75,-4.38,-4.88,-3.44,95.52,4.30
37.00,1.00,345.62,4.69,-54.88,-0.94,1.00,1.25,95.52,4.30
37.00,2.00,61.88,-6.81,11.19,-0.44,-1.12,0.38,95.52,4.30
37.00,0.00,263.69,15.50,-149.62,-4.62,-5.38,-4.00,95.39,4.32
37.00,1.00,345.56,4.69,-54.88,-1.00,0.94,0.88,95.39,4.32
37.00,2.00,61.88,-6.81,11.19,-0.44,0.12,0.25,95.39,4.32
37.00,0.00,263.69,15.38,-149.56,-3.94,-5.44,-3.62,95.24,4.34
37.00,1.00,345.56,4.69,-54.81,-1.06,1.38,0.50,95.24,4.34
37.00,2.00,61.88,-6.88,11.19,0.50,1.44,-0.25,95.24,4.34
37.00,0.00,263.69,15.25,-149.50,-3.19,-4.75,-3.19,95.13,4.36
37.00,1.00,345.56,4.69,-54.81,-0.81,1.56,0.56,95.13,4.36
37.00,2.00,61.88,-6.88,11.19,0.38,1.94,-0.06,95.13,4.36
37.00,0.00,263.62,15.19,-149.50,-1.25,-3.19,-2.62,95.11,4.38
37.00,1.00,345.50,4.62,-54.81,-1.00,1.69,0.56,95.11,4.38
37.00,2.00,61.88,-6.94,11.19,-0.69,1.31,0.56,95.11,4.38
37.00,0.00,263.62,15.12,-149.50,0.88,-2.56,-1.88,95.16,4.40
37.00,1.00,345.50,4.62,-54.81,-0.62,1.44,0.62,95.16,4.40
37.00,2.00,61.88,-6.94,11.19,-0.75,0.50,0.88,95.16,4.40
37.00,0.00,263.56,15.06,-149.56,0.94,-2.31,-1.38,95.21,4.42
37.00,1.00,345.44,4.62,-54.81,-0.44,1.06,0.88,95.21,4.42
37.00,2.00,61.88,-6.94,11.19,-0.62,0.12,1.06,95.21,4.42
37.00,0.00,263.56,15.00,-149.56,1.19,-2.69,-0.75,95.26,4.44
37.00,1.00,345.44,4.62,-54.75,0.12,0.81,0.75,95.26,4.44
37.00,2.00,61.81,-6.94,11.19,-0.25,-0.38,0.56,95.26,4.44
37.00,0.00,263.56,15.00,-149.62,1.75,-2.56,-0.62,95.31,4.46
37.00,1.00,345.44,4.62,-54.75,0.31,0.50,0.94,95.31,4.46
37.00,2.00,61.81,-6.94,11.19,0.25,-0.62,0.31,95.31,4.46
37.00,0.00,263.56,14.94,-149.62,1.69,-2.88,-0.75,95.32,4.48
37.00,1.00,345.44,4.62,-54.81,0.94,-0.69,0.25,95.32,4.48
37.00,2.00,61.81,-6.94,11.19,1.25,0.00,0.00,95.32,4.48
37.00,0.00,263.56,14.88,-149.69,1.75,-2.56,-0.56,95.31,4.50
37.00,1.00,345.44,4.62,-54.81,1.31,-1.00,-0.06,95.31,4.50
37.00,2.00,61.81,-6.94,11.19,2.19,0.06,-0.31,95.31,4.50
37.00,0.00,263.56,14.88,-149.69,1.69,-1.38,-0.25,95.28,4.52
37.00,1.00,345.44,4.69,-54.88,1.94,-0.88,-0.31,95.28,4.52
37.00,2.00,61.81,-6.94,11.12,2.75,0.12,-0.56,95.28,4.52
37.00,0.00,263.56,14.88,-149.75,1.75,-0.12,0.38,95.24,4.54
37.00,1.00,345.44,4.69,-54.88,2.44,-0.56,-0.25,95.24,4.54
37.00,2.00,61.88,-6.94,11.06,2.69,0.31,-1.12,95.24,4.54
37.00,0.00,263.62,14.88,-149.75,2.19,0.00,0.94,95.24,4.56
37.00,1.00,345.44,4.69,-54.94,2.56,-1.00,-0.25,95.24,4.56
37.00,2.00,61.88,-6.94,11.00,2.44,0.19,-1.19,95.24,4.56
37.00,0.00,263.62,14.88,-149.81,2.88,-0.62,1.06,95.23,4.58
37.00,1.00,345.44,4.69,-55.00,2.69,-1.56,-0.75,95.23,4.58
37.00,2.00,61.94,-6.94,10.94,3.00,0.94,-1.88,95.23,4.58
37.00,0.00,263.62,14.88,-149.88,3.31,-1.06,1.62,95.23,4.60
37.00,1.00,345.50,4.69,-55.06,2.88,-1.69,-1.12,95.23,4.60
37.00,2.00,61.94,-7.00,10.94,3.31,0.94,-2.12,95.23,4.60
