Iteration,IMUNo,OrientationX (deg),OrientationY,OrientationZ,GyroX (20rad/sec),GyroY,GyroZ,Elbow_Pos (rad),Time (sec)
61.00,0.00,110.06,-0.31,-92.00,2.06,-9.19,-4.38,0.02,1.02
61.00,1.00,329.69,4.75,-58.00,1.44,-0.81,-3.75,0.02,1.02
61.00,2.00,91.56,-13.06,16.00,1.56,4.44,-4.06,0.02,1.02
61.00,0.00,110.38,-0.38,-92.00,1.00,-9.31,-4.69,0.01,1.04
61.00,1.00,329.75,4.69,-58.00,1.06,-0.56,-2.75,0.01,1.04
61.00,2.00,91.69,-13.12,16.00,1.12,3.38,-3.62,0.01,1.04
61.00,0.00,110.62,-0.50,-92.00,0.19,-6.62,-3.38,-0.05,1.06
61.00,1.00,329.81,4.62,-58.00,1.56,-0.81,-2.50,-0.05,1.06
61.00,2.00,91.75,-13.12,15.94,2.19,2.25,-2.44,-0.05,1.06
61.00,0.00,110.75,-0.56,-92.06,1.31,-4.94,-2.12,-0.08,1.08
61.00,1.00,329.88,4.62,-58.06,2.19,-1.00,-2.44,-0.08,1.08
61.00,2.00,91.81,-13.19,15.94,2.50,1.75,-2.31,-0.08,1.08
61.00,0.00,110.88,-0.56,-92.06,2.94,-3.56,-0.56,-0.11,1.10
61.00,1.00,329.94,4.56,-58.12,2.69,-1.19,-2.44,-0.11,1.10
61.00,2.00,91.81,-13.19,15.88,3.69,2.00,-1.19,-0.11,1.10
61.00,0.00,111.00,-0.56,-92.12,3.88,-2.38,0.06,-0.11,1.12
61.00,1.00,330.00,4.56,-58.19,3.31,-0.88,-2.12,-0.11,1.12
61.00,2.00,91.88,-13.25,15.81,4.00,1.94,-0.38,-0.11,1.12
61.00,0.00,111.00,-0.56,-92.25,3.94,-1.81,0.00,-0.11,1.14
61.00,1.00,330.00,4.50,-58.25,3.50,-0.50,-2.06,-0.11,1.14
61.00,2.00,91.88,-13.25,15.75,3.94,2.38,-0.25,-0.11,1.14
61.00,0.00,111.00,-0.56,-92.31,3.38,-1.69,-0.50,-0.12,1.16
61.00,1.00,330.06,4.50,-58.31,3.69,0.00,-1.69,-0.12,1.16
61.00,2.00,91.88,-13.31,15.62,3.75,2.44,0.75,-0.12,1.16
61.00,0.00,111.06,-0.56,-92.38,3.25,-1.50,-0.81,-0.12,1.18
61.00,1.00,330.06,4.44,-58.38,3.25,1.00,-1.19,-0.12,1.18
61.00,2.00,91.88,-13.38,15.56,3.12,2.38,1.06,-0.12,1.18
61.00,0.00,111.06,-0.56,-92.44,3.19,-1.06,-0.94,-0.11,1.20
61.00,1.00,330.06,4.44,-58.44,3.31,1.50,-0.88,-0.11,1.20
61.00,2.00,91.88,-13.44,15.50,2.88,2.25,1.50,-0.11,1.20
61.00,0.00,111.12,-0.56,-92.50,2.44,0.88,-0.69,-0.11,1.22
61.00,1.00,330.06,4.44,-58.50,3.31,1.88,-0.75,-0.11,1.22
61.00,2.00,91.88,-13.50,15.44,2.62,2.25,2.12,-0.11,1.22
61.00,0.00,111.06,-0.56,-92.56,1.81,1.44,-0.94,-0.15,1.24
61.00,1.00,330.06,4.38,-58.56,3.69,1.81,-0.75,-0.15,1.24
61.00,2.00,91.81,-13.56,15.38,2.81,2.19,2.31,-0.15,1.24
61.00,0.00,111.06,-0.56,-92.62,1.50,1.69,-1.19,-0.20,1.26
61.00,1.00,330.06,4.31,-58.69,3.94,2.19,-0.88,-0.20,1.26
61.00,2.00,91.75,-13.62,15.25,3.19,1.94,2.44,-0.20,1.26
61.00,0.00,111.06,-0.62,-92.62,1.31,1.69,-1.12,-0.26,1.28
61.00,1.00,330.06,4.31,-58.75,4.44,2.50,-0.75,-0.26,1.28
61.00,2.00,91.75,-13.62,15.19,3.38,1.94,2.44,-0.26,1.28
61.00,0.00,111.06,-0.62,-92.62,1.06,1.38,-1.19,-0.34,1.30
61.00,1.00,330.00,4.31,-58.81,5.00,2.94,-0.62,-0.34,1.30
61.00,2.00,91.69,-13.69,15.12,3.62,2.31,2.75,-0.34,1.30
61.00,0.00,111.06,-0.69,-92.69,0.06,1.44,-1.94,-0.45,1.32
61.00,1.00,330.00,4.25,-58.94,5.44,2.62,-0.44,-0.45,1.32
61.00,2.00,91.62,-13.75,15.00,3.75,2.12,3.06,-0.45,1.32
61.00,0.00,111.12,-0.75,-92.69,0.38,0.88,-2.62,-0.55,1.34
61.00,1.00,329.94,4.25,-59.00,5.25,2.00,-0.56,-0.55,1.34
61.00,2.00,91.62,-13.81,14.94,3.81,2.25,2.81,-0.55,1.34
61.00,0.00,111.19,-0.81,-92.69,1.38,0.12,-2.69,-0.64,1.36
61.00,1.00,329.94,4.19,-59.12,5.06,1.12,-1.00,-0.64,1.36
61.00,2.00,91.56,-13.88,14.88,4.38,2.31,1.94,-0.64,1.36
61.00,0.00,111.25,-0.88,-92.75,2.00,-0.44,-2.38,-0.70,1.38
61.00,1.00,329.94,4.12,-59.25,4.12,0.50,-1.56,-0.70,1.38
61.00,2.00,91.56,-13.94,14.75,3.88,2.50,1.25,-0.70,1.38
61.00,0.00,111.31,-0.88,-92.75,2.31,-0.75,-2.38,-0.74,1.40
61.00,1.00,330.00,4.12,-59.31,3.50,0.19,-1.88,-0.74,1.40
61.00,2.00,91.56,-14.00,14.69,3.62,2.44,0.69,-0.74,1.40
61.00,0.00,111.38,-0.94,-92.81,3.00,-1.75,-2.38,-0.71,1.42
61.00,1.00,330.06,4.06,-59.44,2.94,-0.62,-2.56,-0.71,1.42
61.00,2.00,91.56,-14.06,14.62,2.19,2.31,-0.56,-0.71,1.42
61.00,0.00,111.50,-1.00,-92.88,2.88,-3.12,-2.00,-0.68,1.44
61.00,1.00,330.12,4.00,-59.50,2.62,-1.31,-2.94,-0.68,1.44
61.00,2.00,91.56,-14.12,14.56,1.69,2.81,-0.88,-0.68,1.44
61.00,0.00,111.56,-1.06,-92.94,3.06,-3.06,-1.56,-0.59,1.46
61.00,1.00,330.25,3.94,-59.56,0.50,-2.62,-3.75,-0.59,1.46
61.00,2.00,91.62,-14.19,14.56,0.31,4.62,-1.75,-0.59,1.46
61.00,0.00,111.62,-1.06,-93.00,2.38,-2.62,-1.44,-0.50,1.48
61.00,1.00,330.38,3.88,-59.56,-1.19,-2.56,-4.50,-0.50,1.48
61.00,2.00,91.69,-14.25,14.56,-0.75,5.44,-2.81,-0.50,1.48
61.00,0.00,111.75,-1.12,-93.00,1.44,-3.06,-2.19,-0.41,1.50
61.00,1.00,330.44,3.81,-59.56,-3.25,-2.44,-4.88,-0.41,1.50
61.00,2.00,91.75,-14.38,14.62,-1.44,5.50,-3.62,-0.41,1.50
61.00,0.00,111.88,-1.19,-93.00,0.38,-4.06,-2.56,-0.34,1.52
61.00,1.00,330.62,3.75,-59.50,-4.56,-1.75,-5.31,-0.34,1.52
61.00,2.00,91.81,-14.50,14.69,-2.00,5.56,-4.62,-0.34,1.52
61.00,0.00,112.00,-1.25,-93.00,-0.81,-4.31,-2.31,-0.29,1.54
61.00,1.00,330.69,3.69,-59.44,-5.69,-1.06,-5.38,-0.29,1.54
61.00,2.00,91.94,-14.56,14.69,-2.62,5.38,-4.50,-0.29,1.54
61.00,0.00,112.19,-1.25,-92.94,-2.56,-4.38,-1.94,-0.31,1.56
61.00,1.00,330.88,3.56,-59.25,-6.50,-1.06,-5.12,-0.31,1.56
61.00,2.00,92.00,-14.62,14.81,-1.88,3.62,-4.31,-0.31,1.56
61.00,0.00,112.31,-1.31,-92.88,-3.25,-4.88,-2.06,-0.36,1.58
61.00,1.00,331.00,3.50,-59.19,-4.62,-0.69,-5.12,-0.36,1.58
61.00,2.00,92.12,-14.69,14.81,-1.50,3.25,-4.25,-0.36,1.58
61.00,0.00,112.50,-1.38,-92.81,-2.88,-6.38,-2.19,-0.46,1.60
61.00,1.00,331.06,3.44,-59.12,-3.94,-0.50,-5.00,-0.46,1.60
61.00,2.00,92.19,-14.75,14.88,0.44,3.06,-4.75,-0.46,1.60
61.00,0.00,112.69,-1.44,-92.81,-1.62,-7.94,-2.19,-0.56,1.62
61.00,1.00,331.19,3.31,-59.00,-3.62,0.38,-3.38,-0.56,1.62
61.00,2.00,92.31,-14.75,14.88,1.81,2.31,-4.06,-0.56,1.62
61.00,0.00,112.94,-1.50,-92.81,-1.31,-7.88,-3.00,-0.68,1.64
61.00,1.00,331.19,3.31,-59.00,1.06,-0.69,-1.88,-0.68,1.64
61.00,2.00,92.38,-14.81,14.88,2.62,2.25,-3.50,-0.68,1.64
61.00,0.00,113.12,-1.56,-92.81,-0.62,-7.50,-3.75,-0.84,1.66
61.00,1.00,331.25,3.31,-59.06,3.50,-0.50,-1.00,-0.84,1.66
61.00,2.00,92.44,-14.81,14.81,4.50,1.62,-2.12,-0.84,1.66
61.00,0.00,113.31,-1.62,-92.88,0.62,-6.69,-2.88,-1.00,1.68
61.00,1.00,331.25,3.31,-59.12,4.44,-1.06,-0.50,-1.00,1.68
61.00,2.00,92.50,-14.81,14.69,6.12,1.12,-1.25,-1.00,1.68
61.00,0.00,113.44,-1.62,-92.88,1.12,-5.25,-1.69,-1.17,1.70
61.00,1.00,331.25,3.31,-59.19,4.50,-0.81,-0.25,-1.17,1.70
61.00,2.00,92.56,-14.88,14.56,6.62,0.69,-1.00,-1.17,1.70
61.00,0.00,113.50,-1.62,-92.94,1.56,-3.69,-1.00,-1.26,1.72
61.00,1.00,331.25,3.31,-59.31,3.56,-0.69,-0.19,-1.26,1.72
61.00,2.00,92.56,-14.88,14.44,4.62,-0.75,-0.62,-1.26,1.72
61.00,0.00,113.56,-1.62,-92.94,1.94,-1.81,-0.62,-1.31,1.74
61.00,1.00,331.25,3.31,-59.38,2.50,-0.38,-0.44,-1.31,1.74
61.00,2.00,92.56,-14.88,14.31,3.69,-0.88,-0.31,-1.31,1.74
61.00,0.00,113.56,-1.62,-93.00,1.94,-0.25,-0.38,-1.33,1.76
61.00,1.00,331.25,3.31,-59.44,1.94,-0.62,-0.81,-1.33,1.76
61.00,2.00,92.56,-14.88,14.25,2.44,-0.44,-0.31,-1.33,1.76
61.00,0.00,113.56,-1.62,-93.06,1.25,0.69,0.00,-1.33,1.78
61.00,1.00,331.31,3.31,-59.44,1.94,-0.50,-0.94,-1.33,1.78
61.00,2.00,92.56,-14.88,14.19,1.19,0.62,0.19,-1.33,1.78
61.00,0.00,113.56,-1.62,-93.06,0.44,0.06,0.00,-1.31,1.80
61.00,1.00,331.31,3.25,-59.50,1.38,-0.50,-1.25,-1.31,1.80
61.00,2.00,92.56,-14.88,14.19,-0.25,1.25,0.19,-1.31,1.80
61.00,0.00,113.56,-1.62,-93.06,0.12,-0.25,-0.44,-1.27,1.82
61.00,1.00,331.38,3.25,-59.56,0.94,-0.19,-1.50,-1.27,1.82
61.00,2.00,92.56,-14.94,14.19,-1.06,2.31,0.44,-1.27,1.82
61.00,0.00,113.62,-1.69,-93.00,-1.25,-1.88,-0.81,-1.26,1.84
61.00,1.00,331.38,3.25,-59.56,0.88,0.19,-1.56,-1.26,1.84
61.00,2.00,92.56,-14.94,14.25,-1.44,2.12,0.25,-1.26,1.84
61.00,0.00,113.75,-1.75,-92.94,-1.88,-3.19,-1.25,-1.27,1.86
61.00,1.00,331.44,3.19,-59.56,0.06,0.44,-1.44,-1.27,1.86
61.00,2.00,92.56,-15.00,14.25,-1.62,1.81,-0.12,-1.27,1.86
61.00,0.00,113.94,-1.81,-92.88,-2.44,-4.50,-1.56,-1.28,1.88
61.00,1.00,331.44,3.19,-59.56,-1.38,0.12,-1.50,-1.28,1.88
61.00,2.00,92.56,-15.06,14.31,-2.19,1.00,-0.69,-1.28,1.88
61.00,0.00,114.12,-1.88,-92.75,-2.88,-6.44,-1.75,-1.29,1.90
61.00,1.00,331.50,3.12,-59.56,-1.88,0.19,-1.19,-1.29,1.90
61.00,2.00,92.62,-15.06,14.38,-2.50,1.00,-1.38,-1.29,1.90
61.00,0.00,114.31,-1.94,-92.69,-2.56,-8.56,-1.81,-1.28,1.92
61.00,1.00,331.50,3.12,-59.50,-2.44,0.44,-1.44,-1.28,1.92
61.00,2.00,92.62,-15.06,14.44,-2.94,1.38,-2.12,-1.28,1.92
61.00,0.00,114.56,-2.00,-92.69,-2.38,-9.50,-1.38,-1.26,1.94
61.00,1.00,331.56,3.06,-59.44,-2.56,0.00,-1.62,-1.26,1.94
61.00,2.00,92.69,-15.06,14.50,-2.88,1.19,-2.38,-1.26,1.94
61.00,0.00,114.75,-2.00,-92.62,-2.00,-9.44,-1.06,-1.26,1.96
61.00,1.00,331.56,3.06,-59.38,-2.50,-0.81,-2.00,-1.26,1.96
61.00,2.00,92.75,-15.12,14.56,-2.06,1.25,-2.88,-1.26,1.96
61.00,0.00,114.94,-2.00,-92.56,-1.19,-9.62,-0.44,-1.27,1.98
61.00,1.00,331.62,3.00,-59.38,-2.12,-1.25,-2.50,-1.27,1.98
61.00,2.00,92.81,-15.12,14.62,-0.94,1.50,-3.50,-1.27,1.98
61.00,0.00,115.12,-2.06,-92.56,-0.62,-8.69,0.12,-1.27,2.00
61.00,1.00,331.69,3.00,-59.31,-1.88,-1.25,-2.81,-1.27,2.00
61.00,2.00,92.88,-15.12,14.62,-0.50,2.12,-3.44,-1.27,2.00
61.00,0.00,115.31,-2.06,-92.56,-0.19,-8.88,0.69,-1.27,2.02
61.00,1.00,331.81,2.94,-59.31,-1.38,-1.62,-2.94,-1.27,2.02
61.00,2.00,92.94,-15.19,14.69,-0.31,2.00,-3.38,-1.27,2.02
61.00,0.00,115.44,-2.06,-92.56,0.19,-8.31,0.25,-1.26,2.04
61.00,1.00,331.88,2.88,-59.25,-1.00,-1.25,-3.31,-1.26,2.04
61.00,2.00,93.00,-15.19,14.69,-0.25,1.94,-3.44,-1.26,2.04
61.00,0.00,115.62,-2.06,-92.62,1.00,-7.94,0.44,-1.22,2.06
61.00,1.00,331.94,2.88,-59.25,-0.88,-1.12,-3.31,-1.22,2.06
61.00,2.00,93.06,-15.19,14.69,-0.19,2.12,-3.06,-1.22,2.06
61.00,0.00,115.75,-2.06,-92.62,1.50,-7.12,0.56,-1.16,2.08
61.00,1.00,332.00,2.81,-59.25,0.00,-1.25,-3.19,-1.16,2.08
61.00,2.00,93.12,-15.25,14.69,-0.44,2.06,-2.38,-1.16,2.08
61.00,0.00,115.88,-2.00,-92.69,1.81,-5.88,0.75,-1.12,2.10
61.00,1.00,332.12,2.75,-59.25,1.06,-1.31,-3.25,-1.12,2.10
61.00,2.00,93.19,-15.25,14.75,0.38,1.44,-2.06,-1.12,2.10
61.00,0.00,115.94,-2.00,-92.75,1.75,-5.62,0.94,-1.18,2.12
61.00,1.00,332.19,2.75,-59.31,2.81,-1.19,-3.19,-1.18,2.12
61.00,2.00,93.19,-15.31,14.69,3.75,0.88,-1.38,-1.18,2.12
61.00,0.00,116.06,-2.00,-92.75,1.75,-6.00,0.81,-1.26,2.14
61.00,1.00,332.25,2.69,-59.38,4.25,-1.62,-3.50,-1.26,2.14
61.00,2.00,93.25,-15.31,14.62,4.38,0.62,-1.50,-1.26,2.14
61.00,0.00,116.19,-2.00,-92.81,1.38,-6.12,-0.06,-1.35,2.16
61.00,1.00,332.31,2.62,-59.50,4.75,-1.81,-3.50,-1.35,2.16
61.00,2.00,93.31,-15.31,14.56,4.50,1.12,-1.56,-1.35,2.16
61.00,0.00,116.31,-2.00,-92.81,1.00,-5.50,-1.25,-1.44,2.18
61.00,1.00,332.44,2.62,-59.56,4.69,-1.69,-3.12,-1.44,2.18
61.00,2.00,93.31,-15.31,14.44,4.00,1.56,-1.56,-1.44,2.18
61.00,0.00,116.44,-2.06,-92.81,0.62,-4.81,-1.62,-1.50,2.20
61.00,1.00,332.50,2.56,-59.69,5.25,-1.75,-5.56,-1.50,2.20
61.00,2.00,93.38,-15.38,14.44,2.50,1.62,-1.69,-1.50,2.20
61.00,0.00,116.56,-2.06,-92.81,1.00,-3.81,-1.19,-1.52,2.22
61.00,1.00,332.56,2.56,-59.81,4.62,-1.88,-1.75,-1.52,2.22
61.00,2.00,93.44,-15.38,14.38,1.56,0.75,-1.31,-1.52,2.22
61.00,0.00,116.62,-2.06,-92.88,1.31,-3.00,-0.31,-1.52,2.24
61.00,1.00,332.62,2.50,-59.88,2.56,-1.19,-1.31,-1.52,2.24
61.00,2.00,93.44,-15.38,14.38,1.50,0.62,-1.31,-1.52,2.24
61.00,0.00,116.62,-2.06,-92.88,1.56,-1.50,-0.31,-1.52,2.26
61.00,1.00,332.62,2.50,-59.88,0.88,-0.62,-0.94,-1.52,2.26
61.00,2.00,93.50,-15.38,14.31,1.62,0.69,-0.50,-1.52,2.26
61.00,0.00,116.62,-2.06,-92.88,1.12,-0.38,-0.25,-1.53,2.28
61.00,1.00,332.69,2.50,-59.88,1.38,-0.50,-0.44,-1.53,2.28
61.00,2.00,93.50,-15.44,14.31,1.44,0.31,-0.12,-1.53,2.28
61.00,0.00,116.62,-2.06,-92.94,0.06,0.56,0.38,-1.56,2.30
61.00,1.00,332.62,2.50,-59.94,1.00,-0.19,1.69,-1.56,2.30
61.00,2.00,93.50,-15.44,14.25,0.88,-0.88,0.38,-1.56,2.30
61.00,0.00,116.56,-2.00,-92.88,-0.88,1.44,1.50,-1.57,2.32
61.00,1.00,332.56,2.56,-59.94,0.94,0.50,3.50,-1.57,2.32
61.00,2.00,93.50,-15.38,14.25,-0.62,-2.88,1.19,-1.57,2.32
61.00,0.00,116.44,-1.94,-92.88,-1.44,2.88,2.69,-1.58,2.34
61.00,1.00,332.50,2.56,-59.94,0.06,1.12,4.25,-1.58,2.34
61.00,2.00,93.44,-15.38,14.25,-0.81,-3.31,1.44,-1.58,2.34
61.00,0.00,116.31,-1.88,-92.88,-0.75,5.62,3.38,-1.56,2.36
61.00,1.00,332.44,2.62,-59.94,-0.81,0.69,4.19,-1.56,2.36
61.00,2.00,93.38,-15.31,14.25,-1.50,-3.00,1.94,-1.56,2.36
61.00,0.00,116.06,-1.81,-92.88,0.50,8.38,3.62,-1.50,2.38
61.00,1.00,332.31,2.69,-59.94,-0.62,0.44,4.00,-1.50,2.38
61.00,2.00,93.31,-15.25,14.31,-1.69,-3.00,2.38,-1.50,2.38
61.00,0.00,115.75,-1.69,-92.94,1.81,10.44,3.69,-1.39,2.40
61.00,1.00,332.25,2.75,-59.94,2.00,-0.44,3.56,-1.39,2.40
61.00,2.00,93.25,-15.25,14.31,-1.69,-2.12,3.12,-1.39,2.40
61.00,0.00,115.44,-1.62,-93.06,3.38,11.94,3.44,-1.25,2.42
61.00,1.00,332.19,2.81,-60.00,1.88,-0.06,3.31,-1.25,2.42
61.00,2.00,93.19,-15.25,14.31,-1.38,0.81,4.31,-1.25,2.42
61.00,0.00,115.06,-1.50,-93.19,5.38,12.94,3.88,-1.04,2.44
61.00,1.00,332.12,2.88,-60.00,1.44,0.69,3.31,-1.04,2.44
61.00,2.00,93.06,-15.25,14.31,-1.62,1.38,5.00,-1.04,2.44
61.00,0.00,114.94,-1.44,-93.25,7.62,13.75,4.38,-0.73,2.46
61.00,1.00,332.06,2.94,-60.06,1.25,1.12,3.75,-0.73,2.46
61.00,2.00,93.00,-15.31,14.31,-2.38,1.56,5.50,-0.73,2.46
61.00,0.00,114.38,-1.25,-93.62,10.12,13.12,4.44,-0.38,2.48
61.00,1.00,331.94,3.00,-60.06,1.31,0.94,3.56,-0.38,2.48
61.00,2.00,92.88,-15.38,14.31,-1.56,1.31,5.81,-0.38,2.48
61.00,0.00,114.19,-1.25,-93.75,12.69,12.00,5.50,0.03,2.50
61.00,1.00,331.88,3.06,-60.12,2.56,0.62,4.12,0.03,2.50
61.00,2.00,92.75,-15.44,14.31,-0.94,-0.12,5.88,0.03,2.50
61.00,0.00,113.88,-1.12,-94.06,15.75,9.88,7.12,0.45,2.52
61.00,1.00,331.81,3.12,-60.19,3.56,0.31,4.12,0.45,2.52
61.00,2.00,92.62,-15.50,14.25,1.69,-1.00,6.38,0.45,2.52
61.00,0.00,113.56,-1.00,-94.44,18.38,6.81,8.50,0.93,2.54
61.00,1.00,331.75,3.19,-60.25,4.56,-0.19,4.00,0.93,2.54
61.00,2.00,92.50,-15.50,14.19,2.38,-1.38,6.31,0.93,2.54
61.00,0.00,113.25,-0.81,-94.88,21.56,5.38,8.62,1.49,2.56
61.00,1.00,331.62,3.25,-60.38,4.50,-0.44,4.12,1.49,2.56
61.00,2.00,92.38,-15.50,14.06,3.12,-3.19,5.81,1.49,2.56
61.00,0.00,113.06,-0.69,-95.38,24.12,3.50,9.38,2.10,2.58
61.00,1.00,331.56,3.31,-60.44,4.62,-0.31,4.88,2.10,2.58
61.00,2.00,92.25,-15.44,14.00,3.75,-3.44,5.50,2.10,2.58
61.00,0.00,112.81,-0.50,-95.94,26.62,2.44,10.25,2.75,2.60
61.00,1.00,331.44,3.38,-60.56,5.06,0.19,5.38,2.75,2.60
61.00,2.00,92.19,-15.44,13.88,5.19,-2.25,5.94,2.75,2.60
61.00,0.00,112.56,-0.25,-96.56,29.75,2.25,12.19,3.44,2.62
61.00,1.00,331.38,3.50,-60.62,5.12,0.62,5.19,3.44,2.62
61.00,2.00,92.06,-15.44,13.69,7.00,-2.75,7.38,3.44,2.62
61.00,0.00,112.25,0.00,-97.12,33.69,3.44,14.12,4.23,2.64
61.00,1.00,331.25,3.56,-60.75,4.88,1.19,5.06,4.23,2.64
61.00,2.00,91.94,-15.44,13.50,7.38,-2.69,7.75,4.23,2.64
61.00,0.00,111.88,0.19,-97.81,35.56,4.62,14.94,5.13,2.66
61.00,1.00,331.12,3.62,-60.81,5.00,1.75,5.31,5.13,2.66
61.00,2.00,91.75,-15.44,13.31,5.75,-2.69,8.25,5.13,2.66
61.00,0.00,111.44,0.50,-98.56,39.81,8.50,13.69,6.17,2.68
61.00,1.00,331.00,3.69,-60.94,3.94,1.12,5.25,6.17,2.68
61.00,2.00,91.62,-15.44,13.19,5.31,-2.88,7.94,6.17,2.68
61.00,0.00,110.94,0.81,-99.31,41.31,10.00,14.38,7.22,2.70
61.00,1.00,330.88,3.75,-61.00,3.00,0.31,4.62,7.22,2.70
61.00,2.00,91.50,-15.44,13.00,6.44,-3.94,6.31,7.22,2.70
61.00,0.00,110.31,1.12,-100.19,47.31,16.56,17.62,8.40,2.72
61.00,1.00,330.81,3.81,-61.06,2.69,-0.94,3.94,8.40,2.72
61.00,2.00,91.38,-15.38,12.81,8.12,-6.00,5.69,8.40,2.72
61.00,0.00,109.50,1.56,-101.12,51.38,19.94,19.88,9.71,2.74
61.00,1.00,330.81,3.88,-61.12,2.38,-2.44,4.25,9.71,2.74
61.00,2.00,91.25,-15.31,12.62,7.94,-5.88,6.56,9.71,2.74
61.00,0.00,108.62,2.00,-102.12,53.00,21.12,20.38,11.08,2.76
61.00,1.00,330.75,3.94,-61.19,1.69,-1.94,4.69,11.08,2.76
61.00,2.00,91.12,-15.25,12.44,7.50,-5.81,7.12,11.08,2.76
61.00,0.00,107.62,2.50,-103.12,56.56,23.69,20.19,12.62,2.78
61.00,1.00,330.62,4.06,-61.19,0.25,-1.19,5.88,12.62,2.78
61.00,2.00,91.00,-15.12,12.25,5.38,-6.56,7.94,12.62,2.78
61.00,0.00,106.56,3.00,-104.25,57.25,23.31,20.06,14.24,2.80
61.00,1.00,330.50,4.19,-61.19,-1.00,-0.19,6.62,14.24,2.80
61.00,2.00,90.81,-15.00,12.12,3.50,-8.81,8.56,14.24,2.80
61.00,0.00,105.50,3.50,-105.38,58.25,23.31,19.62,15.89,2.82
61.00,1.00,330.38,4.31,-61.12,-1.56,0.00,6.69,15.89,2.82
61.00,2.00,90.62,-14.88,12.00,3.50,-10.56,8.81,15.89,2.82
61.00,0.00,104.44,3.94,-106.50,60.81,22.88,19.12,17.62,2.84
61.00,1.00,330.25,4.38,-61.12,-1.44,0.00,6.69,17.62,2.84
61.00,2.00,90.44,-14.69,11.88,3.50,-10.88,9.56,17.62,2.84
61.00,0.00,103.31,4.44,-107.69,63.75,23.81,18.50,19.44,2.86
61.00,1.00,330.12,4.50,-61.06,-2.12,0.31,6.81,19.44,2.86
61.00,2.00,90.25,-14.56,11.75,3.31,-11.06,9.94,19.44,2.86
61.00,0.00,102.25,4.88,-108.94,64.81,21.62,16.69,21.32,2.88
61.00,1.00,330.00,4.62,-61.00,-3.06,1.56,6.56,21.32,2.88
61.00,2.00,90.06,-14.38,11.62,2.69,-10.69,9.88,21.32,2.88
61.00,0.00,101.12,5.31,-110.19,66.31,22.88,16.88,23.26,2.90
61.00,1.00,329.88,4.75,-60.94,-3.62,2.44,6.25,23.26,2.90
61.00,2.00,89.88,-14.19,11.50,1.94,-10.69,9.62,23.26,2.90
61.00,0.00,99.94,5.81,-111.44,68.62,23.62,18.31,25.20,2.92
61.00,1.00,329.69,4.81,-60.88,-3.75,3.50,5.50,25.20,2.92
61.00,2.00,89.62,-14.06,11.38,4.19,-10.12,13.31,25.20,2.92
61.00,0.00,98.69,6.31,-112.75,70.38,22.50,17.69,27.18,2.94
61.00,1.00,329.56,4.88,-60.81,-2.62,4.00,5.69,27.18,2.94
61.00,2.00,89.31,-13.94,11.19,4.81,-9.12,15.81,27.18,2.94
61.00,0.00,97.44,6.81,-114.12,71.88,23.12,17.12,29.22,2.96
61.00,1.00,329.38,4.94,-60.81,-2.75,5.38,6.31,29.22,2.96
61.00,2.00,89.00,-13.81,11.00,4.06,-8.81,16.94,29.22,2.96
61.00,0.00,96.12,7.31,-115.50,72.69,24.31,16.06,31.34,2.98
61.00,1.00,329.12,5.00,-60.75,-4.38,6.81,7.56,31.34,2.98
61.00,2.00,88.62,-13.75,10.88,2.31,-9.06,19.25,31.34,2.98
61.00,0.00,94.75,7.75,-116.88,74.12,22.38,16.31,33.54,3.00
61.00,1.00,328.94,5.06,-60.62,-4.31,7.88,7.62,33.54,3.00
61.00,2.00,88.25,-13.62,10.69,1.25,-9.44,20.12,33.54,3.00
61.00,0.00,93.44,8.25,-118.31,73.38,21.00,15.94,35.68,3.02
61.00,1.00,328.69,5.12,-60.56,-5.31,8.19,7.19,35.68,3.02
61.00,2.00,87.81,-13.50,10.56,2.19,-10.81,21.19,35.68,3.02
61.00,0.00,92.12,8.69,-119.69,74.50,18.19,14.94,37.89,3.04
61.00,1.00,328.50,5.12,-60.44,-4.81,8.44,6.50,37.89,3.04
61.00,2.00,87.38,-13.38,10.38,1.19,-11.12,21.06,37.89,3.04
61.00,0.00,90.81,9.06,-121.12,75.50,18.06,13.69,40.14,3.06
61.00,1.00,328.25,5.19,-60.38,-3.88,9.12,7.25,40.14,3.06
61.00,2.00,86.94,-13.25,10.19,1.06,-11.69,21.44,40.14,3.06
61.00,0.00,89.50,9.44,-122.56,74.88,16.62,11.44,42.35,3.08
61.00,1.00,328.00,5.25,-60.31,-4.31,10.12,8.25,42.35,3.08
61.00,2.00,86.50,-13.06,10.06,1.38,-11.62,22.38,42.35,3.08
61.00,0.00,88.25,9.75,-124.00,74.88,14.88,10.38,44.57,3.10
61.00,1.00,327.69,5.31,-60.25,-4.44,10.44,9.19,44.57,3.10
61.00,2.00,86.06,-12.94,9.88,1.38,-11.50,22.56,44.57,3.10
61.00,0.00,87.00,10.06,-125.38,72.00,14.50,9.12,46.75,3.12
61.00,1.00,327.38,5.38,-60.12,-5.56,10.56,10.25,46.75,3.12
61.00,2.00,85.56,-12.81,9.69,-0.44,-14.81,22.62,46.75,3.12
61.00,0.00,85.75,10.38,-126.69,68.75,14.12,7.75,48.83,3.14
61.00,1.00,327.06,5.44,-60.00,-6.25,10.69,9.75,48.83,3.14
61.00,2.00,85.12,-12.62,9.56,-0.31,-15.56,22.94,48.83,3.14
61.00,0.00,84.44,10.69,-127.94,67.50,15.44,8.31,50.87,3.16
61.00,1.00,326.81,5.44,-59.88,-6.12,10.19,8.38,50.87,3.16
61.00,2.00,84.62,-12.38,9.44,0.06,-16.00,22.62,50.87,3.16
61.00,0.00,83.00,11.00,-129.25,67.12,16.88,9.12,52.82,3.18
61.00,1.00,326.56,5.50,-59.81,-5.31,9.44,8.12,52.82,3.18
61.00,2.00,84.19,-12.12,9.31,2.31,-15.88,22.06,52.82,3.18
61.00,0.00,81.50,11.31,-130.50,65.62,17.25,8.31,54.72,3.20
61.00,1.00,326.31,5.56,-59.69,-4.19,9.69,8.62,54.72,3.20
61.00,2.00,83.75,-11.94,9.19,2.50,-14.56,22.56,54.72,3.20
61.00,0.00,80.00,11.62,-131.62,64.00,18.62,8.12,56.65,3.22
61.00,1.00,326.00,5.56,-59.62,-5.44,10.44,9.25,56.65,3.22
61.00,2.00,83.31,-11.69,9.06,0.19,-14.38,22.31,56.65,3.22
61.00,0.00,78.50,11.94,-132.62,61.00,18.69,7.44,58.55,3.24
61.00,1.00,325.69,5.62,-59.50,-6.56,11.12,9.50,58.55,3.24
61.00,2.00,82.81,-11.50,9.00,-2.00,-15.44,23.31,58.55,3.24
61.00,0.00,76.88,12.31,-133.75,59.25,19.00,8.12,60.45,3.26
61.00,1.00,325.44,5.69,-59.31,-6.19,11.56,9.50,60.45,3.26
61.00,2.00,82.31,-11.25,8.94,-3.81,-16.69,23.25,60.45,3.26
61.00,0.00,75.12,12.69,-134.81,55.31,19.38,7.62,62.22,3.28
61.00,1.00,325.12,5.69,-59.19,-5.88,11.88,9.06,62.22,3.28
61.00,2.00,81.88,-11.00,8.94,-3.50,-16.62,22.81,62.22,3.28
61.00,0.00,73.38,13.06,-135.75,51.94,19.88,6.69,63.86,3.30
61.00,1.00,324.81,5.75,-59.06,-5.25,12.44,8.56,63.86,3.30
61.00,2.00,81.44,-10.75,8.88,-2.38,-15.00,21.19,63.86,3.30
61.00,0.00,290.12,13.38,-136.69,48.88,18.25,5.56,65.42,3.32
61.00,1.00,324.50,5.75,-58.94,-4.31,13.12,6.88,65.42,3.32
61.00,2.00,81.00,-10.56,8.88,-2.94,-14.38,20.75,65.42,3.32
61.00,0.00,289.94,13.69,-137.44,44.69,17.69,5.12,66.87,3.34
61.00,1.00,324.25,5.75,-58.81,-4.62,13.25,7.69,66.87,3.34
61.00,2.00,80.56,-10.38,8.81,-3.62,-13.69,20.88,66.87,3.34
61.00,0.00,289.81,14.00,-138.19,40.50,17.00,4.25,68.24,3.36
61.00,1.00,323.94,5.75,-58.75,-4.12,13.50,9.12,68.24,3.36
61.00,2.00,80.12,-10.12,8.81,-4.81,-14.38,20.44,68.24,3.36
61.00,0.00,289.69,14.25,-138.88,37.69,15.81,3.75,69.52,3.38
61.00,1.00,323.62,5.75,-58.62,-3.62,13.19,9.00,69.52,3.38
61.00,2.00,79.69,-9.94,8.88,-4.69,-14.12,20.56,69.52,3.38
61.00,0.00,289.56,14.56,-139.56,36.94,15.06,4.44,70.74,3.40
61.00,1.00,323.31,5.75,-58.50,-3.19,12.50,9.00,70.74,3.40
61.00,2.00,79.25,-9.75,8.88,-3.69,-12.75,19.94,70.74,3.40
61.00,0.00,289.38,14.81,-140.00,33.62,16.06,4.75,71.87,3.42
61.00,1.00,323.00,5.75,-58.44,-3.44,11.81,8.69,71.87,3.42
61.00,2.00,78.88,-9.56,8.88,-3.69,-11.38,18.75,71.87,3.42
61.00,0.00,289.19,14.94,-140.25,29.56,14.31,3.69,72.89,3.44
61.00,1.00,322.75,5.75,-58.38,-2.62,10.12,7.69,72.89,3.44
61.00,2.00,78.50,-9.44,8.88,-4.38,-10.75,17.38,72.89,3.44
61.00,0.00,289.00,15.12,-140.44,28.62,13.50,5.19,73.85,3.46
61.00,1.00,322.56,5.75,-58.31,-2.25,8.31,6.44,73.85,3.46
61.00,2.00,78.19,-9.31,8.88,-3.25,-10.31,15.31,73.85,3.46
61.00,0.00,288.88,15.31,-140.62,25.75,14.12,6.69,74.70,3.48
61.00,1.00,322.38,5.75,-58.25,-2.12,6.56,6.06,74.70,3.48
61.00,2.00,77.88,-9.19,8.88,-2.38,-9.62,13.81,74.70,3.48
61.00,0.00,288.81,15.44,-140.75,21.88,12.00,6.00,75.40,3.50
61.00,1.00,322.25,5.81,-58.19,-2.38,5.38,5.44,75.40,3.50
61.00,2.00,77.62,-9.00,8.88,-1.38,-8.94,11.81,75.40,3.50
61.00,0.00,288.75,15.62,-140.94,19.31,11.12,5.06,76.00,3.52
61.00,1.00,322.06,5.81,-58.12,-2.38,6.38,5.81,76.00,3.52
61.00,2.00,77.44,-8.88,8.88,-0.69,-8.06,10.69,76.00,3.52
61.00,0.00,288.69,15.75,-141.06,12.50,7.69,2.62,76.43,3.54
61.00,1.00,321.88,5.88,-58.06,-2.81,6.56,6.75,76.43,3.54
61.00,2.00,77.19,-8.81,8.81,-1.62,-7.44,10.50,76.43,3.54
61.00,0.00,288.62,15.88,-141.25,11.19,6.00,2.75,76.88,3.56
61.00,1.00,321.62,5.94,-58.00,-3.50,7.44,6.50,76.88,3.56
61.00,2.00,77.00,-8.69,8.88,-3.69,-7.88,10.31,76.88,3.56
61.00,0.00,288.62,16.06,-141.44,8.44,8.44,4.50,77.28,3.58
61.00,1.00,321.44,5.94,-57.94,-3.06,7.50,6.00,77.28,3.58
61.00,2.00,76.75,-8.56,8.88,-5.00,-7.38,10.44,77.28,3.58
61.00,0.00,288.62,16.25,-141.56,6.25,8.31,3.81,77.61,3.60
61.00,1.00,321.25,5.94,-57.88,-3.25,8.06,5.69,77.61,3.60
61.00,2.00,76.50,-8.50,8.94,-4.50,-6.62,10.75,77.61,3.60
61.00,0.00,288.69,16.44,-141.62,6.19,10.06,5.38,77.92,3.62
61.00,1.00,321.06,6.00,-57.81,-2.56,8.25,7.12,77.92,3.62
61.00,2.00,76.31,-8.38,9.00,-4.31,-5.50,10.56,77.92,3.62
61.00,0.00,288.69,16.69,-141.69,5.00,12.44,6.12,78.24,3.64
61.00,1.00,320.81,6.00,-57.69,-3.69,8.50,6.62,78.24,3.64
61.00,2.00,76.06,-8.31,9.06,-5.44,-5.88,10.00,78.24,3.64
61.00,0.00,288.69,16.94,-141.75,4.19,11.88,5.19,78.57,3.66
61.00,1.00,320.62,6.00,-57.62,-4.62,8.25,6.25,78.57,3.66
61.00,2.00,75.88,-8.19,9.12,-6.88,-6.75,9.62,78.57,3.66
61.00,0.00,288.69,17.12,-141.81,3.50,11.38,2.62,78.87,3.68
61.00,1.00,320.44,6.06,-57.50,-4.25,7.31,5.69,78.87,3.68
61.00,2.00,75.69,-8.12,9.25,-6.56,-7.69,8.12,78.87,3.68
61.00,0.00,288.56,17.31,-141.81,4.88,10.12,1.12,79.18,3.70
61.00,1.00,320.25,6.06,-57.44,-3.12,6.44,5.38,79.18,3.70
61.00,2.00,75.50,-8.00,9.31,-5.44,-7.06,7.69,79.18,3.70
61.00,0.00,288.50,17.44,-141.81,4.06,10.94,-0.50,79.43,3.72
61.00,1.00,320.12,6.06,-57.31,-3.00,5.75,4.81,79.43,3.72
61.00,2.00,75.38,-7.88,9.38,-4.19,-6.62,7.31,79.43,3.72
61.00,0.00,288.38,17.50,-141.81,3.19,9.88,-3.06,79.63,3.74
61.00,1.00,319.94,6.12,-57.25,-2.75,5.31,4.62,79.63,3.74
61.00,2.00,75.19,-7.81,9.44,-3.38,-5.25,7.00,79.63,3.74
61.00,0.00,288.19,17.56,-141.81,3.06,9.38,-4.94,79.82,3.76
61.00,1.00,319.81,6.12,-57.19,-2.56,4.69,4.19,79.82,3.76
61.00,2.00,75.06,-7.69,9.50,-3.38,-4.88,6.50,79.82,3.76
61.00,0.00,287.94,17.56,-141.75,2.94,9.31,-6.31,80.02,3.78
61.00,1.00,319.69,6.12,-57.12,-2.31,4.31,3.81,80.02,3.78
61.00,2.00,74.94,-7.62,9.56,-3.62,-4.62,6.31,80.02,3.78
61.00,0.00,287.75,17.56,-141.75,3.50,9.12,-7.00,80.22,3.80
61.00,1.00,319.62,6.12,-57.12,-2.00,3.75,3.31,80.22,3.80
61.00,2.00,74.81,-7.56,9.62,-3.00,-3.56,5.44,80.22,3.80
61.00,0.00,287.50,17.62,-141.69,2.25,9.12,-8.00,80.39,3.82
61.00,1.00,319.56,6.12,-57.06,-2.56,3.06,2.19,80.39,3.82
61.00,2.00,74.69,-7.56,9.62,-3.44,-2.25,5.12,80.39,3.82
61.00,0.00,287.25,17.56,-141.62,0.56,7.38,-8.88,80.53,3.84
61.00,1.00,319.50,6.12,-57.00,-2.69,3.00,1.50,80.53,3.84
61.00,2.00,74.62,-7.56,9.69,-4.12,-0.38,4.75,80.53,3.84
61.00,0.00,287.06,17.50,-141.56,-0.31,4.69,-9.50,80.67,3.86
61.00,1.00,319.44,6.12,-56.94,-3.38,3.25,0.56,80.67,3.86
61.00,2.00,74.50,-7.56,9.81,-4.94,0.12,4.19,80.67,3.86
61.00,0.00,286.81,17.44,-141.50,-0.12,1.81,-8.88,80.81,3.88
61.00,1.00,319.44,6.12,-56.88,-3.94,3.50,0.19,80.81,3.88
61.00,2.00,74.44,-7.56,9.88,-4.69,0.81,3.62,80.81,3.88
61.00,0.00,286.69,17.31,-141.50,1.19,-1.06,-6.38,81.01,3.90
61.00,1.00,319.38,6.06,-56.81,-4.56,4.06,0.12,81.01,3.90
61.00,2.00,74.38,-7.62,9.94,-5.50,1.38,3.12,81.01,3.90
61.00,0.00,286.56,17.25,-141.44,-0.44,-2.06,-5.94,81.19,3.92
61.00,1.00,319.38,6.00,-56.75,-4.75,4.38,0.12,81.19,3.92
61.00,2.00,74.31,-7.69,10.06,-6.38,1.25,2.94,81.19,3.92
61.00,0.00,286.50,17.06,-141.38,-3.19,-5.06,-8.00,81.29,3.94
61.00,1.00,319.31,6.00,-56.62,-4.88,4.44,-0.06,81.29,3.94
61.00,2.00,74.25,-7.69,10.19,-6.44,1.25,2.75,81.29,3.94
61.00,0.00,286.38,16.88,-141.31,-2.44,-6.69,-6.69,81.40,3.96
61.00,1.00,319.25,5.94,-56.50,-4.94,4.75,0.12,81.40,3.96
61.00,2.00,74.19,-7.75,10.25,-6.25,1.62,2.31,81.40,3.96
61.00,0.00,286.38,16.75,-141.31,-1.31,-5.25,-3.62,81.55,3.98
61.00,1.00,319.19,5.88,-56.44,-5.00,5.38,0.81,81.55,3.98
61.00,2.00,74.12,-7.81,10.38,-6.38,1.81,2.50,81.55,3.98
61.00,0.00,286.38,16.69,-141.25,-2.50,-5.25,-2.50,81.69,4.00
61.00,1.00,319.12,5.81,-56.31,-4.62,5.44,0.62,81.69,4.00
61.00,2.00,74.06,-7.81,10.50,-6.88,1.88,2.69,81.69,4.00
61.00,0.00,286.31,16.56,-141.19,-3.81,-6.50,-3.12,81.79,4.02
61.00,1.00,319.12,5.75,-56.19,-4.38,5.00,0.44,81.79,4.02
61.00,2.00,74.00,-7.88,10.62,-7.12,1.81,2.12,81.79,4.02
61.00,0.00,286.31,16.38,-141.12,-4.06,-7.94,-3.44,81.84,4.04
61.00,1.00,319.06,5.69,-56.12,-4.38,4.75,-0.12,81.84,4.04
61.00,2.00,74.00,-7.94,10.75,-5.88,2.44,1.25,81.84,4.04
61.00,0.00,286.31,16.31,-141.06,-3.69,-9.81,-2.75,81.89,4.06
61.00,1.00,319.00,5.69,-56.00,-4.31,4.81,-0.12,81.89,4.06
61.00,2.00,74.00,-8.00,10.88,-5.19,2.81,0.25,81.89,4.06
61.00,0.00,286.38,16.06,-141.06,-2.81,-9.25,-2.06,81.94,4.08
61.00,1.00,318.94,5.62,-55.94,-4.31,3.88,-0.69,81.94,4.08
61.00,2.00,74.00,-8.00,10.94,-4.62,2.56,-0.38,81.94,4.08
61.00,0.00,286.44,15.94,-141.00,-2.75,-7.44,-1.25,81.98,4.10
61.00,1.00,318.94,5.56,-55.88,-4.06,3.12,-1.00,81.98,4.10
61.00,2.00,74.00,-8.06,11.06,-4.06,2.31,-0.75,81.98,4.10
61.00,0.00,286.44,15.88,-141.00,-3.50,-5.50,-1.38,82.00,4.12
61.00,1.00,318.94,5.50,-55.75,-3.88,2.94,-1.06,82.00,4.12
61.00,2.00,74.00,-8.12,11.12,-4.19,1.94,-0.50,82.00,4.12
61.00,0.00,286.50,15.81,-140.94,-3.56,-3.75,-1.75,82.03,4.14
61.00,1.00,318.94,5.44,-55.69,-4.00,2.88,-0.44,82.03,4.14
61.00,2.00,74.00,-8.12,11.19,-4.38,1.62,-0.62,82.03,4.14
61.00,0.00,286.50,15.75,-140.88,-2.50,-4.06,-1.50,82.10,4.16
61.00,1.00,318.88,5.44,-55.62,-4.25,2.88,-0.50,82.10,4.16
61.00,2.00,74.00,-8.19,11.25,-5.12,1.00,0.06,82.10,4.16
61.00,0.00,286.50,15.69,-140.88,-1.00,-2.38,0.12,82.23,4.18
61.00,1.00,318.88,5.38,-55.56,-3.56,3.25,-0.69,82.23,4.18
61.00,2.00,74.00,-8.19,11.38,-5.06,1.12,0.00,82.23,4.18
61.00,0.00,286.50,15.62,-140.88,-2.06,-1.44,-0.62,82.30,4.20
61.00,1.00,318.88,5.38,-55.44,-3.19,3.12,-0.44,82.30,4.20
61.00,2.00,73.94,-8.25,11.44,-4.62,1.12,0.75,82.30,4.20
61.00,0.00,286.50,15.62,-140.81,-1.44,-1.88,-0.62,82.39,4.22
61.00,1.00,318.81,5.31,-55.38,-3.00,3.06,-0.56,82.39,4.22
61.00,2.00,73.94,-8.25,11.50,-4.25,1.12,0.81,82.39,4.22
61.00,0.00,286.50,15.56,-140.81,-1.38,-2.06,-0.75,82.46,4.24
61.00,1.00,318.81,5.25,-55.31,-2.62,2.56,-0.69,82.46,4.24
61.00,2.00,73.94,-8.25,11.62,-3.75,1.12,0.75,82.46,4.24
61.00,0.00,286.50,15.56,-140.81,-1.50,-1.81,-0.88,82.51,4.26
61.00,1.00,318.81,5.25,-55.25,-2.69,2.75,-0.81,82.51,4.26
61.00,2.00,73.94,-8.31,11.69,-3.12,1.38,0.38,82.51,4.26
61.00,0.00,286.50,15.50,-140.75,-2.00,-2.19,-0.62,82.55,4.28
61.00,1.00,318.81,5.19,-55.25,-1.38,3.44,0.19,82.55,4.28
61.00,2.00,73.88,-8.38,11.69,-3.19,1.56,0.75,82.55,4.28
61.00,0.00,286.56,15.44,-140.75,-2.75,-2.81,-0.81,82.58,4.30
61.00,1.00,318.75,5.12,-55.19,-1.69,2.88,1.00,82.58,4.30
61.00,2.00,73.88,-8.38,11.81,-3.94,0.94,1.38,82.58,4.30
61.00,0.00,286.56,15.38,-140.69,-2.56,-2.69,-1.00,82.63,4.32
61.00,1.00,318.75,5.12,-55.19,-1.69,2.81,0.75,82.63,4.32
61.00,2.00,73.88,-8.38,11.88,-4.12,0.19,1.19,82.63,4.32
61.00,0.00,286.56,15.38,-140.62,-1.94,-2.12,-0.94,82.67,4.34
61.00,1.00,318.69,5.12,-55.12,-1.12,1.19,-0.12,82.67,4.34
61.00,2.00,73.81,-8.38,11.94,-3.19,0.19,0.81,82.67,4.34
61.00,0.00,286.56,15.31,-140.62,-1.06,-1.81,-1.06,82.69,4.36
61.00,1.00,318.69,5.06,-55.06,-0.56,-0.50,-0.81,82.69,4.36
61.00,2.00,73.81,-8.38,12.00,-1.81,0.25,-0.12,82.69,4.36
61.00,0.00,286.56,15.25,-140.56,1.31,-1.25,-1.12,82.74,4.38
61.00,1.00,318.75,5.06,-55.06,0.00,-2.31,-1.44,82.74,4.38
61.00,2.00,73.81,-8.38,12.00,-0.56,0.50,-1.69,82.74,4.38
61.00,0.00,286.50,15.25,-140.56,3.06,-1.00,-1.19,82.79,4.40
61.00,1.00,318.81,5.00,-55.06,1.00,-3.75,-1.62,82.79,4.40
61.00,2.00,73.88,-8.38,12.00,1.62,0.62,-3.19,82.79,4.40
61.00,0.00,286.50,15.19,-140.62,3.56,-1.00,-1.06,82.81,4.42
61.00,1.00,318.94,5.00,-55.06,1.25,-4.19,-1.69,82.81,4.42
61.00,2.00,74.00,-8.44,12.00,2.94,0.69,-4.56,82.81,4.42
61.00,0.00,286.44,15.19,-140.69,5.00,-1.94,-0.69,82.84,4.44
61.00,1.00,319.00,5.00,-55.06,1.94,-5.38,-1.31,82.84,4.44
61.00,2.00,74.06,-8.44,12.00,3.94,0.38,-5.38,82.84,4.44
61.00,0.00,286.44,15.12,-140.81,6.62,-2.44,0.50,82.91,4.46
61.00,1.00,319.12,5.00,-55.06,2.56,-5.56,-1.06,82.91,4.46
61.00,2.00,74.19,-8.44,11.94,4.12,-0.62,-5.50,82.91,4.46
61.00,0.00,286.44,15.06,-140.94,5.31,-3.44,0.44,82.94,4.48
61.00,1.00,319.19,5.00,-55.12,3.38,-6.38,-1.12,82.94,4.48
61.00,2.00,74.31,-8.38,11.94,4.38,-0.94,-5.62,82.94,4.48
61.00,0.00,286.44,15.00,-141.00,3.06,-4.12,0.06,82.88,4.50
61.00,1.00,319.31,5.06,-55.19,4.12,-5.50,-0.50,82.88,4.50
61.00,2.00,74.44,-8.44,11.81,5.06,1.12,-5.50,82.88,4.50
