Iteration,IMUNo,OrientationX (deg),OrientationY,OrientationZ,GyroX (20rad/sec),GyroY,GyroZ,Elbow_Pos (rad),Time (sec)
63.00,0.00,118.62,-3.31,-90.31,-1.06,-0.31,2.62,0.03,1.00
63.00,1.00,330.94,0.94,-55.00,-1.00,0.31,2.75,0.03,1.00
63.00,2.00,94.31,-15.69,18.88,-1.25,-3.06,0.50,0.03,1.02
63.00,0.00,118.56,-3.25,-90.25,-0.88,0.62,2.38,0.03,1.02
63.00,1.00,330.88,0.94,-54.94,-0.62,0.19,2.62,0.03,1.02
63.00,2.00,94.31,-15.69,18.94,-0.94,-2.88,0.56,0.03,1.02
63.00,0.00,118.50,-3.25,-90.31,-0.56,1.12,1.75,0.03,1.04
63.00,1.00,330.88,1.00,-55.00,0.44,0.19,2.31,0.03,1.04
63.00,2.00,94.31,-15.62,18.88,-0.50,-2.19,0.62,0.03,1.04
63.00,0.00,118.44,-3.19,-90.31,-0.38,1.25,1.44,0.05,1.06
63.00,1.00,330.81,1.00,-55.00,-0.31,0.25,1.94,0.05,1.06
63.00,2.00,94.31,-15.56,18.88,-1.19,-1.94,0.75,0.05,1.06
63.00,0.00,118.44,-3.19,-90.31,-0.69,1.50,0.56,0.08,1.08
63.00,1.00,330.81,1.06,-55.00,-0.69,0.81,1.69,0.08,1.08
63.00,2.00,94.25,-15.56,18.94,-1.56,-1.62,0.62,0.08,1.08
63.00,0.00,118.38,-3.19,-90.25,-0.94,1.25,0.50,0.10,1.10
63.00,1.00,330.75,1.06,-54.94,-1.69,0.94,0.94,0.10,1.10
63.00,2.00,94.25,-15.56,18.94,-1.69,-1.12,1.00,0.10,1.10
63.00,0.00,118.38,-3.19,-90.25,-0.75,0.81,0.00,0.11,1.12
63.00,1.00,330.69,1.06,-54.94,-2.19,1.31,0.56,0.11,1.12
63.00,2.00,94.25,-15.50,18.94,-1.31,-0.50,0.50,0.11,1.12
63.00,0.00,118.31,-3.19,-90.25,-0.56,0.31,-0.38,0.14,1.14
63.00,1.00,330.69,1.06,-54.88,-1.69,1.75,0.50,0.14,1.14
63.00,2.00,94.19,-15.50,19.00,-1.56,-0.31,0.25,0.14,1.14
63.00,0.00,118.31,-3.19,-90.25,-0.88,-0.44,-0.44,0.16,1.16
63.00,1.00,330.69,1.06,-54.88,-1.38,1.56,0.31,0.16,1.16
63.00,2.00,94.19,-15.50,19.00,-1.69,-0.56,0.19,0.16,1.16
63.00,0.00,118.38,-3.19,-90.25,-0.81,-0.75,-0.88,0.19,1.18
63.00,1.00,330.69,1.06,-54.88,-0.94,1.56,0.38,0.19,1.18
63.00,2.00,94.19,-15.50,19.06,-1.81,-0.56,0.50,0.19,1.18
63.00,0.00,118.38,-3.19,-90.19,-0.56,-1.31,-0.69,0.21,1.20
63.00,1.00,330.62,1.06,-54.81,-0.88,1.62,0.12,0.21,1.20
63.00,2.00,94.19,-15.56,19.06,-1.56,-0.50,0.75,0.21,1.20
63.00,0.00,118.44,-3.19,-90.25,-0.44,-0.88,-0.75,0.25,1.22
63.00,1.00,330.62,1.00,-54.81,-0.69,1.44,0.00,0.25,1.22
63.00,2.00,94.19,-15.56,19.06,-1.88,-0.31,0.44,0.25,1.22
63.00,0.00,118.44,-3.19,-90.19,-0.56,-0.69,-0.50,0.29,1.24
63.00,1.00,330.62,1.00,-54.81,0.06,1.50,0.31,0.29,1.24
63.00,2.00,94.19,-15.56,19.12,-2.06,-0.12,0.25,0.29,1.24
63.00,0.00,118.44,-3.19,-90.25,-0.56,0.12,-0.12,0.33,1.26
63.00,1.00,330.62,1.00,-54.81,-0.25,1.19,0.38,0.33,1.26
63.00,2.00,94.12,-15.56,19.12,-2.12,-0.19,0.62,0.33,1.26
63.00,0.00,118.44,-3.19,-90.19,-1.25,0.38,0.00,0.36,1.28
63.00,1.00,330.56,0.94,-54.88,-0.31,1.00,0.38,0.36,1.28
63.00,2.00,94.12,-15.56,19.19,-2.38,-0.44,0.69,0.36,1.28
63.00,0.00,118.44,-3.19,-90.19,-1.31,0.56,0.12,0.40,1.30
63.00,1.00,330.56,0.94,-54.88,0.50,0.69,0.69,0.40,1.30
63.00,2.00,94.12,-15.56,19.19,-2.50,-0.25,0.44,0.40,1.30
63.00,0.00,118.38,-3.19,-90.12,-2.12,0.69,0.00,0.41,1.32
63.00,1.00,330.56,0.94,-54.88,1.62,0.62,1.00,0.41,1.32
63.00,2.00,94.12,-15.56,19.25,-2.81,-0.44,0.56,0.41,1.32
63.00,0.00,118.38,-3.19,-90.12,-2.19,1.12,0.12,0.42,1.34
63.00,1.00,330.56,1.00,-54.94,1.00,0.38,0.62,0.42,1.34
63.00,2.00,94.12,-15.56,19.31,-2.44,-0.31,0.44,0.42,1.34
63.00,0.00,118.31,-3.19,-90.06,-1.75,1.38,0.19,0.43,1.36
63.00,1.00,330.56,1.00,-54.94,0.94,0.00,0.25,0.43,1.36
63.00,2.00,94.12,-15.56,19.31,-2.00,-0.31,0.31,0.43,1.36
63.00,0.00,118.31,-3.19,-90.06,-0.94,1.06,0.25,0.45,1.38
63.00,1.00,330.56,1.00,-54.94,1.69,-0.12,0.25,0.45,1.38
63.00,2.00,94.12,-15.56,19.38,-1.62,0.00,0.44,0.45,1.38
63.00,0.00,118.31,-3.19,-90.06,-0.31,1.31,0.56,0.46,1.40
63.00,1.00,330.56,0.94,-55.00,1.94,-0.06,-0.06,0.46,1.40
63.00,2.00,94.12,-15.62,19.38,-0.75,0.12,0.38,0.46,1.40
63.00,0.00,118.31,-3.19,-90.06,0.38,0.19,0.50,0.47,1.42
63.00,1.00,330.56,0.94,-55.00,0.19,0.19,-1.00,0.47,1.42
63.00,2.00,94.12,-15.62,19.38,-0.19,0.19,0.31,0.47,1.42
63.00,0.00,118.31,-3.19,-90.06,1.44,-1.00,0.31,0.50,1.44
63.00,1.00,330.56,0.94,-55.00,-1.56,0.00,-1.94,0.50,1.44
63.00,2.00,94.12,-15.62,19.38,0.56,0.75,-0.25,0.50,1.44
63.00,0.00,118.38,-3.19,-90.12,2.38,-2.62,-0.06,0.55,1.46
63.00,1.00,330.62,0.94,-54.94,-1.56,-0.06,-2.06,0.55,1.46
63.00,2.00,94.12,-15.62,19.44,0.31,1.88,-0.94,0.55,1.46
63.00,0.00,118.44,-3.19,-90.12,2.94,-4.56,-0.44,0.64,1.48
63.00,1.00,330.62,0.88,-54.94,-0.38,0.00,-3.06,0.64,1.48
63.00,2.00,94.19,-15.69,19.44,-0.38,3.00,-1.62,0.64,1.48
63.00,0.00,118.62,-3.25,-90.19,3.50,-6.75,-0.75,0.79,1.50
63.00,1.00,330.69,0.81,-54.94,-0.44,-0.38,-3.31,0.79,1.50
63.00,2.00,94.19,-15.75,19.50,-2.06,4.81,-2.50,0.79,1.50
63.00,0.00,118.81,-3.25,-90.25,3.88,-9.25,-0.81,1.00,1.52
63.00,1.00,330.81,0.81,-55.00,0.25,-1.25,-4.38,1.00,1.52
63.00,2.00,94.31,-15.81,19.56,-4.06,6.00,-3.75,1.00,1.52
63.00,0.00,119.00,-3.25,-90.31,3.44,-10.94,-1.06,1.19,1.54
63.00,1.00,330.88,0.75,-55.00,-3.00,-0.25,-5.31,1.19,1.54
63.00,2.00,94.38,-15.88,19.62,-3.81,6.25,-5.00,1.19,1.54
63.00,0.00,119.31,-3.31,-90.38,2.88,-12.00,-2.06,1.34,1.56
63.00,1.00,331.00,0.69,-54.94,-3.81,-0.62,-5.50,1.34,1.56
63.00,2.00,94.50,-15.94,19.75,-2.81,5.62,-5.31,1.34,1.56
63.00,0.00,119.56,-3.38,-90.38,1.19,-12.31,-2.44,1.43,1.58
63.00,1.00,331.12,0.62,-54.88,-2.12,-2.19,-3.19,1.43,1.58
63.00,2.00,94.62,-16.00,19.81,-2.31,3.38,-5.62,1.43,1.58
63.00,0.00,119.88,-3.44,-90.38,-0.75,-10.31,-2.31,1.47,1.60
63.00,1.00,331.19,0.56,-54.88,-1.69,-2.38,-2.75,1.47,1.60
63.00,2.00,94.69,-16.00,19.94,-2.12,1.44,-5.00,1.47,1.60
63.00,0.00,120.06,-3.44,-90.31,-1.12,-6.69,-1.88,1.46,1.62
63.00,1.00,331.25,0.56,-54.81,-2.00,-2.88,-1.75,1.46,1.62
63.00,2.00,94.81,-16.00,19.94,-0.88,-0.06,-4.56,1.46,1.62
63.00,0.00,120.12,-3.50,-90.31,-0.62,-3.44,-1.56,1.43,1.64
63.00,1.00,331.31,0.56,-54.75,-0.62,-1.88,1.06,1.43,1.64
63.00,2.00,94.88,-16.00,20.00,0.56,-0.56,-3.94,1.43,1.64
63.00,0.00,120.12,-3.44,-90.38,-0.19,-0.50,-0.62,1.38,1.66
63.00,1.00,331.31,0.56,-54.75,-1.00,-1.69,0.62,1.38,1.66
63.00,2.00,94.94,-16.00,20.00,1.81,-1.19,-3.19,1.38,1.66
63.00,0.00,120.00,-3.38,-90.44,0.38,3.00,0.81,1.33,1.68
63.00,1.00,331.31,0.56,-54.75,0.06,-1.75,0.88,1.33,1.68
63.00,2.00,95.00,-15.94,19.94,2.25,-1.12,-1.56,1.33,1.68
63.00,0.00,119.88,-3.31,-90.50,0.69,5.62,2.12,1.26,1.70
63.00,1.00,331.31,0.62,-54.75,1.88,-1.19,2.25,1.26,1.70
63.00,2.00,95.00,-15.94,19.88,3.25,-1.75,-0.19,1.26,1.70
63.00,0.00,119.69,-3.25,-90.56,0.81,7.50,2.62,1.21,1.72
63.00,1.00,331.25,0.69,-54.81,2.12,-0.06,2.19,1.21,1.72
63.00,2.00,95.00,-15.88,19.81,2.81,-2.44,1.56,1.21,1.72
63.00,0.00,119.44,-3.19,-90.56,0.75,8.88,1.94,1.20,1.74
63.00,1.00,331.19,0.69,-54.88,2.25,0.88,3.56,1.20,1.74
63.00,2.00,94.88,-15.88,19.69,1.00,-3.25,2.88,1.20,1.74
63.00,0.00,119.25,-3.19,-90.62,1.00,9.50,1.31,1.22,1.76
63.00,1.00,331.06,0.75,-54.88,2.19,1.88,5.75,1.22,1.76
63.00,2.00,94.81,-15.88,19.62,0.25,-3.81,3.94,1.22,1.76
63.00,0.00,119.06,-3.19,-90.62,1.25,9.06,1.62,1.21,1.78
63.00,1.00,330.94,0.88,-54.94,1.69,2.00,6.25,1.21,1.78
63.00,2.00,94.69,-15.81,19.56,1.81,-3.94,4.75,1.21,1.78
63.00,0.00,118.81,-3.12,-90.69,0.81,7.88,3.06,1.12,1.80
63.00,1.00,330.81,0.94,-55.00,2.50,3.06,6.19,1.12,1.80
63.00,2.00,94.62,-15.81,19.44,3.88,-2.38,5.94,1.12,1.80
63.00,0.00,118.62,-3.00,-90.69,0.44,3.19,5.38,1.09,1.82
63.00,1.00,330.62,1.00,-55.06,2.75,4.44,7.31,1.09,1.82
63.00,2.00,94.44,-15.81,19.31,1.62,-3.31,6.12,1.09,1.82
63.00,0.00,118.56,-2.88,-90.69,-0.50,-3.56,6.44,1.05,1.84
63.00,1.00,330.38,1.06,-55.06,1.94,5.94,8.50,1.05,1.84
63.00,2.00,94.31,-15.81,19.25,1.00,-6.19,4.94,1.05,1.84
63.00,0.00,118.62,-2.81,-90.62,-2.50,-8.75,4.38,0.99,1.86
63.00,1.00,330.19,1.12,-55.12,0.56,5.56,8.38,0.99,1.86
63.00,2.00,94.25,-15.69,19.25,0.00,-9.06,4.31,0.99,1.86
63.00,0.00,118.75,-2.75,-90.50,-4.19,-11.56,3.44,0.85,1.88
63.00,1.00,330.00,1.19,-55.12,0.62,4.25,7.56,0.85,1.88
63.00,2.00,94.12,-15.50,19.19,0.88,-8.38,3.81,0.85,1.88
63.00,0.00,118.94,-2.69,-90.44,-5.00,-12.75,4.88,0.67,1.90
63.00,1.00,329.81,1.25,-55.12,1.25,2.69,6.12,0.67,1.90
63.00,2.00,94.06,-15.38,19.12,1.75,-7.94,0.50,0.67,1.90
63.00,0.00,119.00,-2.56,-90.31,-4.81,-10.50,7.25,0.52,1.92
63.00,1.00,329.75,1.25,-55.19,1.19,0.38,3.62,0.52,1.92
63.00,2.00,94.06,-15.25,19.12,1.06,-8.06,-2.00,0.52,1.92
63.00,0.00,119.00,-2.38,-90.25,-3.69,-6.19,8.06,0.42,1.94
63.00,1.00,329.75,1.31,-55.25,1.25,-2.25,-0.44,0.42,1.94
63.00,2.00,94.12,-15.06,19.12,-0.19,-7.12,-2.44,0.42,1.94
63.00,0.00,118.88,-2.19,-90.19,-2.94,-2.50,7.75,0.40,1.96
63.00,1.00,329.81,1.31,-55.25,-1.12,-3.69,-2.75,0.40,1.96
63.00,2.00,94.12,-14.94,19.12,-2.12,-6.19,-2.62,0.40,1.96
63.00,0.00,118.75,-2.06,-90.19,-1.19,0.19,7.56,0.41,1.98
63.00,1.00,329.88,1.31,-55.19,-1.62,-4.12,-0.88,0.41,1.98
63.00,2.00,94.12,-14.81,19.19,-1.62,-6.88,-2.81,0.41,1.98
63.00,0.00,118.56,-1.88,-90.25,2.19,2.19,7.88,0.42,2.00
63.00,1.00,329.94,1.38,-55.19,-1.56,-5.44,0.81,0.42,2.00
63.00,2.00,94.19,-14.62,19.19,1.81,-8.25,-2.94,0.42,2.00
63.00,0.00,118.31,-1.75,-90.44,7.31,3.38,8.50,0.46,2.02
63.00,1.00,330.00,1.50,-55.19,2.12,-7.62,0.12,0.46,2.02
63.00,2.00,94.25,-14.50,19.06,5.88,-8.44,-2.62,0.46,2.02
63.00,0.00,118.12,-1.56,-90.75,12.56,3.25,8.50,0.59,2.04
63.00,1.00,330.12,1.56,-55.25,4.38,-9.06,0.12,0.59,2.04
63.00,2.00,94.25,-14.31,18.94,7.62,-7.19,-2.00,0.59,2.04
63.00,0.00,117.94,-1.44,-91.12,17.94,2.25,8.50,0.90,2.06
63.00,1.00,330.12,1.69,-55.38,5.44,-8.00,2.81,0.90,2.06
63.00,2.00,94.25,-14.19,18.75,6.31,-7.69,-0.56,0.90,2.06
63.00,0.00,117.81,-1.31,-91.62,21.56,1.56,7.62,1.30,2.08
63.00,1.00,330.12,1.81,-55.50,6.88,-6.38,6.31,1.30,2.08
63.00,2.00,94.25,-14.06,18.62,6.75,-8.12,0.81,1.30,2.08
63.00,0.00,117.62,-1.19,-92.12,24.75,1.31,7.19,1.68,2.10
63.00,1.00,330.00,2.00,-55.62,6.81,-5.06,7.75,1.68,2.10
63.00,2.00,94.25,-13.94,18.44,10.31,-7.44,2.00,1.68,2.10
63.00,0.00,117.44,-1.00,-92.62,28.56,2.19,8.12,2.09,2.12
63.00,1.00,329.94,2.19,-55.75,7.69,-4.94,8.19,2.09,2.12
63.00,2.00,94.19,-13.81,18.19,12.94,-6.31,3.50,2.09,2.12
63.00,0.00,117.19,-0.81,-93.25,32.19,4.50,9.81,2.55,2.14
63.00,1.00,329.81,2.38,-55.88,8.69,-4.38,9.38,2.55,2.14
63.00,2.00,94.06,-13.75,17.88,15.06,-6.06,5.44,2.55,2.14
63.00,0.00,116.88,-0.62,-93.94,36.38,7.06,12.06,3.12,2.16
63.00,1.00,329.62,2.56,-56.06,8.31,-2.44,11.00,3.12,2.16
63.00,2.00,93.94,-13.69,17.50,15.00,-7.12,7.94,3.12,2.16
63.00,0.00,116.38,-0.31,-94.69,43.00,9.31,14.88,3.99,2.18
63.00,1.00,329.38,2.75,-56.19,5.75,2.44,12.69,3.99,2.18
63.00,2.00,93.75,-13.56,17.25,10.06,-10.19,11.88,3.99,2.18
63.00,0.00,115.88,0.00,-95.69,52.88,10.50,17.56,5.25,2.20
63.00,1.00,329.00,2.94,-56.25,2.38,6.12,15.69,5.25,2.20
63.00,2.00,93.44,-13.38,17.00,5.56,-15.12,15.62,5.25,2.20
63.00,0.00,115.19,0.38,-96.88,61.25,14.06,20.69,6.78,2.22
63.00,1.00,328.62,3.12,-56.25,0.62,6.19,17.19,6.78,2.22
63.00,2.00,93.06,-13.12,16.88,3.88,-19.94,17.06,6.78,2.22
63.00,0.00,114.31,0.81,-98.12,66.56,22.50,20.38,8.39,2.24
63.00,1.00,328.25,3.38,-56.25,1.00,4.62,16.50,8.39,2.24
63.00,2.00,92.69,-12.88,16.62,5.75,-21.25,17.25,8.39,2.24
63.00,0.00,113.25,1.31,-99.44,71.06,31.75,21.12,10.04,2.26
63.00,1.00,327.88,3.56,-56.25,2.19,3.62,14.62,10.04,2.26
63.00,2.00,92.31,-12.62,16.38,9.06,-16.12,18.31,10.04,2.26
63.00,0.00,111.88,1.88,-100.88,77.31,39.00,24.00,11.75,2.28
63.00,1.00,327.56,3.69,-56.31,3.44,6.62,12.50,11.75,2.28
63.00,2.00,91.94,-12.50,16.06,13.06,-10.00,20.56,11.75,2.28
63.00,0.00,110.31,2.56,-102.44,82.50,41.06,26.88,13.59,2.30
63.00,1.00,327.25,3.75,-56.38,5.00,10.25,10.38,13.59,2.30
63.00,2.00,91.50,-12.50,15.69,13.25,-5.69,24.94,13.59,2.30
63.00,0.00,108.62,3.25,-104.06,85.00,42.44,27.62,15.51,2.32
63.00,1.00,326.94,3.81,-56.44,5.56,12.38,8.88,15.51,2.32
63.00,2.00,90.94,-12.56,15.31,12.56,-5.25,28.81,15.51,2.32
63.00,0.00,106.88,3.94,-105.62,85.38,43.25,25.81,17.44,2.34
63.00,1.00,326.62,3.81,-56.56,5.56,13.00,8.06,17.44,2.34
63.00,2.00,90.38,-12.56,14.94,12.81,-9.00,30.81,17.44,2.34
63.00,0.00,105.12,4.69,-107.25,86.06,43.69,24.94,19.18,2.36
63.00,1.00,326.38,3.81,-56.62,5.75,12.38,8.00,19.18,2.36
63.00,2.00,89.75,-12.50,14.44,20.81,-14.06,32.69,19.18,2.36
63.00,0.00,103.38,5.31,-108.81,81.44,40.44,20.44,20.65,2.38
63.00,1.00,326.06,3.81,-56.75,5.69,11.94,8.56,20.65,2.38
63.00,2.00,89.12,-12.38,13.75,26.19,-15.69,34.44,20.65,2.38
63.00,0.00,101.75,5.88,-110.25,75.62,37.56,17.56,22.14,2.40
63.00,1.00,325.75,3.81,-56.81,4.69,14.19,11.00,22.14,2.40
63.00,2.00,88.38,-12.19,13.19,19.38,-18.31,37.69,22.14,2.40
63.00,0.00,100.19,6.44,-111.56,69.62,37.06,16.25,23.77,2.42
63.00,1.00,325.25,3.88,-56.88,3.31,17.12,15.00,23.77,2.42
63.00,2.00,87.56,-11.94,12.81,8.50,-24.31,41.06,23.77,2.42
63.00,0.00,98.69,6.94,-112.75,64.19,34.69,12.19,25.41,2.44
63.00,1.00,324.75,4.00,-56.88,0.56,19.25,17.81,25.41,2.44
63.00,2.00,86.75,-11.62,12.56,2.38,-26.38,38.56,25.41,2.44
63.00,0.00,97.94,7.19,-113.38,61.62,34.19,7.44,27.13,2.46
63.00,1.00,324.12,4.12,-56.88,-3.25,21.25,19.69,27.13,2.46
63.00,2.00,86.06,-11.25,12.44,-3.31,-27.00,32.56,27.13,2.46
63.00,0.00,96.56,7.56,-114.44,61.56,35.56,3.88,28.87,2.48
63.00,1.00,323.56,4.19,-56.75,-3.94,20.75,19.75,28.87,2.48
63.00,2.00,85.44,-10.94,12.38,-3.94,-23.00,29.81,28.87,2.48
63.00,0.00,95.19,7.88,-115.56,63.88,34.81,3.12,30.62,2.50
63.00,1.00,323.00,4.31,-56.69,-2.75,17.81,17.69,30.62,2.50
63.00,2.00,84.81,-10.69,12.31,-1.81,-18.88,28.12,30.62,2.50
63.00,0.00,93.75,8.25,-116.75,65.38,33.56,2.81,32.35,2.52
63.00,1.00,322.56,4.38,-56.56,-3.31,15.62,13.75,32.35,2.52
63.00,2.00,84.25,-10.50,12.19,0.31,-14.19,25.44,32.35,2.52
63.00,0.00,92.31,8.56,-117.94,63.75,29.44,1.44,33.95,2.54
63.00,1.00,322.19,4.38,-56.50,-1.38,13.94,9.88,33.95,2.54
63.00,2.00,83.81,-10.38,12.06,3.69,-9.56,23.06,33.95,2.54
63.00,0.00,91.06,8.88,-119.12,64.06,27.25,1.38,35.54,2.56
63.00,1.00,321.88,4.38,-56.44,-0.94,13.06,6.88,35.54,2.56
63.00,2.00,83.38,-10.31,11.94,4.25,-5.69,21.38,35.54,2.56
63.00,0.00,89.81,9.12,-120.25,64.50,21.44,-0.94,37.11,2.58
63.00,1.00,321.69,4.31,-56.44,0.31,10.56,5.19,37.11,2.58
63.00,2.00,83.00,-10.31,11.81,5.44,-3.25,18.69,37.11,2.58
63.00,0.00,88.75,9.31,-121.50,65.50,18.75,-2.75,38.71,2.60
63.00,1.00,321.50,4.25,-56.44,0.31,9.25,4.75,38.71,2.60
63.00,2.00,82.69,-10.31,11.69,5.31,-3.38,18.56,38.71,2.60
63.00,0.00,87.75,9.44,-122.69,66.31,18.06,-3.75,40.22,2.62
63.00,1.00,321.38,4.19,-56.44,1.44,6.81,3.06,40.22,2.62
63.00,2.00,82.31,-10.38,11.44,9.19,-1.50,18.31,40.22,2.62
63.00,0.00,86.75,9.56,-123.94,68.62,16.81,-3.56,41.83,2.64
63.00,1.00,321.25,4.19,-56.50,3.31,6.62,2.94,41.83,2.64
63.00,2.00,82.00,-10.44,11.25,8.38,0.50,17.88,41.83,2.64
63.00,0.00,85.75,9.69,-125.25,68.62,16.44,-3.62,43.57,2.66
63.00,1.00,321.06,4.19,-56.50,2.50,7.75,5.06,43.57,2.66
63.00,2.00,81.62,-10.50,11.06,3.06,0.12,17.06,43.57,2.66
63.00,0.00,84.69,9.81,-126.56,71.56,14.62,-2.94,45.51,2.68
63.00,1.00,320.88,4.19,-56.50,-2.38,9.56,5.50,45.51,2.68
63.00,2.00,81.31,-10.56,11.00,-1.38,-1.81,16.25,45.51,2.68
63.00,0.00,83.62,9.94,-127.88,75.00,13.38,-3.06,47.58,2.70
63.00,1.00,320.69,4.12,-56.44,-3.38,8.88,5.25,47.58,2.70
63.00,2.00,81.00,-10.56,11.00,-2.94,-3.75,15.81,47.58,2.70
63.00,0.00,82.50,10.06,-129.31,76.12,14.12,-2.81,49.68,2.72
63.00,1.00,320.50,4.12,-56.38,-4.25,6.00,3.44,49.68,2.72
63.00,2.00,80.69,-10.50,11.00,-2.88,-3.75,16.06,49.68,2.72
63.00,0.00,81.25,10.19,-130.75,77.12,13.81,-1.31,51.73,2.74
63.00,1.00,320.44,4.06,-56.31,-4.25,5.94,3.06,51.73,2.74
63.00,2.00,80.38,-10.56,10.94,-0.19,-2.25,17.25,51.73,2.74
63.00,0.00,79.88,10.38,-132.25,76.81,13.62,-0.19,53.78,2.76
63.00,1.00,320.31,4.06,-56.31,-4.56,5.56,2.94,53.78,2.76
63.00,2.00,80.19,-10.56,10.88,-0.31,-2.12,17.44,53.78,2.76
63.00,0.00,78.50,10.56,-133.69,76.38,12.56,1.62,55.81,2.78
63.00,1.00,320.19,4.06,-56.19,-4.69,5.75,3.50,55.81,2.78
63.00,2.00,79.69,-10.62,10.75,0.00,-2.94,16.94,55.81,2.78
63.00,0.00,77.19,10.75,-135.12,73.50,8.69,2.38,57.79,2.80
63.00,1.00,320.06,4.06,-56.12,-5.38,6.19,3.56,57.79,2.80
63.00,2.00,79.31,-10.62,10.62,-0.81,-2.62,17.31,57.79,2.80
63.00,0.00,287.19,10.81,-136.44,68.69,4.19,1.75,59.67,2.82
63.00,1.00,319.94,4.00,-56.12,-3.81,7.25,3.62,59.67,2.82
63.00,2.00,79.12,-10.69,10.56,-2.12,-2.69,16.81,59.67,2.82
63.00,0.00,287.06,10.88,-137.75,65.31,-0.25,1.06,61.48,2.84
63.00,1.00,319.75,4.00,-56.00,-4.38,8.31,3.88,61.48,2.84
63.00,2.00,78.62,-10.69,10.44,-2.94,-2.62,17.06,61.48,2.84
63.00,0.00,286.94,10.81,-138.94,61.75,-3.81,0.69,63.19,2.86
63.00,1.00,319.62,4.00,-55.94,-3.50,8.88,3.94,63.19,2.86
63.00,2.00,78.44,-10.69,10.44,-2.44,-3.19,17.12,63.19,2.86
63.00,0.00,286.88,10.75,-140.12,58.25,-6.69,0.69,64.78,2.88
63.00,1.00,319.44,3.94,-55.88,-3.56,9.50,3.56,64.78,2.88
63.00,2.00,77.94,-10.69,10.31,-1.50,-3.19,17.38,64.78,2.88
63.00,0.00,286.81,10.62,-141.19,56.00,-7.25,0.50,66.32,2.90
63.00,1.00,319.25,3.88,-55.88,-2.25,9.12,3.56,66.32,2.90
63.00,2.00,77.56,-10.75,10.25,-2.00,-1.88,17.38,66.32,2.90
63.00,0.00,286.75,10.50,-142.25,53.50,-8.19,-1.88,67.86,2.92
63.00,1.00,319.12,3.88,-55.88,-1.12,8.25,4.25,67.86,2.92
63.00,2.00,77.38,-10.75,10.19,-4.62,-1.50,15.75,67.86,2.92
63.00,0.00,286.62,10.31,-143.19,52.94,-8.69,-3.69,69.49,2.94
63.00,1.00,318.94,3.88,-55.88,-5.56,9.19,5.25,69.49,2.94
63.00,2.00,76.94,-10.75,10.19,-8.31,-1.44,13.31,69.49,2.94
63.00,0.00,286.56,10.12,-144.25,54.88,-8.75,-1.62,71.23,2.96
63.00,1.00,318.75,3.88,-55.75,-5.44,8.44,4.12,71.23,2.96
63.00,2.00,76.81,-10.75,10.25,-10.50,-3.44,13.25,71.23,2.96
63.00,0.00,286.50,10.00,-145.38,54.19,-9.94,0.75,72.90,2.98
63.00,1.00,318.62,3.81,-55.62,-4.81,5.69,1.25,72.90,2.98
63.00,2.00,76.38,-10.75,10.44,-8.75,-3.31,14.06,72.90,2.98
63.00,0.00,286.44,9.81,-146.38,50.62,-11.94,-0.06,74.38,3.00
63.00,1.00,318.56,3.75,-55.56,-3.62,4.25,0.88,74.38,3.00
63.00,2.00,76.12,-10.75,10.50,-4.88,-2.00,12.25,74.38,3.00
63.00,0.00,286.44,9.62,-147.31,48.56,-11.94,-1.50,75.78,3.02
63.00,1.00,318.50,3.75,-55.50,-4.81,4.25,0.62,75.78,3.02
63.00,2.00,75.88,-10.75,10.56,-4.06,-1.75,10.38,75.78,3.02
63.00,0.00,286.31,9.44,-148.25,45.06,-9.25,-3.25,77.13,3.04
63.00,1.00,318.50,3.69,-55.44,-4.50,3.19,0.50,77.13,3.04
63.00,2.00,75.69,-10.75,10.62,-5.88,-3.19,10.75,77.13,3.04
63.00,0.00,286.19,9.25,-149.06,41.25,-5.62,-5.50,78.39,3.06
63.00,1.00,318.44,3.62,-55.31,-4.88,3.81,0.25,78.39,3.06
63.00,2.00,75.56,-10.75,10.62,-6.12,-4.88,10.88,78.39,3.06
63.00,0.00,286.00,9.12,-149.75,35.62,-2.25,-8.00,79.50,3.08
63.00,1.00,318.44,3.62,-55.25,-3.62,3.56,0.56,79.50,3.08
63.00,2.00,75.19,-10.62,10.75,-6.31,-6.00,10.50,79.50,3.08
63.00,0.00,285.81,9.06,-150.12,31.81,-1.06,-9.00,80.49,3.10
63.00,1.00,318.38,3.56,-55.19,-5.31,4.00,0.31,80.49,3.10
63.00,2.00,75.00,-10.56,10.75,-5.38,-6.69,9.88,80.49,3.10
63.00,0.00,285.56,9.00,-150.69,27.44,0.69,-7.94,81.29,3.12
63.00,1.00,318.38,3.50,-55.12,-4.25,3.31,0.06,81.29,3.12
63.00,2.00,74.88,-10.50,10.75,-2.56,-6.81,9.56,81.29,3.12
63.00,0.00,285.44,8.94,-151.12,23.94,1.62,-5.31,82.01,3.14
63.00,1.00,318.31,3.50,-55.06,-4.00,5.94,2.44,82.01,3.14
63.00,2.00,74.56,-10.38,10.75,-3.06,-7.06,8.88,82.01,3.14
63.00,0.00,285.31,8.88,-151.50,19.75,-2.31,-4.88,82.76,3.16
63.00,1.00,318.12,3.50,-55.00,-5.69,8.88,5.12,82.76,3.16
63.00,2.00,74.50,-10.31,10.75,-8.69,-5.94,8.25,82.76,3.16
63.00,0.00,285.19,8.62,-151.81,12.25,-15.69,-6.50,83.44,3.18
63.00,1.00,317.94,3.50,-54.88,-7.75,8.00,4.56,83.44,3.18
63.00,2.00,74.25,-10.25,11.06,-13.25,-1.12,6.19,83.44,3.18
63.00,0.00,285.19,8.19,-152.00,8.00,-23.25,-5.56,84.00,3.20
63.00,1.00,317.81,3.44,-54.69,-10.06,6.94,1.00,84.00,3.20
63.00,2.00,74.19,-10.31,11.31,-13.00,4.06,1.81,84.00,3.20
63.00,0.00,285.19,7.75,-152.12,5.94,-23.44,-3.31,84.41,3.22
63.00,1.00,317.81,3.31,-54.44,-9.94,5.94,-2.62,84.41,3.22
63.00,2.00,74.12,-10.38,11.44,-9.56,7.94,-0.31,84.41,3.22
63.00,0.00,285.25,7.38,-152.25,4.00,-19.56,-3.19,84.69,3.24
63.00,1.00,317.88,3.19,-54.31,-8.31,5.44,-4.69,84.69,3.24
63.00,2.00,74.12,-10.62,11.62,-6.62,8.44,-0.12,84.69,3.24
63.00,0.00,285.25,7.12,-152.31,3.44,-10.56,-3.94,84.96,3.26
63.00,1.00,317.81,3.06,-54.12,-7.19,6.69,-2.75,84.96,3.26
63.00,2.00,74.19,-10.69,11.69,-6.50,6.12,0.94,84.96,3.26
63.00,0.00,285.12,6.94,-152.38,1.38,-5.81,-5.31,85.24,3.28
63.00,1.00,317.88,2.94,-54.00,-8.19,5.81,-4.00,85.24,3.28
63.00,2.00,74.12,-10.88,11.94,-9.19,3.69,0.88,85.24,3.28
63.00,0.00,285.12,6.81,-152.38,3.00,-6.56,-2.56,85.58,3.30
63.00,1.00,317.88,2.81,-53.81,-9.62,4.88,-3.88,85.58,3.30
63.00,2.00,74.12,-10.88,12.12,-9.88,2.38,-0.31,85.58,3.30
63.00,0.00,285.19,6.69,-152.50,4.12,-7.56,2.44,85.92,3.32
63.00,1.00,317.94,2.69,-53.62,-11.06,3.69,-4.81,85.92,3.32
63.00,2.00,74.12,-10.94,12.25,-8.50,2.00,-2.00,85.92,3.32
63.00,0.00,285.25,6.62,-152.56,3.25,-6.38,4.69,86.18,3.34
63.00,1.00,318.06,2.62,-53.38,-11.00,2.75,-5.06,86.18,3.34
63.00,2.00,74.19,-10.94,12.44,-6.75,1.50,-2.62,86.18,3.34
63.00,0.00,285.38,6.62,-152.56,0.56,-2.75,2.44,86.36,3.36
63.00,1.00,318.12,2.50,-53.19,-10.88,2.44,-4.56,86.36,3.36
63.00,2.00,74.19,-10.94,12.56,-5.94,-0.06,-2.81,86.36,3.36
63.00,0.00,285.38,6.69,-152.56,-2.81,2.19,-1.38,86.41,3.38
63.00,1.00,318.19,2.38,-53.00,-9.38,2.19,-5.75,86.41,3.38
63.00,2.00,74.25,-10.94,12.69,-5.00,-1.19,-2.12,86.41,3.38
63.00,0.00,285.25,6.75,-152.44,-7.19,6.62,-5.69,86.32,3.40
63.00,1.00,318.31,2.25,-52.81,-7.19,1.88,-5.94,86.32,3.40
63.00,2.00,74.25,-10.88,12.81,-3.75,0.12,-0.81,86.32,3.40
63.00,0.00,285.06,6.81,-152.19,-10.50,9.88,-8.69,86.17,3.42
63.00,1.00,318.38,2.19,-52.69,-6.00,3.44,-2.81,86.17,3.42
63.00,2.00,74.25,-10.94,12.81,-4.75,2.38,0.12,86.17,3.42
63.00,0.00,284.81,6.94,-151.94,-12.62,12.00,-11.06,86.02,3.44
63.00,1.00,318.38,2.12,-52.56,-6.56,4.00,-2.75,86.02,3.44
63.00,2.00,74.25,-11.00,13.00,-6.81,4.06,1.44,86.02,3.44
63.00,0.00,284.56,7.00,-151.69,-11.00,9.62,-10.50,85.95,3.46
63.00,1.00,318.31,2.00,-52.44,-6.69,6.88,-1.69,85.95,3.46
63.00,2.00,74.19,-11.06,13.06,-8.69,4.75,2.50,85.95,3.46
63.00,0.00,284.44,7.06,-151.50,-6.12,6.19,-5.69,86.08,3.48
63.00,1.00,318.25,1.94,-52.31,-7.50,8.06,-1.06,86.08,3.48
63.00,2.00,74.12,-11.25,13.31,-11.00,5.81,3.12,86.08,3.48
63.00,0.00,284.38,7.12,-151.44,-2.62,4.00,-0.31,86.33,3.50
63.00,1.00,318.25,1.81,-52.19,-7.94,7.50,-0.94,86.33,3.50
63.00,2.00,74.06,-11.38,13.56,-11.81,5.81,3.38,86.33,3.50
63.00,0.00,284.38,7.19,-151.38,-4.25,2.38,-1.06,86.50,3.52
63.00,1.00,318.19,1.75,-52.06,-7.12,6.94,-0.94,86.50,3.52
63.00,2.00,74.00,-11.44,13.62,-10.69,5.00,2.75,86.50,3.52
63.00,0.00,284.31,7.19,-151.25,-4.62,1.69,-1.94,86.62,3.54
63.00,1.00,318.12,1.62,-51.88,-7.06,6.81,-0.56,86.62,3.54
63.00,2.00,73.94,-11.56,13.94,-9.31,4.38,2.44,86.62,3.54
63.00,0.00,284.31,7.19,-151.19,-2.50,1.44,-1.12,86.80,3.56
63.00,1.00,318.12,1.56,-51.81,-7.25,7.31,-0.44,86.80,3.56
63.00,2.00,73.88,-11.62,14.00,-9.31,3.44,2.31,86.80,3.56
63.00,0.00,284.31,7.19,-151.19,-0.88,0.75,0.62,87.02,3.58
63.00,1.00,318.06,1.50,-51.69,-6.88,6.75,-0.81,87.02,3.58
63.00,2.00,73.81,-11.69,14.19,-9.06,2.62,2.12,87.02,3.58
63.00,0.00,284.31,7.19,-151.25,1.06,0.38,1.56,87.28,3.60
63.00,1.00,318.00,1.38,-51.56,-6.19,6.06,-1.50,87.28,3.60
63.00,2.00,73.75,-11.75,14.38,-8.81,2.12,1.44,87.28,3.60
63.00,0.00,284.31,7.19,-151.25,3.12,0.00,1.19,87.57,3.62
63.00,1.00,318.00,1.25,-51.38,-4.88,4.69,-2.50,87.57,3.62
63.00,2.00,73.75,-11.81,14.56,-7.56,3.00,0.69,87.57,3.62
63.00,0.00,284.31,7.19,-151.38,5.62,0.50,1.00,87.86,3.64
63.00,1.00,318.00,1.19,-51.31,-4.12,3.19,-3.88,87.86,3.64
63.00,2.00,73.75,-11.88,14.62,-5.25,2.94,-0.06,87.86,3.64
63.00,0.00,284.31,7.19,-151.50,4.69,0.00,0.06,88.06,3.66
63.00,1.00,318.06,1.06,-51.19,-3.00,1.19,-4.06,88.06,3.66
63.00,2.00,73.75,-11.88,14.75,-3.00,2.75,-1.06,88.06,3.66
63.00,0.00,284.31,7.12,-151.56,3.75,-1.56,-1.62,88.20,3.68
63.00,1.00,318.12,0.94,-51.12,-2.31,0.19,-3.81,88.20,3.68
63.00,2.00,73.75,-11.94,14.81,-1.44,2.00,-2.06,88.20,3.68
63.00,0.00,284.25,7.00,-151.62,4.56,-4.19,-1.56,88.34,3.70
63.00,1.00,318.25,0.88,-51.06,-2.06,-0.56,-3.44,88.34,3.70
63.00,2.00,73.81,-12.00,14.88,-0.88,1.81,-2.44,88.34,3.70
63.00,0.00,284.31,7.00,-151.75,6.69,-2.00,2.56,88.55,3.72
63.00,1.00,318.31,0.81,-51.06,-1.94,-1.06,-3.25,88.55,3.72
63.00,2.00,73.88,-12.00,14.94,-1.12,0.88,-1.75,88.55,3.72
63.00,0.00,284.38,6.94,-151.88,5.06,-3.44,1.38,88.71,3.74
63.00,1.00,318.38,0.75,-51.00,-2.69,-0.94,-2.88,88.71,3.74
63.00,2.00,73.88,-12.00,14.94,-0.94,0.50,-2.31,88.71,3.74
63.00,0.00,284.38,6.88,-151.94,3.50,-3.25,1.06,88.86,3.76
63.00,1.00,318.44,0.75,-50.94,-2.56,-0.38,-2.38,88.86,3.76
63.00,2.00,73.94,-12.00,14.94,-1.94,0.81,-2.81,88.86,3.76
63.00,0.00,284.44,6.88,-152.00,3.06,-2.06,2.31,89.01,3.78
63.00,1.00,318.50,0.69,-50.88,-3.19,-0.19,-2.31,89.01,3.78
63.00,2.00,74.00,-12.00,15.00,-2.56,1.25,-2.62,89.01,3.78
63.00,0.00,284.50,6.88,-152.06,3.38,-0.94,3.25,89.17,3.80
63.00,1.00,318.56,0.69,-50.81,-3.31,0.56,-2.44,89.17,3.80
63.00,2.00,74.06,-12.06,15.06,-2.94,1.44,-2.44,89.17,3.80
63.00,0.00,284.56,6.94,-152.12,3.12,0.81,3.19,89.33,3.82
63.00,1.00,318.56,0.62,-50.75,-3.06,1.38,-2.00,89.33,3.82
63.00,2.00,74.06,-12.06,15.06,-2.88,2.12,-2.12,89.33,3.82
63.00,0.00,284.56,6.94,-152.19,1.88,1.06,2.50,89.46,3.84
63.00,1.00,318.62,0.56,-50.69,-2.94,1.81,-2.06,89.46,3.84
63.00,2.00,74.12,-12.06,15.12,-2.88,1.81,-1.94,89.46,3.84
63.00,0.00,284.62,7.00,-152.19,0.62,0.44,1.56,89.54,3.86
63.00,1.00,318.62,0.50,-50.62,-2.31,1.69,-1.69,89.54,3.86
63.00,2.00,74.12,-12.12,15.19,-2.31,1.62,-1.00,89.54,3.86
63.00,0.00,284.62,7.00,-152.25,0.50,0.19,2.00,89.60,3.88
63.00,1.00,318.62,0.50,-50.62,-1.75,1.25,-1.50,89.60,3.88
63.00,2.00,74.12,-12.12,15.25,-2.00,1.06,-1.12,89.60,3.88
63.00,0.00,284.69,7.00,-152.25,0.12,0.56,1.19,89.64,3.90
63.00,1.00,318.62,0.44,-50.56,-2.00,1.06,-0.81,89.64,3.90
63.00,2.00,74.19,-12.19,15.31,-1.31,1.06,-0.81,89.64,3.90
63.00,0.00,284.69,7.00,-152.25,0.12,1.19,0.38,89.69,3.92
63.00,1.00,318.62,0.44,-50.56,-1.75,1.00,0.12,89.69,3.92
63.00,2.00,74.19,-12.19,15.31,-1.56,0.56,-0.56,89.69,3.92
63.00,0.00,284.69,7.00,-152.25,0.25,1.38,0.31,89.74,3.94
63.00,1.00,318.62,0.44,-50.50,-1.62,0.81,0.19,89.74,3.94
63.00,2.00,74.19,-12.19,15.31,-1.69,-0.19,0.00,89.74,3.94
63.00,0.00,284.69,7.06,-152.25,0.56,1.44,0.25,89.79,3.96
63.00,1.00,318.62,0.44,-50.50,-1.06,0.81,-0.19,89.79,3.96
63.00,2.00,74.19,-12.19,15.38,-1.31,-0.06,0.19,89.79,3.96
63.00,0.00,284.69,7.06,-152.31,1.06,1.94,0.50,89.85,3.98
63.00,1.00,318.62,0.38,-50.44,-0.94,1.25,-0.19,89.85,3.98
63.00,2.00,74.19,-12.19,15.38,-1.12,0.81,0.25,89.85,3.98
63.00,0.00,284.69,7.12,-152.31,1.69,2.19,1.38,89.92,4.00
63.00,1.00,318.62,0.38,-50.44,-0.75,2.06,-0.06,89.92,4.00
63.00,2.00,74.19,-12.19,15.38,-0.94,1.44,0.31,89.92,4.00
63.00,0.00,284.69,7.19,-152.38,2.25,2.19,1.88,90.02,4.02
63.00,1.00,318.56,0.38,-50.44,-0.25,2.62,0.31,90.02,4.02
63.00,2.00,74.19,-12.25,15.38,-1.62,1.31,0.69,90.02,4.02
63.00,0.00,284.75,7.25,-152.44,1.81,1.94,2.25,90.12,4.04
63.00,1.00,318.56,0.31,-50.44,0.12,2.56,0.19,90.12,4.04
63.00,2.00,74.12,-12.25,15.38,-2.12,0.94,0.69,90.12,4.04
63.00,0.00,284.75,7.31,-152.44,1.06,2.12,2.94,90.20,4.06
63.00,1.00,318.50,0.31,-50.44,-0.25,2.44,0.38,90.20,4.06
63.00,2.00,74.12,-12.25,15.44,-1.75,1.19,0.62,90.20,4.06
63.00,0.00,284.81,7.31,-152.44,0.19,3.19,3.75,90.26,4.08
63.00,1.00,318.50,0.25,-50.44,-0.06,2.38,0.38,90.26,4.08
63.00,2.00,74.12,-12.31,15.44,-2.06,1.75,0.62,90.26,4.08
63.00,0.00,284.88,7.44,-152.50,-0.38,4.62,4.50,90.27,4.10
63.00,1.00,318.50,0.25,-50.50,0.06,2.25,0.06,90.27,4.10
63.00,2.00,74.12,-12.38,15.44,-0.88,1.69,0.00,90.27,4.10
63.00,0.00,284.94,7.56,-152.50,-0.62,5.81,3.88,90.27,4.12
63.00,1.00,318.44,0.19,-50.50,-0.06,2.38,0.06,90.27,4.12
63.00,2.00,74.12,-12.38,15.44,-0.50,1.25,-0.31,90.27,4.12
63.00,0.00,285.00,7.69,-152.50,-1.00,6.12,3.00,90.26,4.14
63.00,1.00,318.44,0.19,-50.50,0.00,1.50,-0.06,90.26,4.14
63.00,2.00,74.12,-12.38,15.44,-0.88,0.25,-0.12,90.26,4.14
63.00,0.00,285.00,7.81,-152.44,-0.69,6.50,2.88,90.28,4.16
63.00,1.00,318.44,0.19,-50.50,0.19,0.31,-0.75,90.28,4.16
63.00,2.00,74.12,-12.44,15.50,-1.25,1.25,-0.06,90.28,4.16
63.00,0.00,285.00,7.94,-152.50,0.00,6.12,2.88,90.29,4.18
63.00,1.00,318.44,0.19,-50.50,0.25,0.81,-0.62,90.29,4.18
63.00,2.00,74.12,-12.44,15.44,-0.50,1.38,-0.06,90.29,4.18
63.00,0.00,285.06,8.06,-152.50,0.62,5.31,2.31,90.33,4.20
63.00,1.00,318.44,0.12,-50.50,0.31,1.31,-0.50,90.33,4.20
63.00,2.00,74.12,-12.50,15.44,-0.69,1.44,-0.12,90.33,4.20
63.00,0.00,285.06,8.12,-152.50,0.69,4.62,2.31,90.35,4.22
63.00,1.00,318.44,0.12,-50.50,0.19,1.12,-0.56,90.35,4.22
63.00,2.00,74.12,-12.50,15.44,-0.12,1.44,0.00,90.35,4.22
63.00,0.00,285.06,8.19,-152.56,1.81,2.06,3.00,90.41,4.24
63.00,1.00,318.44,0.12,-50.50,-0.44,1.69,-0.75,90.41,4.24
63.00,2.00,74.12,-12.50,15.44,-0.56,0.69,-0.12,90.41,4.24
63.00,0.00,285.12,8.25,-152.69,2.06,1.06,3.56,90.49,4.26
63.00,1.00,318.44,0.06,-50.50,-0.44,1.31,-0.44,90.49,4.26
63.00,2.00,74.12,-12.50,15.44,-0.81,0.38,-0.06,90.49,4.26
63.00,0.00,285.19,8.25,-152.69,1.56,1.00,3.19,90.55,4.28
63.00,1.00,318.44,0.06,-50.50,-0.75,0.94,-0.69,90.55,4.28
63.00,2.00,74.12,-12.56,15.44,-0.88,0.44,0.12,90.55,4.28
63.00,0.00,285.25,8.25,-152.75,0.44,0.94,0.94,90.59,4.30
63.00,1.00,318.44,0.06,-50.50,-0.38,2.69,-0.38,90.59,4.30
63.00,2.00,74.12,-12.56,15.50,-0.94,0.56,-0.25,90.59,4.30
63.00,0.00,285.25,8.31,-152.75,0.75,1.56,0.44,90.62,4.32
63.00,1.00,318.38,0.00,-50.50,0.19,3.00,-0.38,90.62,4.32
63.00,2.00,74.12,-12.56,15.50,-0.31,1.69,-0.06,90.62,4.32
63.00,0.00,285.19,8.31,-152.75,1.12,1.81,-1.25,90.61,4.34
63.00,1.00,318.38,0.00,-50.50,1.94,2.75,-1.44,90.61,4.34
63.00,2.00,74.12,-12.56,15.50,1.25,2.31,0.69,90.61,4.34
