Iteration,IMUNo,OrientationX (deg),OrientationY,OrientationZ,GyroX (20rad/sec),GyroY,GyroZ,Elbow_Pos (rad),Time (sec)
70.00,0.00,119.75,-0.38,-91.69,0.50,2.19,-4.94,-0.02,0.00
70.00,1.00,322.25,2.75,-58.62,0.38,-1.00,-2.81,-0.02,0.00
70.00,2.00,98.31,-13.69,17.31,1.38,2.38,-0.81,-0.02,0.00
70.00,0.00,117.00,-1.00,-92.38,0.00,0.56,-2.25,-0.01,1.02
70.00,1.00,321.50,1.88,-58.62,0.19,0.50,-0.12,-0.01,1.02
70.00,2.00,96.88,-14.88,17.50,-0.69,0.25,-0.19,-0.01,1.02
70.00,0.00,117.06,-1.06,-92.38,-0.19,-0.12,-1.81,-0.01,1.04
70.00,1.00,321.50,1.88,-58.62,-0.56,0.38,-0.38,-0.01,1.04
70.00,2.00,96.88,-14.88,17.50,-0.12,0.00,-1.12,-0.01,1.04
70.00,0.00,117.12,-1.06,-92.38,-0.38,-0.12,-1.00,-0.02,1.06
70.00,1.00,321.50,1.88,-58.62,0.19,-0.19,-0.75,-0.02,1.06
70.00,2.00,96.88,-14.88,17.50,0.25,0.56,-1.25,-0.02,1.06
70.00,0.00,117.12,-1.06,-92.38,-0.25,-0.94,-0.50,-0.04,1.08
70.00,1.00,321.50,1.88,-58.62,0.19,-0.62,-0.88,-0.04,1.08
70.00,2.00,96.94,-14.88,17.50,0.25,0.69,-1.38,-0.04,1.08
70.00,0.00,117.19,-1.06,-92.38,-0.19,-2.00,-0.25,-0.04,1.10
70.00,1.00,321.56,1.88,-58.62,0.00,-0.75,-1.06,-0.04,1.10
70.00,2.00,96.94,-14.88,17.50,-0.31,0.31,-1.19,-0.04,1.10
70.00,0.00,117.19,-1.06,-92.38,-0.38,-2.81,0.06,-0.02,1.12
70.00,1.00,321.56,1.81,-58.62,0.06,-1.50,-1.50,-0.02,1.12
70.00,2.00,97.00,-14.88,17.56,-0.94,0.81,-1.06,-0.02,1.12
70.00,0.00,117.25,-1.06,-92.38,-0.31,-3.06,0.81,0.00,1.14
70.00,1.00,321.62,1.81,-58.62,-0.38,-1.88,-2.00,0.00,1.14
70.00,2.00,97.00,-14.88,17.56,-1.06,1.31,-1.12,0.00,1.14
70.00,0.00,117.31,-1.06,-92.38,0.62,-3.56,1.50,0.04,1.16
70.00,1.00,321.69,1.81,-58.62,-0.19,-2.38,-2.94,0.04,1.16
70.00,2.00,97.06,-14.94,17.56,-0.62,2.06,-2.00,0.04,1.16
70.00,0.00,117.31,-1.00,-92.38,1.50,-3.44,2.38,0.07,1.18
70.00,1.00,321.81,1.75,-58.62,-0.38,-2.81,-3.62,0.07,1.18
70.00,2.00,97.06,-14.94,17.62,0.38,2.56,-2.75,0.07,1.18
70.00,0.00,117.38,-1.00,-92.44,2.38,-3.25,2.38,0.10,1.20
70.00,1.00,321.88,1.75,-58.62,-0.38,-3.62,-3.88,0.10,1.20
70.00,2.00,97.19,-15.00,17.62,1.38,2.50,-3.31,0.10,1.20
70.00,0.00,117.38,-0.94,-92.50,3.12,-3.06,1.88,0.12,1.22
70.00,1.00,322.00,1.69,-58.62,-0.38,-4.12,-4.31,0.12,1.22
70.00,2.00,97.25,-15.00,17.56,2.44,2.25,-3.94,0.12,1.22
70.00,0.00,117.44,-0.94,-92.50,2.94,-3.69,0.94,0.13,1.24
70.00,1.00,322.12,1.69,-58.62,-0.06,-4.25,-4.19,0.13,1.24
70.00,2.00,97.31,-15.00,17.56,2.56,1.75,-4.12,0.13,1.24
70.00,0.00,117.50,-0.94,-92.56,2.56,-4.62,0.12,0.14,1.26
70.00,1.00,322.31,1.62,-58.69,0.19,-4.19,-3.56,0.14,1.26
70.00,2.00,97.44,-15.06,17.56,2.06,1.81,-4.12,0.14,1.26
70.00,0.00,117.62,-0.94,-92.62,2.12,-6.44,-0.56,0.18,1.28
70.00,1.00,322.38,1.62,-58.69,-0.12,-3.94,-3.00,0.18,1.28
70.00,2.00,97.50,-15.06,17.50,0.75,1.69,-3.75,0.18,1.28
70.00,0.00,117.75,-1.00,-92.62,2.06,-7.50,-1.25,0.22,1.30
70.00,1.00,322.50,1.62,-58.69,-0.81,-4.06,-3.06,0.22,1.30
70.00,2.00,97.62,-15.06,17.56,0.75,1.88,-4.12,0.22,1.30
70.00,0.00,117.94,-1.00,-92.69,1.69,-8.12,-1.62,0.23,1.32
70.00,1.00,322.62,1.62,-58.62,-0.88,-4.25,-3.06,0.23,1.32
70.00,2.00,97.69,-15.06,17.56,1.25,2.38,-4.44,0.23,1.32
70.00,0.00,118.12,-1.06,-92.69,1.00,-7.44,-1.75,0.24,1.34
70.00,1.00,322.69,1.62,-58.62,-1.31,-4.25,-3.06,0.24,1.34
70.00,2.00,97.75,-15.12,17.56,0.56,1.81,-4.25,0.24,1.34
70.00,0.00,118.31,-1.06,-92.75,0.62,-6.06,-1.31,0.24,1.36
70.00,1.00,322.81,1.56,-58.62,-1.94,-4.94,-2.88,0.24,1.36
70.00,2.00,97.88,-15.12,17.56,0.88,1.00,-4.12,0.24,1.36
70.00,0.00,118.44,-1.06,-92.75,0.25,-4.81,-0.75,0.22,1.38
70.00,1.00,322.94,1.56,-58.56,-2.25,-5.06,-2.69,0.22,1.38
70.00,2.00,97.94,-15.12,17.50,0.75,0.50,-3.94,0.22,1.38
70.00,0.00,118.50,-1.06,-92.75,-0.06,-4.19,0.19,0.20,1.40
70.00,1.00,323.00,1.62,-58.56,-2.44,-4.19,-0.81,0.20,1.40
70.00,2.00,98.00,-15.12,17.50,0.62,-0.31,-3.81,0.20,1.40
70.00,0.00,118.62,-1.06,-92.75,-0.44,-4.19,0.88,0.20,1.42
70.00,1.00,323.06,1.62,-58.50,-2.12,-3.81,0.44,0.20,1.42
70.00,2.00,98.06,-15.12,17.50,-0.38,-1.56,-3.44,0.20,1.42
70.00,0.00,118.62,-1.06,-92.75,-1.31,-2.56,1.81,0.19,1.44
70.00,1.00,323.12,1.69,-58.50,-2.00,-4.06,0.81,0.19,1.44
70.00,2.00,98.12,-15.06,17.50,-0.88,-2.19,-2.62,0.19,1.44
70.00,0.00,118.62,-1.00,-92.69,-1.50,-1.88,2.12,0.16,1.46
70.00,1.00,323.12,1.75,-58.44,-1.12,-4.19,1.44,0.16,1.46
70.00,2.00,98.12,-15.00,17.50,-0.62,-2.31,-2.38,0.16,1.46
70.00,0.00,118.56,-0.94,-92.69,-1.75,-0.69,3.31,0.14,1.48
70.00,1.00,323.12,1.81,-58.44,-1.06,-4.00,1.62,0.14,1.48
70.00,2.00,98.19,-15.00,17.50,-0.81,-1.94,-2.62,0.14,1.48
70.00,0.00,118.50,-0.88,-92.62,-1.44,-0.31,4.88,0.15,1.50
70.00,1.00,323.12,1.88,-58.44,-0.88,-2.75,2.69,0.15,1.50
70.00,2.00,98.25,-14.94,17.56,-1.81,-1.81,-3.50,0.15,1.50
70.00,0.00,118.38,-0.75,-92.62,-1.62,-0.50,5.62,0.19,1.52
70.00,1.00,323.12,1.94,-58.44,-1.00,-2.75,3.00,0.19,1.52
70.00,2.00,98.25,-14.94,17.56,-3.31,-3.06,-2.94,0.19,1.52
70.00,0.00,118.31,-0.62,-92.56,-1.81,-0.81,5.75,0.22,1.54
70.00,1.00,323.12,2.00,-58.38,-1.00,-2.50,2.56,0.22,1.54
70.00,2.00,98.31,-14.81,17.62,-2.81,-3.88,-2.31,0.22,1.54
70.00,0.00,118.19,-0.56,-92.56,-1.75,-0.94,5.31,0.21,1.56
70.00,1.00,323.06,2.06,-58.38,-1.19,-2.38,2.31,0.21,1.56
70.00,2.00,98.31,-14.75,17.69,-1.44,-3.56,-2.00,0.21,1.56
70.00,0.00,118.19,-0.44,-92.56,-1.69,-1.94,4.12,0.18,1.58
70.00,1.00,323.06,2.12,-58.38,-0.88,-1.88,1.38,0.18,1.58
70.00,2.00,98.38,-14.69,17.69,-0.44,-2.62,-2.56,0.18,1.58
70.00,0.00,118.19,-0.44,-92.56,-0.88,-2.88,3.25,0.15,1.60
70.00,1.00,323.06,2.19,-58.31,-0.50,-2.25,0.31,0.15,1.60
70.00,2.00,98.38,-14.62,17.69,0.31,-1.62,-2.44,0.15,1.60
70.00,0.00,118.19,-0.38,-92.56,0.44,-2.81,2.75,0.11,1.62
70.00,1.00,323.06,2.19,-58.31,-0.56,-2.44,-0.25,0.11,1.62
70.00,2.00,98.44,-14.62,17.69,1.56,0.00,-2.06,0.11,1.62
70.00,0.00,118.19,-0.31,-92.56,1.81,-2.69,2.50,0.12,1.64
70.00,1.00,323.12,2.19,-58.31,-1.12,-1.75,-0.88,0.12,1.64
70.00,2.00,98.50,-14.62,17.69,1.69,0.88,-2.06,0.12,1.64
70.00,0.00,118.25,-0.31,-92.62,3.00,-2.62,2.25,0.16,1.66
70.00,1.00,323.19,2.19,-58.31,-1.38,-1.69,-1.19,0.16,1.66
70.00,2.00,98.56,-14.62,17.62,1.56,1.19,-2.00,0.16,1.66
70.00,0.00,118.25,-0.25,-92.69,4.12,-2.75,1.69,0.23,1.68
70.00,1.00,323.25,2.19,-58.25,-1.12,-2.06,-1.38,0.23,1.68
70.00,2.00,98.56,-14.62,17.62,1.50,1.44,-2.00,0.23,1.68
70.00,0.00,118.25,-0.25,-92.81,5.25,-2.44,1.56,0.35,1.70
70.00,1.00,323.25,2.19,-58.25,-1.12,-2.00,-0.88,0.35,1.70
70.00,2.00,98.62,-14.69,17.62,1.00,1.62,-1.81,0.35,1.70
70.00,0.00,118.25,-0.19,-92.94,6.69,-1.56,2.00,0.51,1.72
70.00,1.00,323.31,2.19,-58.25,-1.00,-1.75,-0.75,0.51,1.72
70.00,2.00,98.69,-14.69,17.62,1.00,2.00,-1.25,0.51,1.72
70.00,0.00,118.25,-0.12,-93.12,8.62,-0.81,2.56,0.70,1.74
70.00,1.00,323.31,2.25,-58.25,-0.19,-2.00,0.44,0.70,1.74
70.00,2.00,98.69,-14.75,17.56,2.06,1.12,-0.81,0.70,1.74
70.00,0.00,118.12,-0.06,-93.38,10.38,0.88,3.50,0.85,1.76
70.00,1.00,323.38,2.25,-58.25,-0.31,-2.25,0.81,0.85,1.76
70.00,2.00,98.69,-14.75,17.50,4.88,-2.06,0.00,0.85,1.76
70.00,0.00,117.94,0.00,-93.62,11.50,2.25,4.81,1.02,1.78
70.00,1.00,323.38,2.31,-58.25,-0.19,-2.12,1.06,1.02,1.78
70.00,2.00,98.69,-14.69,17.38,5.62,-5.25,0.81,1.02,1.78
70.00,0.00,117.75,0.19,-93.88,12.06,2.88,6.00,1.21,1.80
70.00,1.00,323.38,2.31,-58.25,0.38,-1.81,2.06,1.21,1.80
70.00,2.00,98.62,-14.56,17.25,5.25,-8.06,1.88,1.21,1.80
70.00,0.00,117.50,0.38,-94.19,12.75,4.06,7.25,1.42,1.82
70.00,1.00,323.31,2.38,-58.25,0.62,-1.94,2.25,1.42,1.82
70.00,2.00,98.56,-14.44,17.12,5.38,-8.38,2.50,1.42,1.82
70.00,0.00,117.19,0.50,-94.44,14.50,5.75,8.62,1.70,1.84
70.00,1.00,323.31,2.44,-58.25,0.56,-1.19,3.25,1.70,1.84
70.00,2.00,98.50,-14.31,17.00,4.56,-7.69,2.75,1.70,1.84
70.00,0.00,116.88,0.75,-94.75,16.62,7.06,10.44,2.10,1.86
70.00,1.00,323.19,2.56,-58.25,0.50,-0.75,4.56,2.10,1.86
70.00,2.00,98.44,-14.19,16.88,2.56,-8.12,3.50,2.10,1.86
70.00,0.00,116.44,1.00,-95.12,17.69,8.56,12.25,2.56,1.88
70.00,1.00,323.12,2.62,-58.25,0.12,-0.56,5.12,2.56,1.88
70.00,2.00,98.31,-14.06,16.81,1.56,-8.25,4.00,2.56,1.88
70.00,0.00,115.94,1.31,-95.50,18.69,10.25,13.69,3.05,1.90
70.00,1.00,323.00,2.69,-58.25,-0.38,0.75,5.00,3.05,1.90
70.00,2.00,98.25,-14.00,16.75,1.38,-7.81,4.88,3.05,1.90
70.00,0.00,115.38,1.62,-95.88,20.06,10.88,14.75,3.57,1.92
70.00,1.00,322.88,2.81,-58.25,-0.44,0.94,5.31,3.57,1.92
70.00,2.00,98.12,-13.88,16.69,1.50,-7.44,5.38,3.57,1.92
70.00,0.00,114.81,1.94,-96.31,21.62,11.12,16.56,4.16,1.94
70.00,1.00,322.81,2.88,-58.19,-1.25,1.81,5.44,4.16,1.94
70.00,2.00,97.94,-13.75,16.62,0.81,-7.81,5.88,4.16,1.94
70.00,0.00,114.25,2.31,-96.75,21.12,10.69,16.31,4.75,1.96
70.00,1.00,322.62,2.94,-58.19,-1.12,2.69,5.62,4.75,1.96
70.00,2.00,97.81,-13.62,16.56,0.44,-8.69,6.12,4.75,1.96
70.00,0.00,113.62,2.62,-97.19,20.88,11.25,15.56,5.35,1.98
70.00,1.00,322.50,3.00,-58.12,-2.19,2.44,5.50,5.35,1.98
70.00,2.00,97.69,-13.50,16.50,-0.31,-9.38,6.75,5.35,1.98
70.00,0.00,113.00,3.00,-97.56,20.38,13.62,15.00,6.00,2.00
70.00,1.00,322.38,3.06,-58.06,-2.56,2.19,5.62,6.00,2.00
70.00,2.00,97.50,-13.38,16.50,-2.62,-9.44,6.06,6.00,2.00
70.00,0.00,112.31,3.31,-98.00,23.25,17.38,15.12,6.75,2.02
70.00,1.00,322.25,3.12,-58.06,-3.75,2.38,4.38,6.75,2.02
70.00,2.00,97.38,-13.25,16.50,-3.25,-9.25,5.38,6.75,2.02
70.00,0.00,111.62,3.62,-98.56,28.50,15.38,14.62,7.67,2.04
70.00,1.00,322.19,3.19,-58.00,-3.94,3.00,2.75,7.67,2.04
70.00,2.00,97.19,-13.12,16.56,-4.06,-8.94,6.31,7.67,2.04
70.00,0.00,111.00,3.94,-99.12,30.56,16.31,11.56,8.63,2.06
70.00,1.00,322.06,3.19,-57.88,-4.00,3.56,1.81,8.63,2.06
70.00,2.00,97.06,-13.00,16.56,-3.44,-6.31,6.50,8.63,2.06
70.00,0.00,110.38,4.19,-99.69,32.56,15.25,7.50,9.60,2.08
70.00,1.00,322.00,3.19,-57.81,-2.94,4.12,0.31,9.60,2.08
70.00,2.00,96.94,-12.94,16.56,-1.75,-3.31,5.88,9.60,2.08
70.00,0.00,109.88,4.31,-100.38,36.88,13.06,7.06,10.64,2.10
70.00,1.00,321.94,3.12,-57.75,-2.38,4.44,-0.19,10.64,2.10
70.00,2.00,96.81,-12.94,16.56,0.31,-0.94,4.56,10.64,2.10
70.00,0.00,109.38,4.50,-101.12,40.88,12.12,7.00,11.69,2.12
70.00,1.00,321.94,3.12,-57.75,-2.19,4.69,0.25,11.69,2.12
70.00,2.00,96.75,-12.94,16.50,3.50,-0.19,3.62,11.69,2.12
70.00,0.00,108.94,4.69,-101.94,42.62,11.25,4.94,12.79,2.14
70.00,1.00,321.81,3.06,-57.69,-1.31,4.38,1.62,12.79,2.14
70.00,2.00,96.69,-12.94,16.44,3.81,-1.50,3.81,12.79,2.14
70.00,0.00,108.50,4.81,-102.75,44.12,10.94,4.00,13.94,2.16
70.00,1.00,321.75,3.06,-57.69,-1.50,3.56,2.88,13.94,2.16
70.00,2.00,96.62,-12.94,16.31,3.50,-3.38,4.81,13.94,2.16
70.00,0.00,108.00,4.94,-103.62,46.31,12.62,5.31,15.19,2.18
70.00,1.00,321.69,3.06,-57.62,-1.56,3.25,4.12,15.19,2.18
70.00,2.00,96.50,-12.94,16.19,2.19,-4.81,6.38,15.19,2.18
70.00,0.00,107.44,5.12,-104.56,48.75,14.44,5.62,16.52,2.20
70.00,1.00,321.56,3.12,-57.62,-0.50,2.62,5.62,16.52,2.20
70.00,2.00,96.31,-12.88,16.12,1.69,-5.69,8.12,16.52,2.20
70.00,0.00,106.88,5.31,-105.62,51.81,14.56,6.50,17.92,2.22
70.00,1.00,321.38,3.19,-57.62,-0.06,2.69,6.62,17.92,2.22
70.00,2.00,96.12,-12.88,16.00,2.25,-6.25,9.56,17.92,2.22
70.00,0.00,106.12,5.56,-106.69,55.06,16.31,8.31,19.39,2.24
70.00,1.00,321.25,3.25,-57.62,-0.06,2.69,7.38,19.39,2.24
70.00,2.00,95.88,-12.81,15.88,3.12,-7.69,10.31,19.39,2.24
70.00,0.00,105.31,5.81,-107.75,57.06,18.38,9.69,20.91,2.26
70.00,1.00,321.06,3.31,-57.62,0.69,2.62,7.44,20.91,2.26
70.00,2.00,95.69,-12.75,15.75,3.56,-6.88,11.06,20.91,2.26
70.00,0.00,104.44,6.12,-108.88,57.81,18.88,10.69,22.39,2.28
70.00,1.00,320.88,3.38,-57.62,0.38,3.94,7.94,22.39,2.28
70.00,2.00,95.44,-12.69,15.62,5.50,-6.62,12.12,22.39,2.28
70.00,0.00,103.56,6.44,-109.94,56.44,20.00,10.94,23.82,2.30
70.00,1.00,320.69,3.50,-57.62,0.69,5.06,7.88,23.82,2.30
70.00,2.00,95.19,-12.69,15.38,5.94,-6.81,13.62,23.82,2.30
70.00,0.00,102.56,6.81,-110.94,56.00,19.31,11.31,25.26,2.32
70.00,1.00,320.50,3.56,-57.69,1.12,6.00,7.81,25.26,2.32
70.00,2.00,94.88,-12.62,15.25,4.81,-7.19,14.38,25.26,2.32
70.00,0.00,101.62,7.12,-112.06,56.44,17.69,12.44,26.74,2.34
70.00,1.00,320.25,3.56,-57.69,-0.44,7.06,7.25,26.74,2.34
70.00,2.00,94.56,-12.62,15.06,4.19,-6.31,16.19,26.74,2.34
70.00,0.00,100.75,7.44,-113.12,56.25,16.19,11.31,28.25,2.36
70.00,1.00,320.06,3.62,-57.69,0.00,7.69,6.81,28.25,2.36
70.00,2.00,94.19,-12.56,14.88,3.00,-7.06,17.50,28.25,2.36
70.00,0.00,99.88,7.75,-114.19,56.56,15.31,10.50,29.71,2.38
70.00,1.00,319.81,3.62,-57.62,-1.19,8.06,6.69,29.71,2.38
70.00,2.00,93.88,-12.50,14.69,5.06,-6.06,18.06,29.71,2.38
70.00,0.00,99.00,8.00,-115.19,55.81,14.25,9.56,31.12,2.40
70.00,1.00,319.62,3.69,-57.62,-0.94,8.94,6.31,31.12,2.40
70.00,2.00,93.50,-12.50,14.50,6.00,-4.88,18.44,31.12,2.40
70.00,0.00,98.31,8.19,-116.25,54.81,10.81,8.44,32.49,2.42
70.00,1.00,319.38,3.69,-57.69,0.12,8.94,5.94,32.49,2.42
70.00,2.00,93.12,-12.56,14.31,6.25,-3.50,19.06,32.49,2.42
70.00,0.00,97.69,8.38,-117.25,54.75,8.56,10.44,33.88,2.44
70.00,1.00,319.19,3.69,-57.62,-1.44,10.81,5.62,33.88,2.44
70.00,2.00,92.75,-12.56,14.06,5.75,-2.38,20.88,33.88,2.44
70.00,0.00,97.19,8.50,-118.25,52.06,4.81,10.56,35.18,2.46
70.00,1.00,318.94,3.62,-57.62,-2.00,12.69,5.06,35.18,2.46
70.00,2.00,92.31,-12.62,13.88,5.88,-2.81,22.31,35.18,2.46
70.00,0.00,96.62,8.69,-119.19,49.44,1.50,8.69,36.46,2.48
70.00,1.00,318.69,3.62,-57.62,-2.75,14.50,5.25,36.46,2.48
70.00,2.00,91.94,-12.62,13.62,4.44,-4.19,21.19,36.46,2.48
70.00,0.00,96.19,8.81,-120.19,48.44,-0.06,7.31,37.74,2.50
70.00,1.00,318.44,3.56,-57.56,-3.81,15.19,5.19,37.74,2.50
70.00,2.00,91.50,-12.69,13.50,3.12,-2.62,20.56,37.74,2.50
70.00,0.00,95.88,8.94,-121.12,48.81,-2.75,5.62,39.04,2.52
70.00,1.00,318.12,3.50,-57.50,-3.31,15.06,5.19,39.04,2.52
70.00,2.00,91.12,-12.69,13.31,2.94,-2.31,20.06,39.04,2.52
70.00,0.00,95.56,8.94,-122.06,46.31,-2.19,3.12,40.33,2.54
70.00,1.00,317.88,3.44,-57.44,-3.38,14.06,5.62,40.33,2.54
70.00,2.00,90.69,-12.75,13.19,0.62,-2.25,20.56,40.33,2.54
70.00,0.00,95.31,8.94,-122.88,43.19,-1.31,1.38,41.56,2.56
70.00,1.00,317.62,3.38,-57.38,-3.38,14.12,6.38,41.56,2.56
70.00,2.00,90.31,-12.81,13.06,-0.44,-2.31,21.56,41.56,2.56
70.00,0.00,95.00,9.00,-123.75,43.06,-0.19,2.75,42.81,2.58
70.00,1.00,317.31,3.31,-57.31,-3.81,14.94,6.56,42.81,2.58
70.00,2.00,89.88,-12.88,13.00,-0.94,-2.94,20.81,42.81,2.58
70.00,0.00,94.62,9.06,-124.56,43.44,0.75,4.12,44.09,2.60
70.00,1.00,317.06,3.31,-57.25,-3.75,15.75,7.00,44.09,2.60
70.00,2.00,89.50,-12.88,12.94,-1.88,-4.31,19.62,44.09,2.60
70.00,0.00,94.19,9.12,-125.44,42.06,1.62,3.25,45.34,2.62
70.00,1.00,316.75,3.25,-57.19,-2.50,16.19,6.81,45.34,2.62
70.00,2.00,89.06,-12.88,12.88,-2.06,-5.75,20.62,45.34,2.62
70.00,0.00,93.75,9.19,-126.19,41.00,3.44,2.50,46.54,2.64
70.00,1.00,316.44,3.19,-57.12,-2.19,15.81,7.12,46.54,2.64
70.00,2.00,88.62,-12.81,12.75,-1.31,-6.00,20.88,46.54,2.64
70.00,0.00,93.25,9.25,-127.00,40.12,4.25,1.00,47.72,2.66
70.00,1.00,316.12,3.19,-57.06,-2.25,16.25,8.38,47.72,2.66
70.00,2.00,88.25,-12.81,12.69,-1.75,-7.12,20.88,47.72,2.66
70.00,0.00,92.75,9.31,-127.75,42.06,4.31,0.69,48.95,2.68
70.00,1.00,315.75,3.12,-57.00,-1.94,15.75,8.69,48.95,2.68
70.00,2.00,87.81,-12.69,12.62,-1.44,-9.31,21.38,48.95,2.68
70.00,0.00,92.12,9.44,-128.56,42.19,6.69,0.81,50.15,2.70
70.00,1.00,315.44,3.12,-57.00,-1.25,14.38,8.12,50.15,2.70
70.00,2.00,87.38,-12.62,12.50,-0.25,-10.50,21.50,50.15,2.70
70.00,0.00,91.38,9.56,-129.38,42.88,9.88,1.75,51.38,2.72
70.00,1.00,315.19,3.06,-56.94,-1.50,13.44,8.44,51.38,2.72
70.00,2.00,86.94,-12.50,12.44,-0.56,-11.69,21.31,51.38,2.72
70.00,0.00,90.50,9.75,-130.19,44.12,13.19,2.25,52.64,2.74
70.00,1.00,314.88,3.06,-56.94,-1.50,11.75,8.25,52.64,2.74
70.00,2.00,86.50,-12.38,12.31,-0.50,-12.31,21.06,52.64,2.74
70.00,0.00,89.31,10.00,-131.06,45.12,16.81,2.94,53.92,2.76
70.00,1.00,314.62,3.06,-56.94,-1.06,9.94,8.06,53.92,2.76
70.00,2.00,86.06,-12.19,12.25,0.19,-12.50,20.44,53.92,2.76
70.00,0.00,88.12,10.25,-131.88,45.50,18.06,3.12,55.20,2.78
70.00,1.00,314.38,3.12,-56.88,-0.94,8.94,8.62,55.20,2.78
70.00,2.00,85.62,-12.06,12.12,0.19,-12.31,19.62,55.20,2.78
70.00,0.00,86.75,10.56,-132.69,46.56,18.56,4.00,56.52,2.80
70.00,1.00,314.12,3.12,-56.88,-1.19,8.19,8.44,56.52,2.80
70.00,2.00,85.25,-11.94,12.06,-0.06,-11.19,18.94,56.52,2.80
70.00,0.00,85.38,10.88,-133.56,47.06,19.00,5.31,57.89,2.82
70.00,1.00,313.88,3.19,-56.88,-1.62,7.56,8.00,57.89,2.82
70.00,2.00,84.88,-11.81,12.00,-1.31,-9.50,19.06,57.89,2.82
70.00,0.00,84.69,11.06,-133.94,44.75,21.00,3.62,59.25,2.84
70.00,1.00,313.69,3.25,-56.81,-2.06,6.06,8.62,59.25,2.84
70.00,2.00,84.44,-11.69,11.94,-3.50,-10.69,18.19,59.25,2.84
70.00,0.00,83.19,11.38,-134.69,43.56,22.25,2.00,60.71,2.86
70.00,1.00,313.44,3.31,-56.75,-3.06,4.38,9.44,60.71,2.86
70.00,2.00,84.06,-11.56,12.00,-7.94,-12.50,17.00,60.71,2.86
70.00,0.00,81.56,11.75,-135.50,44.19,25.06,4.19,62.13,2.88
70.00,1.00,313.25,3.44,-56.75,-1.62,2.12,8.44,62.13,2.88
70.00,2.00,83.75,-11.38,12.06,-6.06,-12.50,16.06,62.13,2.88
70.00,0.00,79.75,12.12,-136.31,41.50,24.94,3.81,63.45,2.90
70.00,1.00,313.12,3.50,-56.75,-0.88,1.69,7.00,63.45,2.90
70.00,2.00,83.38,-11.25,12.06,-5.19,-11.12,15.44,63.45,2.90
70.00,0.00,294.25,12.50,-137.00,41.19,23.25,3.25,64.79,2.92
70.00,1.00,313.00,3.56,-56.69,-2.25,1.94,5.50,64.79,2.92
70.00,2.00,83.06,-11.12,12.12,-5.94,-10.25,14.56,64.79,2.92
70.00,0.00,294.06,12.88,-137.75,40.69,18.19,3.06,66.07,2.94
70.00,1.00,312.88,3.62,-56.62,-2.12,1.44,4.31,66.07,2.94
70.00,2.00,82.75,-11.00,12.19,-4.88,-8.00,14.00,66.07,2.94
70.00,0.00,293.88,13.12,-138.50,39.12,13.38,1.81,67.26,2.96
70.00,1.00,312.81,3.69,-56.62,-2.19,1.31,4.06,67.26,2.96
70.00,2.00,82.50,-10.94,12.19,-2.81,-6.12,12.88,67.26,2.96
70.00,0.00,293.62,13.19,-139.00,38.12,11.31,2.31,68.41,2.98
70.00,1.00,312.69,3.75,-56.56,-2.38,2.25,4.31,68.41,2.98
70.00,2.00,82.25,-10.88,12.19,-2.56,-5.06,11.06,68.41,2.98
70.00,0.00,293.44,13.25,-139.38,33.38,7.69,4.44,69.47,3.00
70.00,1.00,312.56,3.75,-56.50,-3.62,3.38,4.69,69.47,3.00
70.00,2.00,82.06,-10.81,12.19,-4.06,-4.94,9.88,69.47,3.00
70.00,0.00,293.44,13.38,-140.00,31.50,6.81,5.25,70.54,3.02
70.00,1.00,312.44,3.81,-56.44,-3.94,5.19,4.75,70.54,3.02
70.00,2.00,81.81,-10.75,12.19,-6.25,-6.88,9.50,70.54,3.02
70.00,0.00,293.44,13.56,-140.56,26.06,4.00,5.81,71.51,3.04
70.00,1.00,312.31,3.81,-56.38,-4.00,6.25,4.06,71.51,3.04
70.00,2.00,81.62,-10.69,12.31,-8.25,-7.31,9.81,71.51,3.04
70.00,0.00,293.44,13.62,-140.94,22.50,1.56,4.88,72.40,3.06
70.00,1.00,312.19,3.75,-56.25,-5.44,6.69,2.94,72.40,3.06
70.00,2.00,81.38,-10.56,12.44,-8.94,-7.50,9.25,72.40,3.06
70.00,0.00,293.44,13.69,-141.19,21.38,0.31,4.19,73.24,3.08
70.00,1.00,312.06,3.75,-56.12,-5.06,6.94,2.25,73.24,3.08
70.00,2.00,81.19,-10.50,12.56,-8.31,-6.50,8.69,73.24,3.08
70.00,0.00,293.44,13.69,-141.56,21.81,-1.62,5.94,74.07,3.10
70.00,1.00,311.94,3.69,-56.06,-4.62,6.56,2.56,74.07,3.10
70.00,2.00,81.00,-10.38,12.69,-7.62,-5.62,7.25,74.07,3.10
70.00,0.00,293.50,13.75,-142.00,21.25,-1.25,6.69,74.85,3.12
70.00,1.00,311.81,3.69,-55.94,-4.81,6.31,2.12,74.85,3.12
70.00,2.00,80.88,-10.31,12.81,-6.38,-5.38,6.44,74.85,3.12
70.00,0.00,293.56,13.75,-142.12,16.94,-2.69,6.00,75.50,3.14
70.00,1.00,311.75,3.62,-55.81,-4.56,5.69,1.62,75.50,3.14
70.00,2.00,80.75,-10.25,12.88,-5.75,-4.75,5.38,75.50,3.14
70.00,0.00,293.62,13.69,-142.25,15.56,-4.06,5.12,76.09,3.16
70.00,1.00,311.69,3.56,-55.75,-4.81,5.00,1.31,76.09,3.16
70.00,2.00,80.62,-10.19,13.00,-5.31,-3.88,3.62,76.09,3.16
70.00,0.00,293.69,13.62,-142.44,14.69,-7.00,4.56,76.68,3.18
70.00,1.00,311.62,3.56,-55.62,-5.56,4.38,0.69,76.68,3.18
70.00,2.00,80.56,-10.12,13.12,-6.12,-4.00,1.62,76.68,3.18
70.00,0.00,293.75,13.50,-142.62,13.88,-9.50,4.94,77.25,3.20
70.00,1.00,311.56,3.50,-55.50,-6.50,3.25,1.06,77.25,3.20
70.00,2.00,80.56,-10.06,13.25,-6.25,-4.69,0.25,77.25,3.20
70.00,0.00,293.81,13.31,-142.75,10.50,-10.12,2.50,77.72,3.22
70.00,1.00,311.56,3.50,-55.38,-6.25,1.62,0.00,77.72,3.22
70.00,2.00,80.56,-9.94,13.31,-6.12,-4.75,-0.88,77.72,3.22
70.00,0.00,293.81,13.06,-142.88,9.06,-11.69,-0.69,78.15,3.24
70.00,1.00,311.56,3.50,-55.25,-7.06,0.81,0.12,78.15,3.24
70.00,2.00,80.56,-9.81,13.44,-6.38,-4.88,-1.56,78.15,3.24
70.00,0.00,293.88,12.88,-143.12,11.00,-10.56,0.31,78.67,3.26
70.00,1.00,311.56,3.44,-55.12,-8.25,0.75,0.44,78.67,3.26
70.00,2.00,80.56,-9.75,13.62,-7.31,-5.50,-2.06,78.67,3.26
70.00,0.00,293.88,12.75,-143.31,8.25,-9.56,-1.31,79.13,3.28
70.00,1.00,311.56,3.44,-54.94,-9.50,0.81,-0.44,79.13,3.28
70.00,2.00,80.56,-9.62,13.75,-7.88,-4.94,-2.38,79.13,3.28
70.00,0.00,293.88,12.50,-143.44,4.31,-13.06,-6.19,79.49,3.30
70.00,1.00,311.56,3.44,-54.75,-8.75,0.25,-1.12,79.49,3.30
70.00,2.00,80.62,-9.56,13.94,-8.62,-1.12,-2.69,79.49,3.30
70.00,0.00,293.81,12.19,-143.50,4.25,-15.44,-8.38,79.84,3.32
70.00,1.00,311.62,3.38,-54.56,-8.94,1.69,-2.56,79.84,3.32
70.00,2.00,80.62,-9.56,14.12,-8.06,2.38,-2.19,79.84,3.32
70.00,0.00,293.69,11.81,-143.62,4.38,-15.06,-9.44,80.15,3.34
70.00,1.00,311.69,3.31,-54.38,-7.50,1.75,-3.25,80.15,3.34
70.00,2.00,80.69,-9.62,14.25,-6.62,4.19,-1.00,80.15,3.34
70.00,0.00,293.56,11.50,-143.69,3.44,-13.31,-11.56,80.42,3.36
70.00,1.00,311.75,3.25,-54.25,-6.62,1.31,-3.62,80.42,3.36
70.00,2.00,80.69,-9.69,14.44,-5.88,4.62,-0.31,80.42,3.36
70.00,0.00,293.38,11.12,-143.75,2.25,-10.31,-14.56,80.63,3.38
70.00,1.00,311.81,3.19,-54.12,-6.50,0.94,-3.31,80.63,3.38
70.00,2.00,80.69,-9.81,14.50,-5.44,4.31,-0.06,80.63,3.38
70.00,0.00,293.12,10.88,-143.75,2.81,-6.56,-14.25,80.89,3.40
70.00,1.00,311.81,3.12,-54.00,-6.00,1.56,-1.81,80.89,3.40
70.00,2.00,80.69,-9.88,14.62,-6.25,3.00,0.38,80.89,3.40
70.00,0.00,292.94,10.69,-143.81,3.19,-3.38,-12.19,81.16,3.42
70.00,1.00,311.81,3.12,-53.88,-5.69,2.25,-0.81,81.16,3.42
70.00,2.00,80.62,-9.88,14.75,-6.31,1.94,1.06,81.16,3.42
70.00,0.00,292.75,10.62,-143.81,3.06,-1.62,-10.56,81.40,3.44
70.00,1.00,311.81,3.06,-53.75,-4.75,2.06,-1.06,81.40,3.44
70.00,2.00,80.62,-9.94,14.88,-5.44,1.12,1.38,81.40,3.44
70.00,0.00,292.56,10.56,-143.88,1.75,0.19,-10.25,81.56,3.46
70.00,1.00,311.81,3.00,-53.69,-3.69,1.44,-1.00,81.56,3.46
70.00,2.00,80.56,-10.00,14.94,-4.00,1.56,1.50,81.56,3.46
70.00,0.00,292.38,10.50,-143.81,-0.62,1.12,-10.56,81.64,3.48
70.00,1.00,311.88,3.00,-53.62,-3.94,1.75,-0.94,81.64,3.48
70.00,2.00,80.56,-10.00,15.00,-3.25,1.88,1.50,81.64,3.48
70.00,0.00,292.19,10.44,-143.81,-1.50,2.25,-9.50,81.71,3.50
70.00,1.00,311.81,2.94,-53.56,-3.19,3.44,-0.62,81.71,3.50
70.00,2.00,80.50,-10.06,15.06,-4.00,0.94,2.31,81.71,3.50
70.00,0.00,292.00,10.38,-143.75,-0.06,3.06,-6.25,81.83,3.52
70.00,1.00,311.81,2.88,-53.50,-3.56,4.19,0.81,81.83,3.52
70.00,2.00,80.44,-10.06,15.12,-4.44,-0.31,3.44,81.83,3.52
70.00,0.00,291.94,10.44,-143.75,1.94,3.69,-2.50,82.03,3.54
70.00,1.00,311.75,2.88,-53.38,-4.00,4.69,0.31,82.03,3.54
70.00,2.00,80.38,-10.06,15.19,-5.00,-0.75,3.81,82.03,3.54
70.00,0.00,291.88,10.44,-143.81,2.12,4.19,-1.69,82.21,3.56
70.00,1.00,311.69,2.81,-53.31,-3.88,5.12,0.25,82.21,3.56
70.00,2.00,80.25,-10.06,15.25,-4.31,-0.69,3.50,82.21,3.56
70.00,0.00,291.75,10.50,-143.81,0.88,3.44,-3.12,82.35,3.58
70.00,1.00,311.62,2.75,-53.25,-4.06,4.75,0.50,82.35,3.58
70.00,2.00,80.19,-10.06,15.38,-4.06,-0.56,3.19,82.35,3.58
70.00,0.00,291.69,10.50,-143.81,-0.44,2.94,-4.19,82.46,3.60
70.00,1.00,311.56,2.69,-53.19,-4.06,4.44,1.25,82.46,3.60
70.00,2.00,80.12,-10.12,15.44,-4.44,-0.69,3.44,82.46,3.60
70.00,0.00,291.56,10.44,-143.81,0.69,-0.94,-3.88,82.63,3.62
70.00,1.00,311.56,2.69,-53.12,-3.81,3.88,1.56,82.63,3.62
70.00,2.00,80.06,-10.12,15.50,-5.25,-0.62,2.62,82.63,3.62
70.00,0.00,291.56,10.38,-143.81,1.31,-1.12,-2.38,82.76,3.64
70.00,1.00,311.44,2.62,-53.00,-3.31,2.88,1.00,82.76,3.64
70.00,2.00,80.00,-10.12,15.56,-3.31,0.50,2.25,82.76,3.64
70.00,0.00,291.50,10.31,-143.81,0.50,-1.75,-3.19,82.84,3.66
70.00,1.00,311.44,2.62,-52.94,-2.38,2.50,0.75,82.84,3.66
70.00,2.00,79.94,-10.12,15.62,-2.44,0.69,1.88,82.84,3.66
70.00,0.00,291.44,10.25,-143.75,0.19,-2.62,-3.50,82.90,3.68
70.00,1.00,311.44,2.62,-52.94,-1.88,2.75,0.44,82.90,3.68
70.00,2.00,79.94,-10.19,15.69,-1.75,1.31,1.69,82.90,3.68
70.00,0.00,291.38,10.19,-143.75,0.06,-1.94,-3.50,82.95,3.70
70.00,1.00,311.38,2.56,-52.88,-1.31,2.69,0.38,82.95,3.70
70.00,2.00,79.88,-10.19,15.69,-1.88,1.38,1.56,82.95,3.70
70.00,0.00,291.31,10.12,-143.75,-0.25,-1.38,-2.75,82.97,3.72
70.00,1.00,311.38,2.50,-52.88,-1.06,2.81,0.06,82.97,3.72
70.00,2.00,79.88,-10.25,15.75,-0.94,1.62,1.00,82.97,3.72
70.00,0.00,291.31,10.06,-143.75,-1.12,-1.81,-2.31,82.93,3.74
70.00,1.00,311.38,2.44,-52.81,-0.38,1.94,-0.56,82.93,3.74
70.00,2.00,79.88,-10.31,15.75,0.25,1.38,0.50,82.93,3.74
70.00,0.00,291.25,10.00,-143.69,-0.62,-1.50,-1.94,82.91,3.76
70.00,1.00,311.31,2.44,-52.81,-0.38,1.62,-0.38,82.91,3.76
70.00,2.00,79.88,-10.31,15.75,0.31,1.00,0.00,82.91,3.76
70.00,0.00,291.25,10.00,-143.69,-0.38,-0.62,-1.69,82.89,3.78
70.00,1.00,311.31,2.44,-52.81,0.19,1.38,-0.12,82.89,3.78
70.00,2.00,79.88,-10.31,15.75,0.31,0.88,0.00,82.89,3.78
70.00,0.00,291.19,9.94,-143.69,0.00,-0.69,-1.69,82.86,3.80
70.00,1.00,311.31,2.38,-52.81,0.69,0.38,-0.81,82.86,3.80
70.00,2.00,79.88,-10.38,15.75,1.00,1.31,-0.50,82.86,3.80
70.00,0.00,291.19,9.94,-143.69,0.75,-0.50,-1.12,82.82,3.82
70.00,1.00,311.38,2.38,-52.81,1.19,-0.06,-0.81,82.82,3.82
70.00,2.00,79.88,-10.38,15.75,2.12,1.31,-0.88,82.82,3.82
70.00,0.00,291.19,9.94,-143.69,0.62,-0.38,-1.12,82.74,3.84
70.00,1.00,311.38,2.31,-52.81,2.31,-1.50,-1.38,82.74,3.84
70.00,2.00,79.94,-10.44,15.69,3.38,1.38,-1.69,82.74,3.84
70.00,0.00,291.12,9.88,-143.69,0.56,-0.25,-1.12,82.64,3.86
70.00,1.00,311.44,2.31,-52.88,2.50,-2.31,-1.56,82.64,3.86
70.00,2.00,80.00,-10.44,15.62,4.19,1.25,-2.44,82.64,3.86
