Iteration,IMUNo,OrientationX (deg),OrientationY,OrientationZ,GyroX (20rad/sec),GyroY,GyroZ,Elbow_Pos (rad),Time (sec)
1.00,0.00,278.06,-4.62,-101.06,0.31,-1.94,0.75,0.06,1.02
1.00,1.00,275.00,-1.38,-48.25,-0.38,1.81,0.75,0.06,1.02
1.00,2.00,338.25,-21.25,9.31,-2.75,3.12,1.25,0.06,1.02
1.00,0.00,278.12,-4.62,-101.06,0.50,-1.75,1.44,0.13,1.04
1.00,1.00,275.00,-1.38,-48.25,0.00,1.75,0.50,0.13,1.04
1.00,2.00,338.25,-21.31,9.44,-3.12,2.19,0.88,0.13,1.04
1.00,0.00,278.12,-4.56,-101.06,1.62,-1.94,1.75,0.22,1.06
1.00,1.00,275.00,-1.44,-48.25,-0.25,1.06,-0.19,0.22,1.06
1.00,2.00,338.19,-21.38,9.50,-2.62,1.62,0.19,0.22,1.06
1.00,0.00,278.12,-4.56,-101.12,2.75,-2.31,1.69,0.31,1.08
1.00,1.00,274.94,-1.44,-48.25,0.06,0.62,-0.25,0.31,1.08
1.00,2.00,338.25,-21.38,9.56,-1.75,2.00,-0.75,0.31,1.08
1.00,0.00,278.19,-4.56,-101.19,3.12,-3.25,1.81,0.40,1.10
1.00,1.00,274.94,-1.44,-48.25,-0.44,0.38,-0.38,0.40,1.10
1.00,2.00,338.25,-21.44,9.62,-1.50,1.88,-1.31,0.40,1.10
1.00,0.00,278.25,-4.50,-101.19,2.19,-3.38,1.25,0.47,1.12
1.00,1.00,274.94,-1.44,-48.25,-0.50,0.19,-0.38,0.47,1.12
1.00,2.00,338.25,-21.44,9.62,-1.19,1.00,-1.19,0.47,1.12
1.00,0.00,278.31,-4.56,-101.25,1.69,-4.06,0.56,0.53,1.14
1.00,1.00,274.94,-1.44,-48.25,-0.44,0.00,-0.19,0.53,1.14
1.00,2.00,338.25,-21.44,9.69,-1.12,0.19,-0.62,0.53,1.14
1.00,0.00,278.44,-4.56,-101.25,1.25,-4.38,-0.31,0.58,1.16
1.00,1.00,274.94,-1.44,-48.25,-0.56,0.19,-0.06,0.58,1.16
1.00,2.00,338.25,-21.44,9.75,-1.25,-0.25,-0.06,0.58,1.16
1.00,0.00,278.56,-4.56,-101.25,0.94,-4.00,-0.81,0.62,1.18
1.00,1.00,274.94,-1.44,-48.25,-0.88,0.12,0.25,0.62,1.18
1.00,2.00,338.25,-21.44,9.75,-1.25,0.00,-0.38,0.62,1.18
1.00,0.00,278.62,-4.62,-101.25,0.50,-3.00,-0.94,0.67,1.20
1.00,1.00,274.94,-1.44,-48.25,-0.88,0.31,0.44,0.67,1.20
1.00,2.00,338.25,-21.44,9.81,-1.81,0.19,-0.06,0.67,1.20
1.00,0.00,278.75,-4.62,-101.25,0.06,-2.06,-0.94,0.70,1.22
1.00,1.00,274.94,-1.44,-48.25,-0.75,0.31,0.69,0.70,1.22
1.00,2.00,338.25,-21.44,9.81,-1.62,0.69,-0.31,0.70,1.22
1.00,0.00,278.75,-4.62,-101.25,0.44,-1.44,-0.69,0.75,1.24
1.00,1.00,274.94,-1.44,-48.19,-1.12,0.94,0.50,0.75,1.24
1.00,2.00,338.25,-21.50,9.88,-2.00,0.75,-0.12,0.75,1.24
1.00,0.00,278.81,-4.69,-101.25,0.94,-1.62,-0.44,0.81,1.26
1.00,1.00,274.94,-1.44,-48.19,-0.69,1.12,0.31,0.81,1.26
1.00,2.00,338.25,-21.50,9.94,-2.00,1.00,0.31,0.81,1.26
1.00,0.00,278.88,-4.69,-101.31,1.00,-2.06,-0.38,0.88,1.28
1.00,1.00,274.88,-1.38,-48.12,-0.50,1.62,1.25,0.88,1.28
1.00,2.00,338.25,-21.50,9.94,-2.75,1.38,0.62,0.88,1.28
1.00,0.00,278.94,-4.69,-101.31,1.06,-1.81,0.25,0.97,1.30
1.00,1.00,274.81,-1.38,-48.12,-0.38,1.50,1.38,0.97,1.30
1.00,2.00,338.19,-21.56,10.06,-3.56,1.69,0.62,0.97,1.30
1.00,0.00,278.94,-4.69,-101.31,2.50,-1.88,0.94,1.09,1.32
1.00,1.00,274.81,-1.38,-48.12,-0.56,1.25,1.00,1.09,1.32
1.00,2.00,338.19,-21.56,10.12,-3.12,1.25,-0.06,1.09,1.32
1.00,0.00,279.00,-4.62,-101.44,4.94,-2.25,1.81,1.25,1.34
1.00,1.00,274.81,-1.38,-48.12,-0.44,1.44,0.44,1.25,1.34
1.00,2.00,338.19,-21.62,10.19,-3.25,2.12,-0.44,1.25,1.34
1.00,0.00,279.00,-4.62,-101.56,7.31,-3.62,2.75,1.48,1.36
1.00,1.00,274.31,-1.38,-48.06,0.06,0.81,0.81,1.48,1.36
1.00,2.00,338.19,-21.69,10.31,-3.94,3.06,-1.50,1.48,1.36
1.00,0.00,279.06,-4.56,-101.69,10.06,-5.19,4.62,1.72,1.38
1.00,1.00,274.31,-1.38,-48.06,-0.25,0.94,0.69,1.72,1.38
1.00,2.00,338.25,-21.69,10.38,-2.19,1.44,-1.69,1.72,1.38
1.00,0.00,279.12,-4.50,-101.94,13.44,-6.31,5.62,2.03,1.40
1.00,1.00,274.25,-1.38,-48.06,-0.06,0.19,0.38,2.03,1.40
1.00,2.00,338.25,-21.75,10.44,-2.12,1.06,-1.69,2.03,1.40
1.00,0.00,279.19,-4.38,-102.25,16.69,-7.81,6.81,2.41,1.42
1.00,1.00,274.25,-1.38,-48.06,0.44,-0.19,0.12,2.41,1.42
1.00,2.00,338.31,-21.75,10.56,-2.31,-0.12,-1.31,2.41,1.42
1.00,0.00,279.31,-4.25,-102.62,20.81,-9.62,8.06,2.86,1.44
1.00,1.00,274.25,-1.38,-48.06,1.12,-1.50,-0.19,2.86,1.44
1.00,2.00,338.31,-21.75,10.62,-1.88,-0.12,-2.44,2.86,1.44
1.00,0.00,279.44,-4.12,-103.06,26.31,-10.25,10.25,3.40,1.46
1.00,1.00,274.25,-1.38,-48.06,1.44,-2.50,-0.56,3.40,1.46
1.00,2.00,338.44,-21.69,10.75,-0.56,-0.50,-4.88,3.40,1.46
1.00,0.00,279.50,-3.94,-103.62,29.44,-8.88,10.12,3.96,1.48
1.00,1.00,274.31,-1.31,-48.06,1.06,-3.25,-1.50,3.96,1.48
1.00,2.00,338.56,-21.69,10.81,1.38,-1.56,-6.12,3.96,1.48
1.00,0.00,279.56,-3.81,-104.25,34.12,-9.50,10.06,4.58,1.50
1.00,1.00,274.19,-1.31,-48.06,1.81,-4.94,-2.06,4.58,1.50
1.00,2.00,338.69,-21.62,10.88,3.25,-2.81,-6.62,4.58,1.50
1.00,0.00,279.75,-3.62,-105.00,39.62,-9.44,12.25,5.29,1.52
1.00,1.00,274.31,-1.25,-48.06,2.50,-6.19,-2.56,5.29,1.52
1.00,2.00,338.81,-21.50,10.88,4.31,-3.12,-6.81,5.29,1.52
1.00,0.00,279.75,-3.44,-105.81,44.31,-8.38,15.56,6.06,1.54
1.00,1.00,274.44,-1.19,-48.12,3.00,-7.56,-2.88,6.06,1.54
1.00,2.00,339.00,-21.44,10.88,5.62,-4.31,-6.44,6.06,1.54
1.00,0.00,279.75,-3.12,-106.69,49.12,-8.19,17.81,6.91,1.56
1.00,1.00,274.38,-1.12,-48.12,3.38,-7.94,-3.25,6.91,1.56
1.00,2.00,339.12,-21.31,10.81,6.88,-4.81,-5.94,6.91,1.56
1.00,0.00,279.88,-2.81,-107.69,53.44,-8.62,20.12,7.82,1.58
1.00,1.00,274.50,-1.06,-48.19,3.56,-8.12,-3.31,7.82,1.58
1.00,2.00,339.25,-21.25,10.69,7.50,-4.25,-6.00,7.82,1.58
1.00,0.00,279.81,-2.50,-108.81,57.12,-9.31,22.06,8.86,1.60
1.00,1.00,274.25,-1.00,-48.25,3.25,-7.25,-2.69,8.86,1.60
1.00,2.00,339.38,-21.06,10.62,5.50,-7.00,-5.00,8.86,1.60
1.00,0.00,279.69,-2.12,-109.94,60.00,-9.38,23.25,9.94,1.62
1.00,1.00,274.38,-0.94,-48.31,3.88,-7.62,-2.19,9.94,1.62
1.00,2.00,339.44,-20.88,10.50,5.75,-10.12,-3.62,9.94,1.62
1.00,0.00,279.56,-1.75,-111.12,61.44,-10.69,23.94,11.00,1.64
1.00,1.00,274.50,-0.88,-48.38,4.69,-8.25,-2.31,11.00,1.64
1.00,2.00,339.56,-20.69,10.38,8.38,-10.06,-4.00,11.00,1.64
1.00,0.00,279.50,-1.44,-112.31,62.81,-12.00,23.94,12.11,1.66
1.00,1.00,274.31,-0.81,-48.44,4.75,-8.06,-2.62,12.11,1.66
1.00,2.00,339.62,-20.50,10.25,7.69,-10.62,-3.56,12.11,1.66
1.00,0.00,279.44,-1.06,-113.50,63.69,-11.75,24.25,13.28,1.68
1.00,1.00,274.44,-0.69,-48.50,4.75,-7.31,-0.94,13.28,1.68
1.00,2.00,339.69,-20.25,10.12,5.19,-12.75,-2.62,13.28,1.68
1.00,0.00,279.44,-0.75,-114.81,66.38,-14.62,25.12,14.47,1.70
1.00,1.00,274.50,-0.62,-48.56,4.38,-7.44,-0.69,14.47,1.70
1.00,2.00,339.69,-20.12,10.06,6.50,-11.88,-2.25,14.47,1.70
1.00,0.00,279.19,-0.44,-116.06,67.12,-16.44,25.62,15.68,1.72
1.00,1.00,274.56,-0.50,-48.69,4.44,-6.69,0.06,15.68,1.72
1.00,2.00,339.75,-19.75,9.88,6.69,-12.19,-1.38,15.68,1.72
1.00,0.00,279.25,-0.12,-117.38,66.31,-17.19,24.94,16.94,1.74
1.00,1.00,274.56,-0.44,-48.75,3.94,-6.25,0.44,16.94,1.74
1.00,2.00,339.75,-19.62,9.81,3.44,-13.06,-0.25,16.94,1.74
1.00,0.00,279.38,0.06,-118.69,67.19,-18.75,23.50,18.21,1.76
1.00,1.00,274.38,-0.31,-48.81,3.94,-6.44,0.12,18.21,1.76
1.00,2.00,339.75,-19.38,9.75,3.56,-13.88,-0.12,18.21,1.76
1.00,0.00,279.62,0.25,-120.00,70.38,-22.62,23.38,19.49,1.78
1.00,1.00,274.44,-0.25,-48.88,3.88,-6.56,-1.31,19.49,1.78
1.00,2.00,339.81,-19.00,9.56,6.25,-11.62,-1.88,19.49,1.78
1.00,0.00,280.00,0.38,-121.44,72.44,-24.19,23.81,20.83,1.80
1.00,1.00,274.44,-0.19,-48.94,3.62,-6.12,-0.81,20.83,1.80
1.00,2.00,339.81,-18.94,9.50,5.88,-12.00,-1.75,20.83,1.80
1.00,0.00,280.38,0.50,-122.81,72.50,-25.50,23.88,22.14,1.82
1.00,1.00,274.50,-0.12,-49.00,3.88,-6.44,-0.62,22.14,1.82
1.00,2.00,339.88,-18.56,9.31,6.56,-11.69,-0.69,22.14,1.82
1.00,0.00,280.88,0.62,-124.19,70.44,-27.50,22.12,23.44,1.84
1.00,1.00,274.56,0.00,-49.12,4.25,-6.00,-0.31,23.44,1.84
1.00,2.00,339.88,-18.44,9.25,5.56,-13.31,-0.62,23.44,1.84
1.00,0.00,281.50,0.62,-125.56,68.44,-28.31,20.25,24.72,1.86
1.00,1.00,274.62,0.00,-49.19,4.06,-6.06,0.00,24.72,1.86
1.00,2.00,339.88,-18.19,9.12,4.62,-13.19,-0.31,24.72,1.86
1.00,0.00,282.19,0.56,-126.88,67.62,-29.44,19.00,26.00,1.88
1.00,1.00,274.62,0.06,-49.25,3.44,-6.31,-0.12,26.00,1.88
1.00,2.00,339.88,-17.81,9.00,3.81,-13.50,-0.69,26.00,1.88
1.00,0.00,283.00,0.50,-128.12,65.31,-30.31,17.19,27.21,1.90
1.00,1.00,274.62,0.19,-49.31,3.31,-6.44,0.31,27.21,1.90
1.00,2.00,339.88,-17.69,8.94,4.50,-11.81,-0.06,27.21,1.90
1.00,0.00,283.81,0.38,-129.38,62.50,-28.06,15.62,28.34,1.92
1.00,1.00,274.69,0.25,-49.38,4.12,-7.31,0.12,28.34,1.92
1.00,2.00,339.81,-17.38,8.75,5.94,-11.31,-0.19,28.34,1.92
1.00,0.00,284.62,0.31,-130.56,60.75,-25.81,15.25,29.44,1.94
1.00,1.00,274.75,0.38,-49.44,2.94,-6.62,0.06,29.44,1.94
1.00,2.00,339.81,-17.25,8.69,5.75,-10.75,-0.94,29.44,1.94
1.00,0.00,285.38,0.19,-131.69,58.25,-24.38,15.38,30.48,1.96
1.00,1.00,274.69,0.44,-49.50,3.19,-6.12,-0.12,30.48,1.96
1.00,2.00,339.88,-16.94,8.50,6.44,-11.31,-1.00,30.48,1.96
1.00,0.00,285.69,0.19,-132.25,55.19,-21.88,14.19,31.50,1.98
1.00,1.00,274.69,0.56,-49.56,3.00,-6.12,1.81,31.50,1.98
1.00,2.00,339.88,-16.75,8.44,3.94,-13.06,-0.12,31.50,1.98
1.00,0.00,286.38,0.06,-133.31,53.00,-21.56,13.31,32.52,2.00
1.00,1.00,274.62,0.69,-49.62,2.81,-6.00,2.25,32.52,2.00
1.00,2.00,339.88,-16.62,8.38,2.44,-12.19,0.31,32.52,2.00
1.00,0.00,287.00,0.00,-134.25,48.12,-18.12,12.62,33.40,2.02
1.00,1.00,274.62,0.81,-49.69,3.25,-6.19,2.25,33.40,2.02
1.00,2.00,339.88,-16.25,8.25,3.81,-12.38,0.19,33.40,2.02
1.00,0.00,107.50,0.00,-135.12,42.94,-17.00,10.50,34.17,2.04
1.00,1.00,274.62,0.88,-49.75,2.75,-6.50,2.38,34.17,2.04
1.00,2.00,339.88,-16.00,8.19,4.31,-12.62,-0.12,34.17,2.04
1.00,0.00,107.81,-0.06,-135.88,39.75,-16.75,8.81,34.88,2.06
1.00,1.00,274.50,1.00,-49.75,3.00,-6.12,2.12,34.88,2.06
1.00,2.00,339.88,-15.75,8.06,4.56,-12.50,-1.62,34.88,2.06
1.00,0.00,108.12,-0.19,-136.62,38.06,-16.25,8.94,35.54,2.08
1.00,1.00,274.56,1.12,-49.81,2.50,-6.69,2.00,35.54,2.08
1.00,2.00,339.94,-15.50,8.00,4.88,-11.81,-2.56,35.54,2.08
1.00,0.00,108.44,-0.31,-137.38,35.88,-16.50,8.94,36.18,2.10
1.00,1.00,274.56,1.25,-49.88,2.56,-7.44,1.31,36.18,2.10
1.00,2.00,340.00,-15.31,7.94,4.12,-10.94,-2.75,36.18,2.10
1.00,0.00,108.75,-0.44,-138.06,32.69,-15.62,9.00,36.74,2.12
1.00,1.00,274.56,1.38,-49.94,2.81,-8.00,1.00,36.74,2.12
1.00,2.00,340.06,-15.12,7.88,4.69,-9.94,-3.94,36.74,2.12
1.00,0.00,109.00,-0.50,-138.56,27.19,-13.12,7.94,37.16,2.14
1.00,1.00,274.69,1.50,-49.94,2.00,-8.69,0.44,37.16,2.14
1.00,2.00,340.12,-14.88,7.75,6.00,-10.38,-5.38,37.16,2.14
1.00,0.00,109.31,-0.56,-139.00,21.38,-10.56,5.75,37.44,2.16
1.00,1.00,274.56,1.62,-50.00,2.69,-9.19,0.00,37.44,2.16
1.00,2.00,340.25,-14.69,7.69,7.38,-9.81,-6.19,37.44,2.16
1.00,0.00,109.50,-0.56,-139.38,19.69,-10.12,5.56,37.70,2.18
1.00,1.00,274.62,1.75,-50.06,2.69,-9.56,0.00,37.70,2.18
1.00,2.00,340.31,-14.56,7.62,6.88,-10.06,-6.88,37.70,2.18
1.00,0.00,109.69,-0.62,-139.75,20.06,-10.06,8.75,37.99,2.20
1.00,1.00,274.56,1.88,-50.12,3.00,-11.38,0.19,37.99,2.20
1.00,2.00,340.56,-14.25,7.50,5.25,-11.44,-7.56,37.99,2.20
1.00,0.00,109.94,-0.69,-140.12,19.88,-9.94,10.50,38.28,2.22
1.00,1.00,274.69,2.00,-50.12,2.38,-11.94,-0.88,38.28,2.22
1.00,2.00,340.62,-14.12,7.50,5.69,-9.94,-9.12,38.28,2.22
1.00,0.00,110.00,-0.62,-140.44,14.00,-7.19,11.12,38.40,2.24
1.00,1.00,274.81,2.19,-50.19,3.25,-13.44,-1.62,38.40,2.24
1.00,2.00,340.94,-13.81,7.44,7.81,-9.06,-11.75,38.40,2.24
1.00,0.00,110.31,-0.50,-140.56,8.75,-5.31,9.25,38.37,2.26
1.00,1.00,275.00,2.31,-50.25,3.62,-14.25,-3.00,38.37,2.26
1.00,2.00,341.19,-13.62,7.31,10.38,-7.25,-13.69,38.37,2.26
1.00,0.00,110.44,-0.38,-140.69,6.62,-3.88,8.69,38.26,2.28
1.00,1.00,275.19,2.44,-50.38,3.69,-13.81,-3.69,38.26,2.28
1.00,2.00,341.38,-13.56,7.25,11.81,-7.81,-14.62,38.26,2.28
1.00,0.00,110.62,-0.31,-140.81,4.44,-3.12,9.00,38.10,2.30
1.00,1.00,275.31,2.56,-50.44,4.81,-14.75,-3.88,38.10,2.30
1.00,2.00,341.81,-13.31,7.00,12.62,-8.06,-14.75,38.10,2.30
1.00,0.00,110.88,-0.25,-140.88,5.38,-3.44,10.62,37.95,2.32
1.00,1.00,275.50,2.75,-50.56,6.69,-16.31,-3.81,37.95,2.32
1.00,2.00,342.00,-13.19,6.88,12.62,-7.75,-14.88,37.95,2.32
1.00,0.00,111.12,-0.19,-141.00,6.00,-3.62,14.69,37.83,2.34
1.00,1.00,275.69,2.88,-50.62,5.69,-15.88,-3.94,37.83,2.34
1.00,2.00,342.44,-12.94,6.62,12.25,-7.12,-14.94,37.83,2.34
1.00,0.00,111.44,0.00,-141.12,5.00,-3.12,17.00,37.66,2.36
1.00,1.00,275.88,3.00,-50.75,6.00,-15.06,-3.62,37.66,2.36
1.00,2.00,342.75,-12.75,6.44,13.31,-5.69,-15.31,37.66,2.36
1.00,0.00,111.62,0.12,-141.25,4.25,-2.88,17.25,37.49,2.38
1.00,1.00,276.06,3.19,-50.88,5.19,-13.75,-2.88,37.49,2.38
1.00,2.00,342.94,-12.69,6.38,13.06,-6.19,-14.12,37.49,2.38
1.00,0.00,112.00,0.31,-141.44,5.19,-4.56,17.12,37.33,2.40
1.00,1.00,276.06,3.31,-50.94,5.50,-12.19,-2.50,37.33,2.40
1.00,2.00,343.31,-12.44,6.06,12.94,-7.38,-13.00,37.33,2.40
1.00,0.00,112.38,0.44,-141.69,7.25,-7.12,17.31,37.21,2.42
1.00,1.00,276.19,3.50,-51.06,5.88,-11.06,-2.62,37.21,2.42
1.00,2.00,343.50,-12.38,5.94,13.19,-7.81,-11.75,37.21,2.42
1.00,0.00,112.62,0.44,-142.00,9.94,-9.94,17.69,37.16,2.44
1.00,1.00,276.31,3.62,-51.12,6.38,-10.06,-2.38,37.16,2.44
1.00,2.00,343.81,-12.12,5.62,12.81,-7.12,-10.31,37.16,2.44
1.00,0.00,113.06,0.44,-142.38,12.62,-12.00,17.81,37.18,2.46
1.00,1.00,276.31,3.75,-51.25,6.75,-8.75,-1.88,37.18,2.46
1.00,2.00,344.00,-12.00,5.44,11.50,-6.31,-9.38,37.18,2.46
1.00,0.00,113.19,0.44,-142.69,15.81,-14.69,17.81,37.28,2.48
1.00,1.00,276.38,3.88,-51.38,6.50,-6.88,-1.38,37.28,2.48
1.00,2.00,344.12,-11.94,5.38,10.81,-4.25,-7.00,37.28,2.48
1.00,0.00,113.62,0.38,-143.00,19.31,-16.81,17.62,37.45,2.50
1.00,1.00,276.44,3.94,-51.50,6.69,-5.12,-1.00,37.45,2.50
1.00,2.00,344.31,-11.81,5.06,10.75,-3.25,-5.06,37.45,2.50
1.00,0.00,114.06,0.31,-143.44,19.94,-19.75,14.75,37.68,2.52
1.00,1.00,276.44,4.06,-51.62,6.44,-3.38,-0.50,37.68,2.52
1.00,2.00,344.38,-11.75,4.94,8.50,-3.31,-2.56,37.68,2.52
1.00,0.00,114.31,0.00,-143.88,24.62,-27.81,10.56,38.06,2.54
1.00,1.00,276.44,4.12,-51.69,5.81,-2.50,0.44,38.06,2.54
1.00,2.00,344.44,-11.69,4.75,5.44,-2.69,-0.06,38.06,2.54
1.00,0.00,114.75,-0.38,-144.44,32.00,-36.31,9.50,38.63,2.56
1.00,1.00,276.31,4.19,-51.81,5.25,-1.06,0.50,38.63,2.56
1.00,2.00,344.38,-11.62,4.69,3.81,-1.12,1.38,38.63,2.56
1.00,0.00,115.06,-0.94,-145.12,36.81,-44.50,10.38,39.25,2.58
1.00,1.00,276.25,4.19,-51.88,6.00,-0.31,0.12,39.25,2.58
1.00,2.00,344.38,-11.62,4.62,5.62,0.44,2.38,39.25,2.58
1.00,0.00,115.50,-1.69,-146.00,38.12,-48.44,8.31,39.88,2.60
1.00,1.00,275.94,4.19,-52.00,6.69,1.12,0.94,39.88,2.60
1.00,2.00,344.31,-11.62,4.44,6.44,1.44,3.88,39.88,2.60
1.00,0.00,115.94,-2.50,-146.81,40.00,-52.00,5.00,40.61,2.62
1.00,1.00,275.88,4.19,-52.12,6.19,2.31,1.69,40.61,2.62
1.00,2.00,344.25,-11.69,4.38,3.56,0.88,5.00,40.61,2.62
1.00,0.00,116.25,-3.31,-147.62,41.31,-53.00,2.31,41.38,2.64
1.00,1.00,275.81,4.25,-52.25,6.12,2.12,1.81,41.38,2.64
1.00,2.00,344.19,-11.69,4.25,2.81,0.56,5.56,41.38,2.64
1.00,0.00,116.62,-4.19,-148.44,42.06,-53.81,0.12,42.15,2.66
1.00,1.00,275.75,4.25,-52.38,6.62,2.19,1.19,42.15,2.66
1.00,2.00,344.00,-11.69,4.12,3.88,-0.12,5.62,42.15,2.66
1.00,0.00,116.94,-5.06,-149.25,41.31,-52.25,-1.75,42.85,2.68
1.00,1.00,275.69,4.19,-52.50,6.88,1.88,0.12,42.85,2.68
1.00,2.00,344.00,-11.69,4.06,6.31,1.69,5.69,42.85,2.68
1.00,0.00,117.19,-5.94,-150.00,39.25,-48.12,-2.88,43.51,2.70
1.00,1.00,275.69,4.19,-52.62,6.62,2.00,-0.06,43.51,2.70
1.00,2.00,343.88,-11.75,3.94,5.94,1.25,5.12,43.51,2.70
1.00,0.00,117.38,-6.69,-150.69,37.88,-43.38,-4.19,44.17,2.72
1.00,1.00,275.69,4.19,-52.75,5.12,1.69,-0.69,44.17,2.72
1.00,2.00,343.81,-11.81,3.81,5.19,1.12,5.19,44.17,2.72
1.00,0.00,117.50,-7.31,-151.38,36.44,-36.94,-4.25,44.78,2.74
1.00,1.00,275.62,4.12,-52.81,5.31,1.44,-0.75,44.78,2.74
1.00,2.00,343.69,-11.81,3.69,5.56,-0.50,5.00,44.78,2.74
1.00,0.00,117.69,-7.69,-152.06,33.06,-29.25,-3.06,45.31,2.76
1.00,1.00,275.56,4.12,-52.94,5.06,0.94,-0.38,45.31,2.76
1.00,2.00,343.62,-11.81,3.44,6.69,-0.06,3.75,45.31,2.76
1.00,0.00,117.81,-8.00,-152.62,29.00,-22.38,-4.44,45.77,2.78
1.00,1.00,275.56,4.12,-53.06,4.44,0.19,0.25,45.77,2.78
1.00,2.00,343.56,-11.81,3.38,5.88,-2.00,3.12,45.77,2.78
1.00,0.00,117.88,-8.25,-153.12,25.81,-15.62,-3.38,46.16,2.80
1.00,1.00,275.56,4.12,-53.12,4.94,-0.62,0.00,46.16,2.80
1.00,2.00,343.50,-11.75,3.19,6.56,-2.75,2.06,46.16,2.80
1.00,0.00,117.94,-8.44,-153.50,20.88,-10.38,-1.50,46.42,2.82
1.00,1.00,275.56,4.12,-53.25,4.69,-1.38,-0.38,46.42,2.82
1.00,2.00,343.50,-11.75,3.12,7.88,-2.81,2.19,46.42,2.82
1.00,0.00,117.88,-8.62,-153.88,18.69,-6.31,-3.75,46.64,2.84
1.00,1.00,275.62,4.12,-53.31,4.81,-1.62,0.06,46.64,2.84
1.00,2.00,343.44,-11.62,2.88,7.88,-3.94,1.94,46.64,2.84
1.00,0.00,117.88,-8.69,-154.25,15.75,-0.31,-1.12,46.82,2.86
1.00,1.00,275.50,4.19,-53.44,4.44,-1.88,0.00,46.82,2.86
1.00,2.00,343.44,-11.56,2.75,6.31,-4.88,1.06,46.82,2.86
1.00,0.00,117.81,-8.44,-154.44,10.75,6.56,-1.19,46.87,2.88
1.00,1.00,275.56,4.19,-53.50,5.00,-3.06,-0.12,46.87,2.88
1.00,2.00,343.44,-11.50,2.69,8.38,-5.25,0.44,46.87,2.88
1.00,0.00,117.81,-8.06,-154.62,5.38,14.31,-0.81,46.81,2.90
1.00,1.00,275.44,4.25,-53.62,5.88,-4.00,0.31,46.81,2.90
1.00,2.00,343.44,-11.44,2.50,8.62,-4.62,0.19,46.81,2.90
1.00,0.00,117.75,-7.62,-154.62,-1.06,20.44,-0.94,46.64,2.92
1.00,1.00,275.50,4.31,-53.75,4.62,-3.38,0.31,46.64,2.92
1.00,2.00,343.50,-11.31,2.31,7.12,-4.94,-0.25,46.64,2.92
1.00,0.00,117.62,-7.25,-154.56,-5.50,23.75,-0.19,46.39,2.94
1.00,1.00,275.50,4.31,-53.81,4.38,-2.31,0.88,46.39,2.94
1.00,2.00,343.50,-11.25,2.19,6.94,-4.50,0.00,46.39,2.94
1.00,0.00,117.56,-6.75,-154.44,-10.06,25.69,3.00,46.09,2.96
1.00,1.00,275.44,4.44,-53.94,3.88,-1.69,2.00,46.09,2.96
1.00,2.00,343.50,-11.19,2.06,4.94,-3.94,-0.50,46.09,2.96
1.00,0.00,117.44,-6.31,-154.12,-16.62,27.31,0.88,45.72,2.98
1.00,1.00,275.44,4.44,-54.00,2.81,-1.19,2.75,45.72,2.98
1.00,2.00,343.50,-11.12,1.94,2.19,-3.56,-0.69,45.72,2.98
1.00,0.00,117.25,-5.81,-153.75,-22.31,28.12,-2.25,45.24,3.00
1.00,1.00,275.38,4.50,-54.06,2.31,-1.38,3.19,45.24,3.00
1.00,2.00,343.50,-11.06,1.88,1.69,-3.62,-0.88,45.24,3.00
1.00,0.00,117.06,-5.44,-153.31,-26.12,27.06,-3.31,44.69,3.02
1.00,1.00,275.31,4.56,-54.12,1.25,-0.56,2.69,44.69,3.02
1.00,2.00,343.56,-11.00,1.81,1.31,-2.31,-1.56,44.69,3.02
1.00,0.00,116.69,-5.00,-152.81,-30.62,27.19,-3.81,44.06,3.04
1.00,1.00,275.25,4.62,-54.19,1.06,0.00,3.12,44.06,3.04
1.00,2.00,343.56,-10.94,1.75,0.62,-1.75,-1.62,44.06,3.04
1.00,0.00,116.44,-4.56,-152.19,-35.75,29.81,-5.06,43.40,3.06
1.00,1.00,275.00,4.75,-54.19,0.44,-0.12,4.00,43.40,3.06
1.00,2.00,343.56,-10.94,1.75,-2.56,0.50,-0.69,43.40,3.06
1.00,0.00,116.06,-4.06,-151.44,-39.69,33.12,-6.25,42.75,3.08
1.00,1.00,275.00,4.81,-54.25,0.75,-0.62,5.00,42.75,3.08
1.00,2.00,343.56,-11.00,1.69,-7.12,0.00,-0.19,42.75,3.08
1.00,0.00,115.75,-3.50,-150.62,-44.31,37.69,-6.88,42.02,3.10
1.00,1.00,274.88,4.88,-54.25,-2.88,2.88,4.62,42.02,3.10
1.00,2.00,343.56,-11.00,1.75,-7.94,-0.25,-0.25,42.02,3.10
1.00,0.00,115.31,-2.88,-149.75,-51.19,44.06,-9.06,41.16,3.12
1.00,1.00,274.75,5.00,-54.25,-3.31,4.38,5.75,41.16,3.12
1.00,2.00,343.50,-11.00,1.81,-7.94,1.31,2.25,41.16,3.12
1.00,0.00,114.38,-2.25,-148.69,-56.88,44.31,-16.50,40.20,3.14
1.00,1.00,274.56,5.06,-54.25,-5.50,6.56,6.75,40.20,3.14
1.00,2.00,343.44,-11.06,1.81,-9.25,2.00,2.62,40.20,3.14
1.00,0.00,113.88,-1.69,-147.75,-46.81,44.31,-11.81,39.55,3.16
1.00,1.00,274.31,5.12,-54.19,-6.62,6.69,7.69,39.55,3.16
1.00,2.00,343.31,-11.12,1.88,-14.25,3.50,4.06,39.55,3.16
1.00,0.00,113.12,-1.00,-146.88,-43.56,46.94,-3.81,39.08,3.18
1.00,1.00,274.06,5.19,-54.00,-8.44,7.56,9.12,39.08,3.18
1.00,2.00,343.19,-11.25,2.00,-19.75,2.88,8.25,39.08,3.18
1.00,0.00,112.75,-0.31,-146.00,-50.06,47.00,-7.81,38.48,3.20
1.00,1.00,273.81,5.25,-53.88,-7.94,7.50,9.94,38.48,3.20
1.00,2.00,343.00,-11.31,2.38,-20.00,2.62,9.06,38.48,3.20
1.00,0.00,112.19,0.25,-144.94,-54.50,49.12,-16.06,37.82,3.22
1.00,1.00,273.50,5.38,-53.75,-10.69,10.06,11.50,37.82,3.22
1.00,2.00,342.81,-11.31,2.75,-21.50,1.62,8.19,37.82,3.22
1.00,0.00,111.38,0.81,-143.88,-53.00,48.06,-18.06,37.16,3.24
1.00,1.00,273.19,5.44,-53.50,-11.94,10.62,10.94,37.16,3.24
1.00,2.00,342.56,-11.38,3.12,-20.12,2.88,8.31,37.16,3.24
1.00,0.00,110.75,1.31,-142.94,-52.88,44.31,-17.12,36.47,3.26
1.00,1.00,272.94,5.44,-53.25,-11.31,9.81,10.25,36.47,3.26
1.00,2.00,342.38,-11.50,3.50,-18.31,4.25,9.69,36.47,3.26
1.00,0.00,110.06,1.75,-141.88,-54.12,42.81,-17.50,35.81,3.28
1.00,1.00,272.62,5.50,-53.00,-11.38,11.62,13.19,35.81,3.28
1.00,2.00,342.12,-11.56,3.75,-21.44,1.38,10.69,35.81,3.28
1.00,0.00,109.44,2.12,-140.75,-53.81,41.25,-19.56,35.24,3.30
1.00,1.00,272.25,5.62,-52.75,-12.31,12.25,13.81,35.24,3.30
1.00,2.00,341.88,-11.62,4.19,-25.12,-0.44,12.25,35.24,3.30
1.00,0.00,108.81,2.44,-139.75,-51.56,37.12,-20.69,34.70,3.32
1.00,1.00,271.94,5.62,-52.44,-14.19,12.00,11.06,34.70,3.32
1.00,2.00,341.56,-11.62,4.62,-24.62,0.94,11.75,34.70,3.32
1.00,0.00,107.88,2.69,-138.81,-48.06,34.62,-20.12,34.22,3.34
1.00,1.00,271.62,5.69,-52.19,-14.06,11.69,10.44,34.22,3.34
1.00,2.00,341.31,-11.69,5.06,-24.19,1.69,10.06,34.22,3.34
1.00,0.00,107.31,2.94,-137.88,-44.81,32.06,-19.31,33.80,3.36
1.00,1.00,271.31,5.69,-51.88,-14.50,10.81,10.31,33.80,3.36
1.00,2.00,341.06,-11.75,5.50,-23.88,2.75,9.06,33.80,3.36
1.00,0.00,106.38,3.12,-137.06,-41.69,29.12,-17.88,33.48,3.38
1.00,1.00,271.00,5.75,-51.56,-14.94,11.25,10.62,33.48,3.38
1.00,2.00,340.88,-11.81,5.94,-25.69,1.25,10.69,33.48,3.38
1.00,0.00,105.88,3.31,-136.25,-39.44,28.38,-15.62,33.19,3.40
1.00,1.00,270.75,5.75,-51.19,-14.56,10.81,9.88,33.19,3.40
1.00,2.00,340.62,-11.81,6.38,-24.81,1.38,10.56,33.19,3.40
1.00,0.00,105.38,3.50,-135.44,-39.38,27.81,-15.00,32.84,3.42
1.00,1.00,270.44,5.75,-50.94,-14.50,11.25,11.25,32.84,3.42
1.00,2.00,340.38,-11.88,6.75,-21.88,0.62,8.81,32.84,3.42
1.00,0.00,274.19,3.69,-134.62,-39.19,27.31,-15.25,32.53,3.44
1.00,1.00,270.12,5.81,-50.56,-15.75,10.75,11.94,32.53,3.44
1.00,2.00,340.12,-11.94,7.19,-23.69,-0.31,8.38,32.53,3.44
1.00,0.00,273.44,3.81,-133.81,-38.69,27.19,-15.06,32.29,3.46
1.00,1.00,269.88,5.81,-50.25,-16.88,9.94,9.12,32.29,3.46
1.00,2.00,339.88,-11.88,7.62,-26.50,-2.75,10.06,32.29,3.46
1.00,0.00,272.19,4.00,-133.19,-37.00,26.19,-13.75,31.95,3.48
1.00,1.00,269.62,5.88,-49.88,-15.56,9.31,9.56,31.95,3.48
1.00,2.00,339.69,-11.94,8.06,-20.00,0.62,7.81,31.95,3.48
1.00,0.00,271.44,4.19,-132.50,-34.69,25.12,-10.38,31.64,3.50
1.00,1.00,269.38,5.88,-49.56,-16.44,9.31,10.31,31.64,3.50
1.00,2.00,339.50,-11.94,8.38,-19.19,1.00,7.75,31.64,3.50
1.00,0.00,270.75,4.38,-131.75,-34.56,24.31,-8.00,31.43,3.52
1.00,1.00,269.06,5.94,-49.19,-17.12,9.50,12.31,31.43,3.52
1.00,2.00,339.31,-12.00,8.75,-24.12,-2.69,9.06,31.43,3.52
1.00,0.00,269.81,4.56,-131.06,-34.69,24.44,-7.88,31.22,3.54
1.00,1.00,268.81,6.00,-48.81,-17.94,9.81,11.12,31.22,3.54
1.00,2.00,339.06,-11.94,9.25,-24.38,-4.19,10.31,31.22,3.54
1.00,0.00,269.06,4.75,-130.38,-35.00,24.12,-7.81,31.01,3.56
1.00,1.00,268.50,6.00,-48.44,-16.88,9.69,11.06,31.01,3.56
1.00,2.00,338.81,-11.88,9.62,-24.38,-4.19,10.31,31.01,3.56
1.00,0.00,268.75,4.88,-130.00,-35.31,23.56,-7.25,30.73,3.58
1.00,1.00,268.19,6.06,-48.12,-16.94,10.50,12.12,30.73,3.58
1.00,2.00,338.56,-11.88,10.00,-21.44,-2.38,8.31,30.73,3.58
1.00,0.00,267.81,5.00,-129.31,-35.38,22.38,-7.19,30.47,3.60
1.00,1.00,267.88,6.12,-47.75,-17.12,9.88,12.88,30.47,3.60
1.00,2.00,338.38,-11.81,10.38,-22.44,-2.62,8.38,30.47,3.60
1.00,0.00,267.19,5.19,-128.62,-35.06,22.06,-5.88,30.28,3.62
1.00,1.00,267.56,6.19,-47.38,-17.56,9.81,13.81,30.28,3.62
1.00,2.00,338.12,-11.81,10.81,-25.56,-6.19,10.31,30.28,3.62
1.00,0.00,266.44,5.38,-127.94,-37.19,24.00,-5.25,30.03,3.64
1.00,1.00,267.25,6.25,-47.00,-18.06,10.75,13.88,30.03,3.64
1.00,2.00,337.88,-11.75,11.25,-24.56,-6.62,10.00,30.03,3.64
1.00,0.00,265.75,5.56,-127.12,-39.12,25.06,-5.94,29.72,3.66
1.00,1.00,266.88,6.31,-46.62,-17.75,11.25,13.88,29.72,3.66
1.00,2.00,337.62,-11.62,11.69,-23.75,-6.12,9.25,29.72,3.66
1.00,0.00,265.06,5.81,-126.38,-37.06,25.19,-6.12,29.45,3.68
1.00,1.00,266.56,6.38,-46.25,-18.19,10.81,13.81,29.45,3.68
1.00,2.00,337.38,-11.56,12.06,-23.25,-5.56,9.50,29.45,3.68
1.00,0.00,264.19,6.00,-125.69,-35.25,25.88,-4.62,29.21,3.70
1.00,1.00,266.25,6.44,-45.81,-18.06,9.88,13.38,29.21,3.70
1.00,2.00,337.12,-11.50,12.50,-23.19,-5.94,9.56,29.21,3.70
1.00,0.00,263.44,6.25,-124.94,-35.44,26.75,-4.00,28.97,3.72
1.00,1.00,265.94,6.44,-45.44,-18.38,10.19,12.31,28.97,3.72
1.00,2.00,336.88,-11.44,12.94,-23.44,-7.06,10.12,28.97,3.72
1.00,0.00,262.56,6.44,-124.25,-35.12,26.69,-3.94,28.70,3.74
1.00,1.00,265.62,6.44,-45.06,-19.50,10.25,11.38,28.70,3.74
1.00,2.00,336.62,-11.38,13.31,-21.88,-5.44,9.25,28.70,3.74
1.00,0.00,261.88,6.69,-123.50,-32.81,26.62,-3.81,28.49,3.76
1.00,1.00,265.38,6.50,-44.62,-19.50,10.81,10.75,28.49,3.76
1.00,2.00,336.38,-11.31,13.69,-22.25,-5.00,9.25,28.49,3.76
1.00,0.00,261.19,6.88,-122.88,-31.81,26.38,-3.88,28.30,3.78
1.00,1.00,265.12,6.50,-44.19,-19.12,10.38,10.94,28.30,3.78
1.00,2.00,336.19,-11.25,14.12,-22.44,-5.44,9.50,28.30,3.78
1.00,0.00,260.38,7.12,-122.19,-31.50,26.31,-4.88,28.12,3.80
1.00,1.00,264.81,6.50,-43.81,-19.19,10.50,10.88,28.12,3.80
1.00,2.00,335.94,-11.19,14.50,-22.56,-6.12,9.62,28.12,3.80
1.00,0.00,259.75,7.31,-121.50,-29.75,25.12,-4.25,27.96,3.82
1.00,1.00,264.56,6.44,-43.38,-19.88,10.69,9.44,27.96,3.82
1.00,2.00,335.56,-11.06,15.12,-21.69,-5.94,9.62,27.96,3.82
1.00,0.00,259.12,7.44,-120.88,-29.69,24.75,-4.00,27.78,3.84
1.00,1.00,264.38,6.44,-42.94,-19.75,10.31,8.12,27.78,3.84
1.00,2.00,335.44,-11.06,15.31,-20.75,-5.50,9.00,27.78,3.84
1.00,0.00,258.56,7.62,-120.31,-27.19,22.56,-4.38,27.65,3.86
1.00,1.00,264.19,6.38,-42.50,-19.94,10.19,8.06,27.65,3.86
1.00,2.00,335.19,-11.00,15.69,-20.69,-5.75,8.12,27.65,3.86
1.00,0.00,258.06,7.75,-119.75,-27.00,22.38,-4.69,27.52,3.88
1.00,1.00,263.94,6.38,-42.06,-20.50,9.75,6.75,27.52,3.88
1.00,2.00,335.00,-10.88,16.06,-20.38,-5.88,7.56,27.52,3.88
1.00,0.00,257.56,7.81,-119.19,-24.88,19.62,-5.12,27.42,3.90
1.00,1.00,263.81,6.31,-41.62,-20.56,9.19,5.62,27.42,3.90
1.00,2.00,334.81,-10.81,16.50,-19.94,-5.69,7.50,27.42,3.90
1.00,0.00,257.19,7.88,-118.75,-22.00,17.88,-4.69,27.37,3.92
1.00,1.00,263.69,6.25,-41.12,-20.50,8.38,4.38,27.37,3.92
1.00,2.00,334.56,-10.69,17.25,-19.19,-5.00,7.00,27.37,3.92
1.00,0.00,256.88,8.00,-118.25,-20.38,15.94,-4.56,27.34,3.94
1.00,1.00,263.56,6.19,-40.69,-21.69,8.19,2.81,27.34,3.94
1.00,2.00,334.50,-10.62,17.50,-19.25,-4.38,6.50,27.34,3.94
1.00,0.00,256.62,8.00,-117.88,-17.94,13.81,-5.31,27.33,3.96
1.00,1.00,263.50,6.06,-40.19,-22.12,7.81,0.06,27.33,3.96
1.00,2.00,334.31,-10.62,17.81,-17.12,-2.19,4.88,27.33,3.96
1.00,0.00,256.38,8.06,-117.56,-15.12,14.00,-5.50,27.35,3.98
1.00,1.00,263.50,5.94,-39.69,-21.06,7.38,-1.50,27.35,3.98
1.00,2.00,334.19,-10.56,18.19,-16.00,-1.25,4.00,27.35,3.98
1.00,0.00,256.12,8.06,-117.25,-12.38,13.69,-5.75,27.41,4.00
1.00,1.00,263.50,5.81,-39.19,-20.25,7.62,-1.69,27.41,4.00
1.00,2.00,334.12,-10.56,18.56,-15.44,-0.94,3.69,27.41,4.00
1.00,0.00,255.88,8.06,-117.00,-10.06,12.69,-5.19,27.52,4.02
1.00,1.00,263.50,5.69,-38.75,-19.69,8.19,-1.50,27.52,4.02
1.00,2.00,333.94,-10.56,19.06,-15.69,-1.12,5.12,27.52,4.02
1.00,0.00,255.56,8.06,-116.75,-8.81,12.69,-4.31,27.65,4.04
1.00,1.00,263.50,5.56,-38.25,-19.56,8.00,-1.12,27.65,4.04
1.00,2.00,333.88,-10.62,19.25,-15.50,-1.94,5.81,27.65,4.04
1.00,0.00,255.25,8.12,-116.56,-8.25,13.00,-4.88,27.79,4.06
1.00,1.00,263.44,5.44,-37.81,-18.44,7.88,-0.94,27.79,4.06
1.00,2.00,333.69,-10.62,19.62,-15.19,-2.62,7.06,27.79,4.06
1.00,0.00,255.06,8.12,-116.38,-7.31,11.75,-5.06,27.92,4.08
1.00,1.00,263.44,5.31,-37.38,-16.69,7.25,-1.06,27.92,4.08
1.00,2.00,333.56,-10.62,19.94,-13.69,-2.44,7.25,27.92,4.08
1.00,0.00,254.88,8.12,-116.19,-6.88,10.50,-5.12,28.03,4.10
1.00,1.00,263.44,5.19,-37.00,-15.38,7.75,-1.00,28.03,4.10
1.00,2.00,333.38,-10.62,20.31,-12.44,-1.94,6.88,28.03,4.10
1.00,0.00,254.69,8.12,-116.06,-6.00,10.75,-4.94,28.12,4.12
1.00,1.00,263.38,5.06,-36.62,-14.25,7.44,-0.25,28.12,4.12
1.00,2.00,333.12,-10.62,20.69,-10.25,-1.00,7.19,28.12,4.12
1.00,0.00,254.56,8.12,-115.88,-5.06,10.62,-5.19,28.21,4.14
1.00,1.00,263.38,4.94,-36.25,-13.06,7.56,-0.06,28.21,4.14
1.00,2.00,333.06,-10.62,20.81,-9.62,-1.12,7.19,28.21,4.14
1.00,0.00,254.38,8.06,-115.75,-4.50,9.88,-5.06,28.28,4.16
1.00,1.00,263.31,4.81,-35.94,-12.75,7.19,0.19,28.28,4.16
1.00,2.00,332.94,-10.69,21.06,-8.31,-1.31,7.81,28.28,4.16
1.00,0.00,254.19,8.06,-115.62,-3.94,10.44,-4.81,28.36,4.18
1.00,1.00,263.31,4.69,-35.62,-11.69,7.38,0.62,28.36,4.18
1.00,2.00,332.75,-10.69,21.19,-7.88,-1.19,8.06,28.36,4.18
1.00,0.00,254.06,8.06,-115.50,-2.88,9.44,-3.81,28.45,4.20
1.00,1.00,263.25,4.56,-35.38,-11.12,7.31,1.56,28.45,4.20
1.00,2.00,332.56,-10.75,21.38,-7.25,-1.75,8.69,28.45,4.20
1.00,0.00,253.81,8.06,-115.38,-2.88,9.81,-3.19,28.54,4.22
1.00,1.00,263.12,4.50,-35.12,-10.56,7.50,2.00,28.54,4.22
1.00,2.00,332.25,-10.81,21.56,-7.31,-1.75,9.56,28.54,4.22
1.00,0.00,253.56,8.06,-115.25,-4.25,10.56,-3.56,28.58,4.24
1.00,1.00,263.06,4.38,-34.88,-9.81,7.25,2.44,28.58,4.24
1.00,2.00,332.19,-10.81,21.62,-6.56,-1.38,9.38,28.58,4.24
1.00,0.00,253.38,8.06,-115.12,-4.38,10.94,-3.94,28.62,4.26
1.00,1.00,263.00,4.31,-34.62,-8.81,7.38,3.19,28.62,4.26
1.00,2.00,331.94,-10.88,21.75,-6.31,-2.12,9.94,28.62,4.26
1.00,0.00,253.19,8.12,-115.00,-4.38,10.94,-3.19,28.66,4.28
1.00,1.00,262.88,4.19,-34.44,-7.94,7.50,2.94,28.66,4.28
1.00,2.00,331.75,-10.94,21.88,-6.19,-2.62,10.00,28.66,4.28
1.00,0.00,252.94,8.12,-114.81,-4.12,11.12,-2.19,28.70,4.30
1.00,1.00,262.75,4.12,-34.25,-7.50,7.31,3.12,28.70,4.30
1.00,2.00,331.56,-10.94,22.00,-6.06,-2.31,9.88,28.70,4.30
1.00,0.00,252.75,8.12,-114.69,-4.06,11.19,-2.19,28.72,4.32
1.00,1.00,262.69,4.00,-34.06,-7.69,6.75,3.25,28.72,4.32
1.00,2.00,331.31,-11.00,22.06,-5.12,-1.44,9.06,28.72,4.32
1.00,0.00,252.56,8.12,-114.56,-3.38,10.00,-1.62,28.75,4.34
1.00,1.00,262.56,3.94,-33.88,-7.12,6.56,3.19,28.75,4.34
1.00,2.00,331.12,-11.00,22.19,-4.81,-1.50,8.50,28.75,4.34
1.00,0.00,252.44,8.12,-114.44,-2.88,8.06,-1.31,28.78,4.36
1.00,1.00,262.50,3.88,-33.69,-6.75,6.69,2.56,28.78,4.36
1.00,2.00,331.00,-11.06,22.31,-4.50,-0.88,6.69,28.78,4.36
1.00,0.00,252.38,8.12,-114.31,-2.81,5.75,-1.50,28.80,4.38
1.00,1.00,262.44,3.75,-33.56,-6.31,5.75,1.88,28.80,4.38
1.00,2.00,330.88,-11.06,22.38,-3.69,-0.31,6.38,28.80,4.38
1.00,0.00,252.38,8.06,-114.19,-2.69,3.38,-1.19,28.81,4.40
1.00,1.00,262.38,3.69,-33.44,-5.88,5.56,2.19,28.81,4.40
1.00,2.00,330.75,-11.12,22.44,-3.31,-0.38,6.00,28.81,4.40
1.00,0.00,252.38,8.06,-114.12,-2.56,1.56,-0.69,28.81,4.42
1.00,1.00,262.31,3.62,-33.25,-5.56,5.50,2.06,28.81,4.42
1.00,2.00,330.62,-11.19,22.50,-2.62,-0.31,5.75,28.81,4.42
1.00,0.00,252.50,8.00,-114.06,-2.69,-0.50,-0.31,28.80,4.44
1.00,1.00,262.25,3.56,-33.19,-4.88,5.19,1.69,28.80,4.44
1.00,2.00,330.50,-11.19,22.56,-2.31,-0.69,5.19,28.80,4.44
1.00,0.00,252.62,8.00,-114.00,-2.75,-2.62,-0.50,28.78,4.46
1.00,1.00,262.19,3.50,-33.06,-4.56,5.19,1.88,28.78,4.46
1.00,2.00,330.44,-11.25,22.56,-1.44,-0.25,4.69,28.78,4.46
1.00,0.00,252.75,7.94,-113.94,-2.19,-4.06,0.56,28.78,4.48
1.00,1.00,262.12,3.44,-32.94,-4.75,5.12,2.00,28.78,4.48
1.00,2.00,330.31,-11.31,22.62,-2.50,-0.31,4.00,28.78,4.48
1.00,0.00,252.94,7.94,-113.88,-2.62,-3.88,0.75,28.81,4.50
1.00,1.00,262.06,3.38,-32.88,-4.88,4.62,1.81,28.81,4.50
1.00,2.00,330.25,-11.31,22.69,-3.69,-0.56,4.19,28.81,4.50
1.00,0.00,253.06,7.88,-113.88,-2.69,-3.56,0.25,28.82,4.52
1.00,1.00,262.00,3.31,-32.75,-4.75,4.38,1.06,28.82,4.52
1.00,2.00,330.12,-11.31,22.69,-3.31,-0.38,4.25,28.82,4.52
1.00,0.00,253.19,7.88,-113.81,-2.31,-2.31,0.50,28.82,4.54
1.00,1.00,261.94,3.25,-32.62,-4.31,4.50,1.31,28.82,4.54
1.00,2.00,330.06,-11.38,22.75,-2.44,0.25,3.75,28.82,4.54
1.00,0.00,253.19,7.88,-113.75,-1.75,-1.31,1.38,28.84,4.56
1.00,1.00,261.94,3.19,-32.56,-3.88,4.56,1.44,28.84,4.56
1.00,2.00,330.00,-11.38,22.81,-2.62,-0.06,3.62,28.84,4.56
1.00,0.00,253.19,7.94,-113.75,-1.69,-0.25,1.75,28.86,4.58
1.00,1.00,261.88,3.12,-32.44,-4.06,4.31,1.56,28.86,4.58
1.00,2.00,329.94,-11.44,22.88,-2.81,-0.25,3.75,28.86,4.58
1.00,0.00,253.19,7.94,-113.69,-1.50,1.81,1.62,28.89,4.60
1.00,1.00,261.81,3.06,-32.38,-4.00,3.62,1.81,28.89,4.60
1.00,2.00,329.81,-11.44,22.88,-2.94,-0.56,3.75,28.89,4.60
1.00,0.00,253.06,8.00,-113.69,-1.50,2.44,1.19,28.92,4.62
1.00,1.00,261.75,3.06,-32.25,-3.81,2.69,2.00,28.92,4.62
1.00,2.00,329.75,-11.44,22.94,-3.00,-1.31,3.56,28.92,4.62
1.00,0.00,253.00,8.00,-113.62,-1.81,3.06,1.00,28.95,4.64
1.00,1.00,261.69,3.00,-32.19,-3.25,2.25,2.06,28.95,4.64
1.00,2.00,329.69,-11.44,23.00,-3.19,-1.62,3.31,28.95,4.64
1.00,0.00,252.94,8.06,-113.56,-2.31,3.50,1.00,28.96,4.66
1.00,1.00,261.62,3.00,-32.12,-2.69,2.00,2.38,28.96,4.66
1.00,2.00,329.62,-11.44,23.06,-2.88,-2.25,3.31,28.96,4.66
1.00,0.00,252.88,8.06,-113.50,-2.31,2.38,-0.06,28.96,4.68
1.00,1.00,261.62,3.00,-32.06,-1.56,1.06,2.38,28.96,4.68
1.00,2.00,329.50,-11.44,23.12,-2.31,-2.25,3.12,28.96,4.68
1.00,0.00,252.94,8.06,-113.50,1.25,-4.56,0.00,29.02,4.70
1.00,1.00,261.56,3.00,-32.06,-1.62,1.81,2.75,29.02,4.70
1.00,2.00,329.44,-11.44,23.12,-2.00,-2.44,2.88,29.02,4.70
1.00,0.00,253.00,8.06,-113.56,-0.31,-1.44,0.69,29.06,4.72
1.00,1.00,261.50,3.00,-32.00,-1.75,1.50,2.19,29.06,4.72
1.00,2.00,329.38,-11.38,23.19,-2.25,-1.81,1.94,29.06,4.72
1.00,0.00,253.31,8.06,-113.56,-0.75,0.44,0.25,29.08,4.74
1.00,1.00,261.44,3.00,-31.94,-1.81,1.12,1.88,29.08,4.74
1.00,2.00,329.38,-11.38,23.19,-1.88,-1.19,1.62,29.08,4.74
1.00,0.00,253.31,8.06,-113.50,-1.56,0.44,0.25,29.09,4.76
1.00,1.00,261.38,3.00,-31.88,-1.62,1.19,1.94,29.09,4.76
1.00,2.00,329.31,-11.38,23.25,-1.69,-0.81,1.50,29.09,4.76
1.00,0.00,253.38,8.00,-113.44,-1.81,-1.31,0.25,29.09,4.78
1.00,1.00,261.38,3.00,-31.88,-1.31,1.75,1.94,29.09,4.78
1.00,2.00,329.25,-11.38,23.25,-2.12,-1.00,2.00,29.09,4.78
1.00,0.00,253.62,8.00,-113.44,-2.31,-1.06,0.56,29.08,4.80
1.00,1.00,261.31,3.00,-31.81,-1.06,2.00,2.12,29.08,4.80
1.00,2.00,329.25,-11.38,23.31,-1.62,-0.50,1.94,29.08,4.80
1.00,0.00,253.62,8.00,-113.38,-3.00,-0.56,0.75,29.05,4.82
1.00,1.00,261.25,3.00,-31.81,-1.38,2.00,1.81,29.05,4.82
1.00,2.00,329.19,-11.38,23.31,-1.44,-0.75,1.88,29.05,4.82
1.00,0.00,253.69,8.06,-113.31,-2.88,-0.44,0.50,29.03,4.84
1.00,1.00,261.19,3.00,-31.75,-1.50,2.19,1.12,29.03,4.84
1.00,2.00,329.12,-11.38,23.38,-1.88,-0.88,1.50,29.03,4.84
1.00,0.00,253.69,8.00,-113.25,-2.56,-0.44,0.50,29.01,4.86
1.00,1.00,261.19,2.94,-31.69,-1.56,1.69,0.62,29.01,4.86
1.00,2.00,329.12,-11.38,23.44,-1.62,-0.44,1.19,29.01,4.86
1.00,0.00,253.69,8.00,-113.19,-2.44,0.25,0.50,28.97,4.88
1.00,1.00,261.19,2.94,-31.69,-1.06,1.75,0.44,28.97,4.88
1.00,2.00,329.12,-11.38,23.44,-0.62,0.19,0.81,28.97,4.88
1.00,0.00,253.69,8.00,-113.12,-2.38,0.75,0.31,28.94,4.90
1.00,1.00,261.19,2.88,-31.62,-0.62,1.62,0.69,28.94,4.90
1.00,2.00,329.06,-11.38,23.44,-0.81,-0.06,0.75,28.94,4.90
1.00,0.00,253.69,8.06,-113.12,-2.19,1.06,0.31,28.91,4.92
1.00,1.00,261.12,2.88,-31.62,-0.81,1.62,0.50,28.91,4.92
1.00,2.00,329.06,-11.38,23.50,-0.81,-0.12,0.94,28.91,4.92
1.00,0.00,253.69,8.06,-113.06,-1.50,0.81,0.19,28.89,4.94
1.00,1.00,261.12,2.88,-31.56,-0.56,1.19,0.25,28.89,4.94
1.00,2.00,329.06,-11.44,23.50,-0.31,-0.19,0.88,28.89,4.94
1.00,0.00,253.69,8.06,-113.06,-0.94,0.12,-0.25,28.87,4.96
1.00,1.00,261.12,2.81,-31.56,-0.25,0.88,-0.06,28.87,4.96
1.00,2.00,329.06,-11.44,23.50,0.12,-0.25,0.62,28.87,4.96
1.00,0.00,253.75,8.06,-113.06,-0.12,-0.12,-0.56,28.87,4.98
1.00,1.00,261.12,2.81,-31.56,-0.06,1.38,-0.44,28.87,4.98
1.00,2.00,329.06,-11.44,23.50,0.00,0.06,0.31,28.87,4.98
1.00,0.00,253.75,8.00,-113.06,0.75,-0.75,-0.56,28.88,5.00
1.00,1.00,261.12,2.81,-31.56,-0.12,1.38,-0.19,28.88,5.00
1.00,2.00,329.06,-11.44,23.50,-0.12,-0.06,0.69,28.88,5.00
1.00,0.00,253.81,8.00,-113.06,1.00,-1.44,-0.69,28.91,5.02
1.00,1.00,261.12,2.81,-31.56,0.06,1.31,0.12,28.91,5.02
1.00,2.00,329.00,-11.44,23.50,-0.25,0.31,0.75,28.91,5.02
1.00,0.00,254.12,8.00,-113.12,1.25,-1.44,-0.81,28.93,5.04
1.00,1.00,261.12,2.75,-31.50,0.12,1.25,-0.31,28.93,5.04
1.00,2.00,329.00,-11.44,23.50,0.25,0.69,0.94,28.93,5.04
1.00,0.00,254.19,7.94,-113.12,1.06,-1.56,-0.88,28.93,5.06
1.00,1.00,261.12,2.75,-31.50,0.50,1.19,-0.06,28.93,5.06
1.00,2.00,329.00,-11.44,23.50,0.81,0.69,0.88,28.93,5.06
1.00,0.00,254.25,7.94,-113.12,0.69,-1.38,-1.19,28.93,5.08
1.00,1.00,261.06,2.75,-31.56,0.75,1.38,0.31,28.93,5.08
1.00,2.00,329.00,-11.44,23.50,0.69,0.62,1.06,28.93,5.08
1.00,0.00,254.25,7.88,-113.12,0.38,-0.81,-1.44,28.94,5.10
1.00,1.00,261.06,2.75,-31.56,0.62,1.56,0.69,28.94,5.10
1.00,2.00,328.94,-11.50,23.50,-0.06,0.56,1.44,28.94,5.10
1.00,0.00,254.38,7.88,-113.12,0.62,-0.69,-1.69,28.98,5.12
1.00,1.00,261.06,2.69,-31.56,0.50,1.38,0.12,28.98,5.12
1.00,2.00,328.94,-11.50,23.50,-1.12,0.12,1.69,28.98,5.12
1.00,0.00,254.38,7.81,-113.19,1.06,-1.00,-1.50,29.02,5.14
1.00,1.00,261.06,2.69,-31.56,0.81,1.25,-0.44,29.02,5.14
1.00,2.00,328.88,-11.50,23.50,-0.94,0.25,1.50,29.02,5.14
1.00,0.00,254.69,7.81,-113.19,1.62,-1.12,-1.75,29.05,5.16
1.00,1.00,261.00,2.69,-31.56,1.12,1.00,-0.38,29.05,5.16
1.00,2.00,328.88,-11.50,23.56,0.00,1.19,0.81,29.05,5.16
1.00,0.00,254.75,7.75,-113.19,1.56,-0.94,-1.69,29.09,5.18
1.00,1.00,261.00,2.69,-31.56,1.44,0.81,-0.44,29.09,5.18
1.00,2.00,328.88,-11.56,23.56,-0.19,1.31,0.50,29.09,5.18
1.00,0.00,254.88,7.69,-113.25,2.00,-0.94,-1.50,29.13,5.20
1.00,1.00,261.06,2.69,-31.56,1.69,0.31,-0.62,29.13,5.20
1.00,2.00,328.88,-11.56,23.56,-0.31,0.81,0.69,29.13,5.20
1.00,0.00,254.94,7.69,-113.25,2.56,-0.75,-1.12,29.19,5.22
1.00,1.00,261.06,2.69,-31.56,2.06,-0.06,-1.12,29.19,5.22
1.00,2.00,328.88,-11.56,23.62,-0.31,0.44,0.44,29.19,5.22
1.00,0.00,255.00,7.62,-113.31,4.25,-1.38,-0.69,29.27,5.24
1.00,1.00,261.06,2.62,-31.56,2.31,-0.69,-1.50,29.27,5.24
1.00,2.00,328.88,-11.56,23.62,0.12,0.69,-0.31,29.27,5.24
1.00,0.00,255.19,7.62,-113.44,5.25,-1.75,0.00,29.36,5.26
1.00,1.00,261.12,2.62,-31.56,3.12,-0.75,-1.69,29.36,5.26
1.00,2.00,328.88,-11.56,23.69,0.94,1.19,-0.81,29.36,5.26
1.00,0.00,255.19,7.62,-113.50,5.62,-1.44,0.06,29.43,5.28
1.00,1.00,261.12,2.62,-31.62,3.88,-1.25,-1.62,29.43,5.28
1.00,2.00,328.94,-11.56,23.69,1.88,1.19,-1.06,29.43,5.28
1.00,0.00,255.25,7.62,-113.62,5.69,-1.81,0.00,29.50,5.30
1.00,1.00,261.19,2.62,-31.62,5.06,-1.81,-2.44,29.50,5.30
1.00,2.00,329.00,-11.56,23.69,2.56,1.31,-1.25,29.50,5.30
1.00,0.00,255.31,7.56,-113.69,5.31,-2.00,-0.31,29.53,5.32
1.00,1.00,261.25,2.62,-31.69,5.38,-2.19,-2.62,29.53,5.32
1.00,2.00,329.00,-11.56,23.69,3.44,1.06,-1.81,29.53,5.32
1.00,0.00,255.31,7.56,-113.81,4.81,-2.00,-0.62,29.55,5.34
1.00,1.00,261.31,2.69,-31.75,5.94,-2.38,-2.81,29.55,5.34
1.00,2.00,329.06,-11.56,23.69,4.12,1.00,-2.00,29.55,5.34
1.00,0.00,255.38,7.56,-113.88,3.88,-0.88,-0.75,29.52,5.36
1.00,1.00,261.38,2.69,-31.88,6.75,-2.69,-2.81,29.52,5.36
1.00,2.00,329.12,-11.56,23.62,5.00,0.88,-2.06,29.52,5.36
