Iteration,IMUNo,OrientationX (deg),OrientationY,OrientationZ,GyroX (20rad/sec),GyroY,GyroZ,Elbow_Pos (rad),Time (sec)
21.00,0.00,279.00,-2.94,-100.50,0.19,-0.19,0.00,-58.70,12.30
21.00,1.00,260.88,0.12,-43.12,0.06,0.19,-0.12,-58.70,12.30
21.00,2.00,357.69,-20.38,11.94,0.19,0.31,-0.12,-58.70,12.30
21.00,0.00,279.94,-3.44,-100.44,0.19,0.12,-0.12,0.01,1.02
21.00,1.00,261.12,0.00,-42.62,0.12,-0.06,-0.06,0.01,1.02
21.00,2.00,357.69,-20.38,12.19,-0.12,-0.06,0.25,0.01,1.02
21.00,0.00,279.94,-3.44,-100.44,0.00,0.12,0.00,0.01,1.04
21.00,1.00,261.12,0.00,-42.62,0.12,0.12,0.12,0.01,1.04
21.00,2.00,357.69,-20.38,12.19,-0.19,0.00,0.38,0.01,1.04
21.00,0.00,279.94,-3.44,-100.44,-0.06,0.44,0.25,0.01,1.06
21.00,1.00,261.12,0.00,-42.62,0.12,0.06,-0.12,0.01,1.06
21.00,2.00,357.69,-20.38,12.19,-0.12,0.06,0.50,0.01,1.06
21.00,0.00,279.94,-3.44,-100.44,0.12,0.50,0.19,0.02,1.08
21.00,1.00,261.12,0.00,-42.62,0.38,-0.06,0.00,0.02,1.08
21.00,2.00,357.69,-20.38,12.19,-0.19,-0.12,0.31,0.02,1.08
21.00,0.00,279.94,-3.44,-100.44,0.31,0.25,0.19,0.02,1.10
21.00,1.00,261.12,0.00,-42.62,-0.19,-0.12,-0.44,0.02,1.10
21.00,2.00,357.69,-20.38,12.19,0.44,0.06,0.00,0.02,1.10
21.00,0.00,279.94,-3.44,-100.44,0.25,0.12,-0.06,0.02,1.12
21.00,1.00,261.12,0.00,-42.62,-0.06,-0.38,-0.31,0.02,1.12
21.00,2.00,357.69,-20.38,12.19,0.25,0.06,-0.06,0.02,1.12
21.00,0.00,279.94,-3.44,-100.44,0.12,-0.06,-0.25,0.03,1.14
21.00,1.00,261.12,0.00,-42.62,-0.38,-0.19,-0.31,0.03,1.14
21.00,2.00,357.69,-20.38,12.19,-0.19,0.38,0.12,0.03,1.14
21.00,0.00,279.94,-3.44,-100.44,0.19,-0.06,-0.50,0.05,1.16
21.00,1.00,261.12,0.00,-42.62,-0.25,-0.38,-0.81,0.05,1.16
21.00,2.00,357.69,-20.38,12.19,-0.62,-0.25,-0.25,0.05,1.16
21.00,0.00,279.94,-3.44,-100.44,0.25,-0.56,-0.38,0.05,1.18
21.00,1.00,261.12,0.00,-42.62,-0.38,-0.50,-0.94,0.05,1.18
21.00,2.00,357.69,-20.38,12.19,0.12,0.75,-1.06,0.05,1.18
21.00,0.00,279.94,-3.44,-100.44,0.44,-0.75,-0.56,0.06,1.20
21.00,1.00,261.12,0.00,-42.62,-0.38,-0.06,-0.56,0.06,1.20
21.00,2.00,357.75,-20.44,12.19,0.31,1.31,-0.94,0.06,1.20
21.00,0.00,280.00,-3.44,-100.44,0.38,-0.88,-0.50,0.08,1.22
21.00,1.00,261.12,0.00,-42.62,0.00,0.00,-0.50,0.08,1.22
21.00,2.00,357.75,-20.44,12.19,-0.50,0.56,-0.38,0.08,1.22
21.00,0.00,280.00,-3.50,-100.44,-0.44,-0.81,-0.75,0.07,1.24
21.00,1.00,261.12,0.00,-42.62,-0.06,-0.12,-0.38,0.07,1.24
21.00,2.00,357.75,-20.44,12.19,-0.25,0.44,0.00,0.07,1.24
21.00,0.00,280.06,-3.50,-100.44,-0.12,-0.75,-0.69,0.07,1.26
21.00,1.00,261.12,0.00,-42.62,0.00,0.12,-0.38,0.07,1.26
21.00,2.00,357.75,-20.44,12.19,-0.06,0.06,0.12,0.07,1.26
21.00,0.00,280.06,-3.50,-100.44,0.31,-0.19,-0.50,0.08,1.28
21.00,1.00,261.12,0.00,-42.62,0.06,0.00,-0.50,0.08,1.28
21.00,2.00,357.75,-20.44,12.19,0.12,0.44,0.25,0.08,1.28
21.00,0.00,280.06,-3.50,-100.44,0.38,0.31,-0.06,0.09,1.30
21.00,1.00,261.12,0.00,-42.62,0.00,0.38,-0.25,0.09,1.30
21.00,2.00,357.75,-20.44,12.19,0.06,0.06,0.12,0.09,1.30
21.00,0.00,280.06,-3.50,-100.44,0.12,0.62,0.25,0.09,1.32
21.00,1.00,261.12,0.00,-42.62,-0.25,0.00,-0.06,0.09,1.32
21.00,2.00,357.75,-20.44,12.19,-0.19,0.12,0.25,0.09,1.32
21.00,0.00,280.00,-3.50,-100.44,0.00,0.75,0.19,0.10,1.34
21.00,1.00,261.12,0.00,-42.62,-0.38,-0.06,-0.12,0.10,1.34
21.00,2.00,357.75,-20.44,12.19,-0.44,-0.31,0.31,0.10,1.34
21.00,0.00,280.00,-3.50,-100.44,0.00,0.31,0.25,0.11,1.36
21.00,1.00,261.12,0.00,-42.62,-0.25,-0.19,0.12,0.11,1.36
21.00,2.00,357.75,-20.44,12.19,-0.31,-0.06,0.19,0.11,1.36
21.00,0.00,280.00,-3.50,-100.44,0.06,0.06,0.12,0.12,1.38
21.00,1.00,261.12,0.00,-42.62,-0.19,-0.06,0.12,0.12,1.38
21.00,2.00,357.75,-20.44,12.19,-0.06,0.31,0.12,0.12,1.38
21.00,0.00,280.00,-3.50,-100.44,-0.19,-0.44,-0.19,0.11,1.40
21.00,1.00,261.12,0.00,-42.62,-0.31,-0.12,0.00,0.11,1.40
21.00,2.00,357.75,-20.44,12.19,0.19,0.19,0.00,0.11,1.40
21.00,0.00,280.00,-3.50,-100.44,0.00,-0.25,0.00,0.10,1.42
21.00,1.00,261.12,0.00,-42.62,0.06,-0.25,0.31,0.10,1.42
21.00,2.00,357.75,-20.44,12.19,0.06,-0.06,0.38,0.10,1.42
21.00,0.00,280.00,-3.50,-100.44,0.19,0.00,0.00,0.10,1.44
21.00,1.00,261.12,0.00,-42.62,0.19,-0.25,-0.31,0.10,1.44
21.00,2.00,357.75,-20.44,12.19,0.50,0.12,-0.06,0.10,1.44
21.00,0.00,280.00,-3.50,-100.44,0.31,0.06,0.00,0.10,1.46
21.00,1.00,261.12,0.00,-42.62,0.06,0.12,-0.25,0.10,1.46
21.00,2.00,357.75,-20.44,12.19,0.31,0.19,-0.12,0.10,1.46
21.00,0.00,280.00,-3.50,-100.44,0.25,0.06,0.19,0.10,1.48
21.00,1.00,261.12,0.00,-42.62,0.00,-0.12,-0.12,0.10,1.48
21.00,2.00,357.75,-20.44,12.19,0.19,0.19,-0.25,0.10,1.48
21.00,0.00,280.00,-3.50,-100.44,0.00,0.06,0.06,0.10,1.50
21.00,1.00,261.12,0.00,-42.62,0.00,-0.38,-0.31,0.10,1.50
21.00,2.00,357.75,-20.44,12.19,0.12,0.00,0.00,0.10,1.50
21.00,0.00,280.00,-3.50,-100.44,0.31,-0.38,0.00,0.10,1.52
21.00,1.00,261.12,0.00,-42.62,0.19,-0.50,-0.31,0.10,1.52
21.00,2.00,357.75,-20.44,12.19,0.00,0.00,-0.12,0.10,1.52
21.00,0.00,280.00,-3.50,-100.44,0.06,-0.25,-0.25,0.10,1.54
21.00,1.00,261.12,0.00,-42.62,0.06,-0.44,-0.31,0.10,1.54
21.00,2.00,357.75,-20.44,12.19,0.31,0.19,-0.31,0.10,1.54
21.00,0.00,280.00,-3.50,-100.44,0.31,-0.19,-0.38,0.10,1.56
21.00,1.00,261.12,0.00,-42.62,0.19,-0.31,-0.44,0.10,1.56
21.00,2.00,357.75,-20.44,12.19,0.38,0.19,-0.25,0.10,1.56
21.00,0.00,280.00,-3.50,-100.44,0.06,-0.31,-0.25,0.09,1.58
21.00,1.00,261.12,0.00,-42.62,0.25,-0.19,-0.38,0.09,1.58
21.00,2.00,357.75,-20.44,12.19,0.25,0.31,-0.12,0.09,1.58
21.00,0.00,280.00,-3.50,-100.44,0.19,-0.56,-0.19,0.09,1.60
21.00,1.00,261.12,0.00,-42.62,0.00,-0.12,-0.38,0.09,1.60
21.00,2.00,357.75,-20.44,12.19,0.19,0.25,0.06,0.09,1.60
21.00,0.00,280.00,-3.50,-100.44,0.06,-0.19,-0.06,0.09,1.62
21.00,1.00,261.12,0.00,-42.62,0.12,-0.12,-0.19,0.09,1.62
21.00,2.00,357.75,-20.44,12.19,0.06,-0.12,0.19,0.09,1.62
21.00,0.00,280.00,-3.50,-100.44,-0.06,-0.38,-0.06,0.09,1.64
21.00,1.00,261.12,0.00,-42.62,0.00,-0.19,-0.12,0.09,1.64
21.00,2.00,357.75,-20.44,12.19,0.12,-0.12,0.12,0.09,1.64
21.00,0.00,280.00,-3.50,-100.44,0.06,-0.25,-0.12,0.09,1.66
21.00,1.00,261.12,0.00,-42.62,0.06,-0.06,0.00,0.09,1.66
21.00,2.00,357.75,-20.44,12.19,-0.06,0.00,0.38,0.09,1.66
21.00,0.00,280.00,-3.50,-100.44,0.00,-0.38,-0.19,0.09,1.68
21.00,1.00,261.12,0.00,-42.62,-0.06,-0.25,-0.06,0.09,1.68
21.00,2.00,357.75,-20.44,12.19,0.12,-0.12,0.31,0.09,1.68
21.00,0.00,280.00,-3.50,-100.44,0.06,-0.38,0.00,0.09,1.70
21.00,1.00,261.12,0.00,-42.62,-0.12,-0.31,0.31,0.09,1.70
21.00,2.00,357.75,-20.44,12.19,0.06,-0.06,0.12,0.09,1.70
21.00,0.00,280.00,-3.50,-100.44,-0.19,-0.12,-0.19,0.08,1.72
21.00,1.00,261.12,0.00,-42.62,0.12,-0.38,0.25,0.08,1.72
21.00,2.00,357.75,-20.44,12.19,0.12,-0.19,0.25,0.08,1.72
21.00,0.00,280.00,-3.50,-100.44,-0.12,-0.31,0.06,0.06,1.74
21.00,1.00,261.12,0.00,-42.62,0.31,-0.44,0.38,0.06,1.74
21.00,2.00,357.75,-20.44,12.19,0.38,-0.19,0.19,0.06,1.74
21.00,0.00,280.00,-3.50,-100.44,0.06,-0.06,0.19,0.06,1.76
21.00,1.00,261.12,0.00,-42.62,0.50,-0.31,0.31,0.06,1.76
21.00,2.00,357.75,-20.44,12.19,0.25,-0.19,0.44,0.06,1.76
21.00,0.00,280.00,-3.50,-100.44,-0.19,0.44,0.38,0.04,1.78
21.00,1.00,261.12,0.00,-42.62,0.38,-0.31,0.38,0.04,1.78
21.00,2.00,357.75,-20.44,12.19,0.50,-0.38,0.44,0.04,1.78
21.00,0.00,280.00,-3.50,-100.44,-0.31,0.25,0.31,0.02,1.80
21.00,1.00,261.12,0.00,-42.62,0.62,-0.31,0.62,0.02,1.80
21.00,2.00,357.75,-20.44,12.19,0.31,-0.25,0.69,0.02,1.80
21.00,0.00,280.00,-3.50,-100.44,-0.12,0.62,0.50,0.01,1.82
21.00,1.00,261.12,0.00,-42.62,0.88,-0.88,0.56,0.01,1.82
21.00,2.00,357.75,-20.44,12.19,0.50,0.44,0.69,0.01,1.82
21.00,0.00,280.00,-3.50,-100.44,-0.12,0.06,1.25,-0.02,1.84
21.00,1.00,261.12,0.00,-42.69,1.81,-0.88,0.44,-0.02,1.84
21.00,2.00,357.75,-20.44,12.19,0.81,1.12,0.50,-0.02,1.84
21.00,0.00,279.94,-3.44,-100.44,-0.06,-0.25,2.62,0.00,1.86
21.00,1.00,261.12,0.06,-42.69,2.88,-1.88,0.81,0.00,1.86
21.00,2.00,357.69,-20.50,12.25,-0.69,1.56,0.88,0.00,1.86
21.00,0.00,279.81,-3.31,-100.44,0.69,0.44,4.50,0.06,1.88
21.00,1.00,261.19,0.06,-42.75,5.06,-3.38,0.56,0.06,1.88
21.00,2.00,357.69,-20.50,12.31,-1.44,2.50,0.75,0.06,1.88
21.00,0.00,279.69,-3.19,-100.50,2.12,0.44,6.75,0.10,1.90
21.00,1.00,261.19,0.06,-42.88,5.25,-3.44,-0.06,0.10,1.90
21.00,2.00,357.69,-20.56,12.38,0.25,3.19,-0.56,0.10,1.90
21.00,0.00,279.50,-3.00,-100.62,4.75,-1.00,8.69,0.14,1.92
21.00,1.00,261.25,0.12,-42.94,6.12,-3.25,-0.50,0.14,1.92
21.00,2.00,357.75,-20.62,12.38,3.31,2.00,-1.94,0.14,1.92
21.00,0.00,279.44,-2.94,-100.69,8.19,-3.00,10.50,0.27,1.94
21.00,1.00,261.25,0.12,-43.06,6.50,-3.62,-0.19,0.27,1.94
21.00,2.00,357.81,-20.69,12.38,3.38,0.50,-1.94,0.27,1.94
21.00,0.00,279.31,-2.75,-100.81,12.94,-5.94,12.56,0.55,1.96
21.00,1.00,261.38,0.19,-43.19,9.00,-5.00,-1.50,0.55,1.96
21.00,2.00,357.88,-20.62,12.38,2.31,-0.88,-0.81,0.55,1.96
21.00,0.00,279.25,-2.50,-101.12,18.00,-11.69,13.44,0.90,1.98
21.00,1.00,261.44,0.25,-43.38,9.31,-4.44,-1.81,0.90,1.98
21.00,2.00,357.94,-20.62,12.38,4.56,1.38,-3.62,0.90,1.98
21.00,0.00,279.31,-2.31,-101.50,23.50,-15.06,11.81,1.33,2.00
21.00,1.00,261.50,0.25,-43.50,7.75,-3.50,-2.62,1.33,2.00
21.00,2.00,358.06,-20.62,12.31,7.06,2.00,-5.88,1.33,2.00
21.00,0.00,279.50,-2.19,-101.94,29.69,-18.25,10.69,1.92,2.02
21.00,1.00,261.56,0.25,-43.62,7.94,-4.19,-2.94,1.92,2.02
21.00,2.00,358.25,-20.62,12.25,7.19,-0.81,-6.12,1.92,2.02
21.00,0.00,279.81,-2.06,-102.56,37.31,-24.25,10.50,2.69,2.04
21.00,1.00,261.69,0.31,-43.81,8.12,-7.31,-3.50,2.69,2.04
21.00,2.00,358.38,-20.56,12.19,7.94,-2.00,-5.75,2.69,2.04
21.00,0.00,280.31,-2.00,-103.31,44.88,-30.25,10.88,3.64,2.06
21.00,1.00,261.81,0.38,-43.94,8.19,-8.00,-3.19,3.64,2.06
21.00,2.00,358.56,-20.44,12.12,8.56,-2.62,-6.12,3.64,2.06
21.00,0.00,280.88,-1.94,-104.19,50.19,-34.00,10.19,4.74,2.08
21.00,1.00,262.00,0.44,-44.06,7.75,-10.75,-3.44,4.74,2.08
21.00,2.00,358.69,-20.38,12.06,8.50,-4.19,-6.62,4.74,2.08
21.00,0.00,281.88,-1.88,-105.12,53.00,-35.81,9.81,5.84,2.10
21.00,1.00,262.12,0.56,-44.19,8.19,-11.50,-2.69,5.84,2.10
21.00,2.00,358.88,-20.25,11.94,11.06,-4.69,-7.38,5.84,2.10
21.00,0.00,282.75,-1.94,-106.25,61.19,-38.56,11.31,7.10,2.12
21.00,1.00,262.25,0.69,-44.31,8.50,-10.88,-2.06,7.10,2.12
21.00,2.00,359.06,-20.12,11.75,13.12,-5.00,-7.62,7.10,2.12
21.00,0.00,283.56,-1.88,-107.38,62.69,-37.38,12.44,8.42,2.14
21.00,1.00,262.38,0.81,-44.50,9.75,-10.62,-1.00,8.42,2.14
21.00,2.00,359.19,-19.94,11.56,12.25,-7.44,-5.56,8.42,2.14
21.00,0.00,284.31,-1.88,-108.62,63.12,-32.56,13.38,9.69,2.16
21.00,1.00,262.44,1.00,-44.69,10.50,-10.25,0.06,9.69,2.16
21.00,2.00,359.31,-19.81,11.31,14.81,-7.25,-3.94,9.69,2.16
21.00,0.00,285.00,-1.81,-109.81,60.56,-26.69,14.88,10.96,2.18
21.00,1.00,262.50,1.12,-44.88,10.75,-8.88,1.31,10.96,2.18
21.00,2.00,359.38,-19.62,11.06,12.19,-6.38,-1.50,10.96,2.18
21.00,0.00,285.44,-1.69,-110.94,59.31,-22.25,15.75,12.22,2.20
21.00,1.00,262.50,1.25,-45.06,10.00,-6.81,1.94,12.22,2.20
21.00,2.00,359.44,-19.50,10.81,11.19,-7.44,0.19,12.22,2.20
21.00,0.00,285.62,-1.56,-112.06,57.56,-13.88,17.31,13.43,2.22
21.00,1.00,262.50,1.38,-45.31,12.06,-6.38,2.62,13.43,2.22
21.00,2.00,359.44,-19.38,10.56,11.56,-10.12,0.81,13.43,2.22
21.00,0.00,285.75,-1.31,-113.19,58.38,-13.31,17.88,14.60,2.24
21.00,1.00,262.50,1.50,-45.56,12.88,-6.75,2.69,14.60,2.24
21.00,2.00,359.44,-19.19,10.31,13.56,-9.19,1.44,14.60,2.24
21.00,0.00,285.69,-1.06,-114.38,63.62,-14.69,22.38,15.99,2.26
21.00,1.00,262.50,1.62,-45.75,12.00,-7.44,1.75,15.99,2.26
21.00,2.00,359.44,-19.00,10.06,10.94,-10.44,1.06,15.99,2.26
21.00,0.00,285.62,-0.75,-115.56,61.81,-11.81,23.88,17.33,2.28
21.00,1.00,262.56,1.75,-46.00,11.94,-7.75,0.31,17.33,2.28
21.00,2.00,359.44,-18.75,9.88,10.56,-11.31,-0.50,17.33,2.28
21.00,0.00,285.56,-0.44,-116.69,59.00,-11.62,20.25,18.57,2.30
21.00,1.00,262.62,1.88,-46.25,12.88,-9.25,-1.06,18.57,2.30
21.00,2.00,359.50,-18.50,9.69,11.94,-12.81,-2.31,18.57,2.30
21.00,0.00,285.62,-0.25,-117.88,59.62,-10.81,17.00,19.73,2.32
21.00,1.00,262.75,2.00,-46.50,14.19,-11.31,-2.69,19.73,2.32
21.00,2.00,359.62,-18.25,9.50,15.19,-10.94,-4.56,19.73,2.32
21.00,0.00,285.62,-0.06,-119.06,62.44,-9.81,17.38,20.92,2.34
21.00,1.00,262.94,2.06,-46.81,13.38,-12.25,-4.50,20.92,2.34
21.00,2.00,359.81,-18.00,9.25,17.19,-9.62,-7.12,20.92,2.34
21.00,0.00,285.56,0.12,-120.31,64.75,-10.94,19.31,22.15,2.36
21.00,1.00,263.19,2.19,-47.06,13.25,-13.56,-5.38,22.15,2.36
21.00,2.00,0.00,-17.81,8.94,17.75,-9.94,-8.69,22.15,2.36
21.00,0.00,285.56,0.31,-121.56,63.94,-11.44,20.62,23.37,2.38
21.00,1.00,263.38,2.25,-47.31,14.44,-14.31,-6.00,23.37,2.38
21.00,2.00,0.19,-17.56,8.69,17.38,-10.31,-9.31,23.37,2.38
21.00,0.00,285.56,0.56,-122.81,63.75,-11.50,20.88,24.63,2.40
21.00,1.00,263.62,2.38,-47.62,14.56,-15.06,-6.56,24.63,2.40
21.00,2.00,0.44,-17.38,8.44,15.75,-10.06,-11.62,24.63,2.40
21.00,0.00,285.56,0.75,-124.06,65.56,-14.25,22.31,25.94,2.42
21.00,1.00,263.88,2.50,-47.94,13.81,-15.69,-7.31,25.94,2.42
21.00,2.00,0.75,-17.12,8.19,15.75,-8.94,-12.56,25.94,2.42
21.00,0.00,285.75,0.94,-125.38,67.50,-19.81,23.94,27.26,2.44
21.00,1.00,264.19,2.56,-48.19,13.19,-16.12,-8.81,27.26,2.44
21.00,2.00,1.00,-16.94,7.94,17.31,-8.88,-13.31,27.26,2.44
21.00,0.00,286.06,1.06,-126.69,68.19,-23.00,25.12,28.53,2.46
21.00,1.00,264.50,2.62,-48.44,12.38,-16.00,-9.31,28.53,2.46
21.00,2.00,1.38,-16.75,7.62,19.50,-7.75,-15.00,28.53,2.46
21.00,0.00,286.50,1.12,-128.06,70.06,-27.81,25.94,29.90,2.48
21.00,1.00,264.81,2.75,-48.69,10.56,-14.75,-8.94,29.90,2.48
21.00,2.00,1.69,-16.56,7.38,17.94,-8.25,-14.31,29.90,2.48
21.00,0.00,287.19,1.19,-129.44,70.75,-31.44,26.69,31.34,2.50
21.00,1.00,264.94,2.75,-48.81,10.88,-13.81,-8.44,31.34,2.50
21.00,2.00,1.94,-16.31,7.12,16.00,-8.81,-12.31,31.34,2.50
21.00,0.00,287.94,1.19,-130.81,70.88,-34.50,26.81,32.81,2.52
21.00,1.00,265.31,2.88,-49.12,9.94,-13.00,-7.06,32.81,2.52
21.00,2.00,2.19,-16.12,6.88,14.62,-9.88,-10.81,32.81,2.52
21.00,0.00,289.00,1.06,-132.19,71.81,-38.19,24.75,34.34,2.54
21.00,1.00,265.56,2.94,-49.38,9.44,-11.62,-7.06,34.34,2.54
21.00,2.00,2.44,-15.94,6.62,13.75,-9.06,-9.38,34.34,2.54
21.00,0.00,290.25,0.88,-133.69,74.94,-40.19,24.38,35.93,2.56
21.00,1.00,265.75,3.00,-49.56,9.81,-10.75,-5.81,35.93,2.56
21.00,2.00,2.62,-15.69,6.38,14.12,-9.88,-8.38,35.93,2.56
21.00,0.00,113.50,0.62,-135.19,75.56,-45.00,23.94,37.59,2.58
21.00,1.00,265.94,3.06,-49.75,8.62,-9.38,-4.69,37.59,2.58
21.00,2.00,2.81,-15.50,6.12,12.25,-8.06,-7.06,37.59,2.58
21.00,0.00,114.31,0.25,-136.62,76.56,-47.44,22.69,39.27,2.60
21.00,1.00,266.00,3.12,-49.88,8.69,-8.81,-4.69,39.27,2.60
21.00,2.00,2.88,-15.31,5.88,12.69,-7.00,-4.38,39.27,2.60
21.00,0.00,115.12,-0.12,-138.12,78.06,-51.19,20.56,40.98,2.62
21.00,1.00,266.25,3.19,-50.12,8.56,-7.44,-3.94,40.98,2.62
21.00,2.00,3.00,-15.19,5.62,12.94,-7.31,-2.88,40.98,2.62
21.00,0.00,115.88,-0.69,-139.69,79.25,-55.19,18.75,42.74,2.64
21.00,1.00,266.31,3.19,-50.19,8.94,-6.19,-2.19,42.74,2.64
21.00,2.00,3.06,-15.06,5.38,12.06,-7.12,-0.62,42.74,2.64
21.00,0.00,116.62,-1.31,-141.19,77.31,-56.44,15.62,44.46,2.66
21.00,1.00,266.38,3.31,-50.50,9.38,-4.94,-1.44,44.46,2.66
21.00,2.00,3.06,-14.94,5.12,11.69,-6.31,1.00,44.46,2.66
21.00,0.00,117.25,-2.00,-142.62,75.44,-57.06,12.31,46.11,2.68
21.00,1.00,266.44,3.31,-50.69,9.44,-3.69,-0.81,46.11,2.68
21.00,2.00,3.06,-14.81,4.81,12.38,-5.88,2.31,46.11,2.68
21.00,0.00,117.88,-2.81,-144.00,73.00,-57.88,9.25,47.70,2.70
21.00,1.00,266.44,3.38,-50.75,9.00,-3.56,-0.44,47.70,2.70
21.00,2.00,3.00,-14.69,4.56,12.38,-7.56,2.62,47.70,2.70
21.00,0.00,118.44,-3.62,-145.38,72.31,-56.56,7.81,49.29,2.72
21.00,1.00,266.50,3.44,-51.06,9.12,-3.62,0.00,49.29,2.72
21.00,2.00,2.94,-14.50,4.31,11.75,-7.94,3.88,49.29,2.72
21.00,0.00,118.94,-4.38,-146.69,69.19,-52.75,5.94,50.80,2.74
21.00,1.00,266.50,3.44,-51.12,9.44,-2.88,0.19,50.80,2.74
21.00,2.00,2.88,-14.38,4.06,11.94,-6.62,4.06,50.80,2.74
21.00,0.00,119.19,-5.19,-147.88,64.50,-49.12,3.69,52.15,2.76
21.00,1.00,266.50,3.50,-51.44,8.81,-2.75,-0.44,52.15,2.76
21.00,2.00,2.88,-14.31,3.81,12.69,-5.00,3.50,52.15,2.76
21.00,0.00,119.56,-5.94,-149.06,60.81,-45.25,2.38,53.42,2.78
21.00,1.00,266.56,3.50,-51.62,8.00,-3.19,-0.81,53.42,2.78
21.00,2.00,2.81,-14.19,3.50,12.56,-5.12,2.94,53.42,2.78
21.00,0.00,119.62,-6.62,-150.12,55.75,-40.94,1.38,54.58,2.80
21.00,1.00,266.56,3.56,-51.69,8.12,-3.38,-0.88,54.58,2.80
21.00,2.00,2.81,-14.06,3.25,11.62,-5.44,2.12,54.58,2.80
21.00,0.00,119.88,-7.25,-151.06,50.38,-37.44,-0.81,55.62,2.82
21.00,1.00,266.62,3.56,-51.94,7.81,-3.44,-1.50,55.62,2.82
21.00,2.00,2.81,-14.00,3.06,10.62,-5.44,1.62,55.62,2.82
21.00,0.00,120.06,-7.88,-151.94,46.69,-34.69,-0.62,56.59,2.84
21.00,1.00,266.69,3.56,-52.00,6.88,-3.88,-1.69,56.59,2.84
21.00,2.00,2.81,-13.88,2.88,9.81,-4.50,0.31,56.59,2.84
21.00,0.00,120.06,-8.38,-152.69,41.25,-31.12,-0.12,57.39,2.86
21.00,1.00,266.75,3.56,-52.12,7.12,-4.00,-2.75,57.39,2.86
21.00,2.00,2.81,-13.81,2.62,10.62,-4.38,-1.06,57.39,2.86
21.00,0.00,120.25,-8.94,-153.44,37.44,-30.06,-0.94,58.07,2.88
21.00,1.00,266.94,3.56,-52.38,7.75,-5.12,-3.19,58.07,2.88
21.00,2.00,2.94,-13.75,2.44,11.56,-3.88,-2.69,58.07,2.88
21.00,0.00,120.38,-9.44,-154.06,34.06,-28.88,-0.81,58.68,2.90
21.00,1.00,266.94,3.62,-52.44,7.38,-5.56,-3.06,58.68,2.90
21.00,2.00,3.00,-13.62,2.25,10.81,-4.25,-3.69,58.68,2.90
21.00,0.00,120.56,-9.94,-154.62,29.50,-27.12,-1.44,59.17,2.92
21.00,1.00,267.06,3.62,-52.62,8.00,-7.75,-4.31,59.17,2.92
21.00,2.00,3.12,-13.56,2.06,11.00,-3.56,-4.56,59.17,2.92
21.00,0.00,120.69,-10.38,-155.06,24.38,-26.38,-1.44,59.49,2.94
21.00,1.00,267.25,3.62,-52.81,7.88,-7.75,-4.75,59.49,2.94
21.00,2.00,3.25,-13.50,1.88,12.19,-3.81,-6.00,59.49,2.94
21.00,0.00,120.81,-10.88,-155.44,21.25,-25.62,-1.06,59.72,2.96
21.00,1.00,267.44,3.62,-52.94,7.62,-8.00,-5.31,59.72,2.96
21.00,2.00,3.44,-13.44,1.62,12.12,-3.19,-8.06,59.72,2.96
21.00,0.00,120.88,-11.31,-155.81,18.12,-24.12,-1.44,59.92,2.98
21.00,1.00,267.62,3.62,-53.12,7.69,-10.00,-6.25,59.92,2.98
21.00,2.00,3.62,-13.38,1.50,10.69,-1.12,-8.56,59.92,2.98
21.00,0.00,120.88,-11.69,-156.06,15.00,-21.94,-1.69,60.03,3.00
21.00,1.00,267.81,3.69,-53.31,8.06,-9.88,-6.19,60.03,3.00
21.00,2.00,3.81,-13.38,1.31,10.69,1.00,-9.00,60.03,3.00
21.00,0.00,120.94,-12.06,-156.25,10.94,-18.81,-1.50,60.02,3.02
21.00,1.00,268.06,3.69,-53.44,6.81,-9.75,-7.50,60.02,3.02
21.00,2.00,4.00,-13.38,1.12,11.44,0.75,-10.06,60.02,3.02
21.00,0.00,121.00,-12.38,-156.44,10.12,-16.31,0.44,60.00,3.04
21.00,1.00,268.31,3.69,-53.62,6.75,-10.00,-7.56,60.00,3.04
21.00,2.00,4.25,-13.44,1.00,11.00,1.06,-10.12,60.00,3.04
21.00,0.00,121.25,-12.56,-156.62,9.56,-11.44,2.88,60.00,3.06
21.00,1.00,268.50,3.69,-53.75,7.19,-8.69,-5.94,60.00,3.06
21.00,2.00,4.44,-13.44,0.81,9.56,1.56,-9.19,60.00,3.06
21.00,0.00,121.31,-12.69,-156.75,6.19,-7.75,1.69,59.93,3.08
21.00,1.00,268.69,3.69,-53.94,6.69,-8.44,-5.31,59.93,3.08
21.00,2.00,4.62,-13.44,0.69,8.69,0.62,-8.31,59.93,3.08
21.00,0.00,121.19,-12.81,-156.81,4.44,-7.81,1.12,59.80,3.10
21.00,1.00,268.81,3.69,-54.06,6.44,-7.81,-5.00,59.80,3.10
21.00,2.00,4.81,-13.44,0.50,9.62,0.69,-7.94,59.80,3.10
21.00,0.00,121.25,-12.94,-156.88,3.12,-7.00,1.75,59.65,3.12
21.00,1.00,269.00,3.69,-54.19,6.06,-7.06,-4.19,59.65,3.12
21.00,2.00,4.94,-13.44,0.38,8.75,0.31,-6.56,59.65,3.12
21.00,0.00,121.31,-12.94,-157.19,1.81,-6.75,2.75,59.50,3.14
21.00,1.00,269.12,3.75,-54.31,6.12,-5.81,-2.44,59.50,3.14
21.00,2.00,5.06,-13.44,0.19,7.44,0.50,-4.81,59.50,3.14
21.00,0.00,121.31,-12.94,-157.31,-0.88,-3.81,2.12,59.33,3.16
21.00,1.00,269.19,3.81,-54.44,6.38,-4.88,-1.12,59.33,3.16
21.00,2.00,5.19,-13.44,0.06,5.44,-0.50,-3.88,59.33,3.16
21.00,0.00,121.31,-12.88,-157.38,-4.38,0.38,0.62,59.05,3.18
21.00,1.00,269.25,3.81,-54.56,5.69,-4.19,-0.75,59.05,3.18
21.00,2.00,5.25,-13.44,0.00,6.56,-1.00,-3.25,59.05,3.18
21.00,0.00,121.19,-12.69,-157.38,-8.50,4.75,-0.31,58.61,3.20
21.00,1.00,269.25,3.88,-54.69,6.69,-3.50,-0.06,58.61,3.20
21.00,2.00,5.31,-13.38,-0.12,8.12,-0.69,-3.06,58.61,3.20
21.00,0.00,121.12,-12.50,-157.25,-13.44,10.12,-0.81,58.07,3.22
21.00,1.00,269.25,3.94,-54.88,6.38,-3.00,1.00,58.07,3.22
21.00,2.00,5.38,-13.38,-0.31,7.06,-0.94,-2.56,58.07,3.22
21.00,0.00,121.00,-12.12,-157.00,-19.38,17.50,-1.75,57.39,3.24
21.00,1.00,269.25,4.00,-55.00,5.94,-2.31,1.81,57.39,3.24
21.00,2.00,5.44,-13.38,-0.44,6.88,-0.31,-1.88,57.39,3.24
21.00,0.00,120.44,-11.69,-156.62,-25.00,24.31,-3.56,56.62,3.26
21.00,1.00,269.19,4.06,-55.12,5.31,-0.62,3.12,56.62,3.26
21.00,2.00,5.44,-13.38,-0.56,4.12,-2.00,-0.56,56.62,3.26
21.00,0.00,120.12,-11.19,-156.25,-29.38,29.81,-4.94,55.77,3.28
21.00,1.00,269.12,4.12,-55.25,5.25,0.19,4.50,55.77,3.28
21.00,2.00,5.44,-13.31,-0.75,3.06,0.06,0.88,55.77,3.28
21.00,0.00,119.75,-10.62,-155.69,-35.19,37.38,-7.19,54.84,3.30
21.00,1.00,269.00,4.19,-55.38,3.44,1.50,5.31,54.84,3.30
21.00,2.00,5.44,-13.31,-0.81,0.25,1.12,1.88,54.84,3.30
21.00,0.00,119.25,-10.00,-155.00,-41.00,41.12,-13.06,53.76,3.32
21.00,1.00,268.88,4.25,-55.44,1.50,2.38,5.56,53.76,3.32
21.00,2.00,5.38,-13.38,-0.88,0.19,1.44,1.75,53.76,3.32
21.00,0.00,118.75,-9.38,-154.31,-45.06,41.38,-14.56,52.69,3.34
21.00,1.00,268.75,4.31,-55.50,0.69,3.31,5.69,52.69,3.34
21.00,2.00,5.31,-13.38,-0.94,-4.12,0.25,3.69,52.69,3.34
21.00,0.00,117.69,-8.81,-153.38,-54.19,43.00,-20.75,51.31,3.36
21.00,1.00,268.56,4.38,-55.50,-0.31,4.06,7.00,51.31,3.36
21.00,2.00,5.19,-13.44,-1.00,-1.69,5.31,4.25,51.31,3.36
21.00,0.00,116.94,-8.31,-152.50,-52.31,42.75,-23.88,49.98,3.38
21.00,1.00,268.38,4.44,-55.56,-2.00,6.62,7.62,49.98,3.38
21.00,2.00,5.06,-13.56,-1.06,-1.75,2.94,5.50,49.98,3.38
21.00,0.00,115.94,-7.69,-151.62,-49.62,43.62,-15.62,48.88,3.40
21.00,1.00,268.12,4.50,-55.56,-3.62,7.19,9.44,48.88,3.40
21.00,2.00,4.94,-13.56,-0.94,-7.56,1.69,9.06,48.88,3.40
21.00,0.00,115.44,-7.06,-150.75,-50.31,44.69,-13.00,47.87,3.42
21.00,1.00,267.81,4.62,-55.50,-4.50,9.12,10.44,47.87,3.42
21.00,2.00,4.69,-13.69,-0.88,-11.81,5.62,9.94,47.87,3.42
21.00,0.00,114.81,-6.50,-149.88,-48.81,43.12,-18.44,47.02,3.44
21.00,1.00,267.56,4.69,-55.44,-7.00,9.69,10.50,47.02,3.44
21.00,2.00,4.44,-13.75,-0.69,-16.50,3.06,10.25,47.02,3.44
21.00,0.00,114.19,-6.25,-149.44,-44.19,39.25,-19.56,46.25,3.46
21.00,1.00,267.25,4.69,-55.31,-8.50,9.62,9.31,46.25,3.46
21.00,2.00,4.19,-13.81,-0.44,-14.88,3.06,9.88,46.25,3.46
21.00,0.00,113.25,-5.62,-148.31,-40.88,36.06,-17.88,45.54,3.48
21.00,1.00,267.00,4.69,-55.12,-8.38,8.94,8.44,45.54,3.48
21.00,2.00,4.00,-13.81,-0.19,-13.88,2.38,9.19,45.54,3.48
21.00,0.00,112.62,-5.19,-147.56,-41.44,34.88,-18.38,44.81,3.50
21.00,1.00,266.81,4.75,-55.00,-8.44,7.50,8.00,44.81,3.50
21.00,2.00,3.81,-13.88,0.00,-13.38,3.31,9.31,44.81,3.50
21.00,0.00,112.31,-5.00,-147.19,-39.81,34.38,-18.38,44.12,3.52
21.00,1.00,266.56,4.75,-54.81,-9.06,7.12,8.69,44.12,3.52
21.00,2.00,3.56,-14.00,0.19,-13.62,2.31,9.50,44.12,3.52
21.00,0.00,111.75,-4.62,-146.50,-40.00,37.19,-16.56,43.43,3.54
21.00,1.00,266.38,4.81,-54.69,-9.50,6.69,9.31,43.43,3.54
21.00,2.00,3.38,-14.00,0.38,-13.62,0.12,9.75,43.43,3.54
21.00,0.00,111.12,-4.25,-145.75,-40.06,36.81,-14.75,42.75,3.56
21.00,1.00,266.12,4.94,-54.50,-9.31,6.44,10.44,42.75,3.56
21.00,2.00,3.12,-14.00,0.56,-14.19,-2.50,9.88,42.75,3.56
21.00,0.00,110.56,-3.81,-145.06,-39.88,39.19,-12.25,42.12,3.58
21.00,1.00,265.88,5.00,-54.31,-10.31,6.12,11.00,42.12,3.58
21.00,2.00,2.88,-13.94,0.75,-15.94,-1.81,9.81,42.12,3.58
21.00,0.00,110.06,-3.25,-144.31,-40.44,41.19,-10.88,41.50,3.60
21.00,1.00,265.56,5.12,-54.12,-11.06,6.44,11.25,41.50,3.60
21.00,2.00,2.62,-13.94,1.00,-16.75,-2.06,10.12,41.50,3.60
21.00,0.00,109.31,-2.75,-143.56,-39.31,41.19,-8.56,40.93,3.62
21.00,1.00,265.31,5.19,-53.94,-11.88,7.25,11.00,40.93,3.62
21.00,2.00,2.44,-13.88,1.31,-17.69,-3.56,8.94,40.93,3.62
21.00,0.00,108.81,-2.19,-142.81,-37.31,40.50,-8.69,40.45,3.64
21.00,1.00,265.06,5.25,-53.62,-13.44,7.06,10.25,40.45,3.64
21.00,2.00,2.25,-13.81,1.62,-18.81,-4.31,6.81,40.45,3.64
21.00,0.00,108.12,-1.69,-142.19,-32.75,35.50,-7.06,40.16,3.66
21.00,1.00,264.81,5.38,-53.38,-13.25,5.31,9.06,40.16,3.66
21.00,2.00,2.06,-13.75,2.00,-21.81,-2.31,7.44,40.16,3.66
21.00,0.00,107.75,-1.25,-141.69,-29.38,31.25,-3.94,39.86,3.68
21.00,1.00,264.62,5.44,-53.12,-13.12,5.38,8.06,39.86,3.68
21.00,2.00,1.88,-13.69,2.31,-17.88,-1.44,6.00,39.86,3.68
21.00,0.00,107.44,-0.88,-141.12,-29.38,27.31,-4.25,39.56,3.70
21.00,1.00,264.44,5.50,-52.81,-12.81,5.31,7.88,39.56,3.70
21.00,2.00,1.75,-13.62,2.62,-18.06,-4.12,5.19,39.56,3.70
21.00,0.00,107.00,-0.50,-140.56,-25.75,21.62,-6.25,39.30,3.72
21.00,1.00,264.31,5.56,-52.56,-12.69,4.88,7.00,39.30,3.72
21.00,2.00,1.62,-13.56,2.94,-15.81,-3.88,4.56,39.30,3.72
21.00,0.00,106.69,-0.31,-140.12,-18.69,17.25,-5.00,39.22,3.74
21.00,1.00,264.12,5.56,-52.31,-12.25,4.06,6.19,39.22,3.74
21.00,2.00,1.50,-13.50,3.19,-15.44,-3.75,4.06,39.22,3.74
21.00,0.00,106.44,-0.19,-139.94,-16.50,15.38,-4.06,39.18,3.76
21.00,1.00,264.00,5.62,-52.00,-12.19,3.31,6.00,39.18,3.76
21.00,2.00,1.38,-13.44,3.50,-15.19,-3.69,4.69,39.18,3.76
21.00,0.00,106.25,-0.12,-139.75,-11.25,10.50,-6.19,39.24,3.78
21.00,1.00,263.88,5.69,-51.75,-11.75,2.12,4.75,39.24,3.78
21.00,2.00,1.25,-13.31,3.81,-13.44,-3.75,4.75,39.24,3.78
21.00,0.00,106.06,-0.06,-139.56,-9.81,9.56,-6.31,39.28,3.80
21.00,1.00,263.81,5.69,-51.50,-11.44,1.81,3.88,39.28,3.80
21.00,2.00,1.12,-13.25,4.12,-11.50,-3.62,4.19,39.28,3.80
21.00,0.00,105.88,0.00,-139.44,-3.75,8.06,-3.44,39.46,3.82
21.00,1.00,263.69,5.75,-51.25,-11.56,1.88,4.38,39.46,3.82
21.00,2.00,1.06,-13.19,4.31,-10.38,-3.75,4.75,39.46,3.82
21.00,0.00,105.75,0.06,-139.44,-2.25,7.31,-2.06,39.67,3.84
21.00,1.00,263.62,5.81,-50.94,-11.06,2.25,4.62,39.67,3.84
21.00,2.00,0.88,-13.06,4.50,-10.44,-5.88,6.38,39.67,3.86
21.00,0.00,105.69,0.19,-139.38,-2.38,5.69,-0.25,39.86,3.86
21.00,1.00,263.50,5.88,-50.69,-11.00,2.88,5.31,39.86,3.86
21.00,2.00,0.75,-12.94,4.69,-9.44,-6.81,7.69,39.86,3.86
21.00,0.00,105.69,0.19,-139.31,-2.75,4.19,-1.06,40.00,3.88
21.00,1.00,263.38,5.94,-50.44,-10.56,3.62,6.25,40.00,3.88
21.00,2.00,0.56,-12.81,4.81,-8.00,-6.69,8.06,40.00,3.88
21.00,0.00,105.62,0.25,-139.31,-3.25,5.56,-1.31,40.11,3.90
21.00,1.00,263.19,6.00,-50.19,-10.12,3.88,8.06,40.11,3.90
21.00,2.00,0.38,-12.69,4.94,-7.50,-7.19,9.25,40.11,3.90
21.00,0.00,105.38,0.38,-139.19,-6.12,11.44,-2.38,40.18,3.92
21.00,1.00,262.94,6.06,-49.94,-9.69,4.56,9.44,40.18,3.92
21.00,2.00,0.12,-12.56,5.06,-8.75,-8.19,11.62,40.18,3.92
21.00,0.00,105.25,0.62,-139.06,-6.81,16.50,-2.06,40.23,3.94
21.00,1.00,262.75,6.19,-49.69,-8.94,4.56,10.69,40.23,3.94
21.00,2.00,359.81,-12.44,5.19,-9.00,-8.06,13.44,40.23,3.94
21.00,0.00,105.00,1.00,-138.88,-9.81,22.69,-1.00,40.21,3.96
21.00,1.00,262.44,6.31,-49.50,-8.81,5.81,12.12,40.21,3.96
21.00,2.00,359.56,-12.31,5.31,-8.75,-6.88,14.75,40.21,3.96
21.00,0.00,104.75,1.38,-138.56,-16.50,29.62,-2.25,39.99,3.98
21.00,1.00,262.12,6.44,-49.31,-8.31,7.44,14.38,39.99,3.98
21.00,2.00,359.19,-12.19,5.38,-8.12,-6.31,16.06,39.99,3.98
21.00,0.00,104.38,1.75,-138.12,-23.00,34.50,-7.25,39.69,4.00
21.00,1.00,261.75,6.56,-49.06,-8.12,9.06,15.69,39.69,4.00
21.00,2.00,358.88,-12.06,5.50,-11.56,-7.69,18.12,39.69,4.00
21.00,0.00,103.81,2.19,-137.62,-26.00,38.25,-10.75,39.32,4.02
21.00,1.00,261.38,6.69,-48.88,-8.69,9.25,15.56,39.32,4.02
21.00,2.00,358.44,-12.00,5.62,-12.25,-6.38,19.25,39.32,4.02
21.00,0.00,103.31,2.62,-137.00,-28.56,40.69,-11.12,38.89,4.04
21.00,1.00,261.00,6.81,-48.69,-8.69,10.69,16.94,38.89,4.04
21.00,2.00,358.00,-11.94,5.81,-11.88,-3.00,20.25,38.89,4.06
21.00,0.00,102.50,3.06,-136.38,-32.25,42.50,-10.00,38.35,4.06
21.00,1.00,260.50,6.94,-48.44,-8.12,12.19,19.81,38.35,4.06
21.00,2.00,357.62,-11.94,5.94,-11.75,-1.12,21.50,38.35,4.06
21.00,0.00,101.94,3.56,-135.62,-36.81,44.44,-10.12,37.83,4.08
21.00,1.00,260.00,7.06,-48.25,-9.94,15.56,21.44,37.83,4.08
21.00,2.00,357.12,-11.94,6.12,-16.94,-3.25,23.81,37.83,4.10
21.00,0.00,270.06,4.00,-134.81,-40.25,44.56,-12.25,37.22,4.10
21.00,1.00,259.44,7.12,-47.94,-9.94,16.12,21.19,37.22,4.10
21.00,2.00,356.62,-11.94,6.38,-17.06,-1.44,24.50,37.22,4.10
21.00,0.00,268.44,4.38,-133.94,-43.12,44.00,-15.62,36.57,4.12
21.00,1.00,258.94,7.25,-47.69,-10.44,17.25,21.25,36.57,4.12
21.00,2.00,356.12,-12.00,6.62,-18.31,0.00,24.19,36.57,4.12
21.00,0.00,267.06,4.69,-133.00,-44.00,43.19,-16.56,35.88,4.14
21.00,1.00,258.38,7.31,-47.44,-11.00,18.06,20.56,35.88,4.14
21.00,2.00,355.56,-12.06,6.88,-17.88,0.69,24.44,35.88,4.14
21.00,0.00,265.75,5.06,-132.12,-43.00,41.75,-14.56,35.25,4.16
21.00,1.00,257.88,7.38,-47.12,-11.69,17.94,19.38,35.25,4.16
21.00,2.00,355.06,-12.12,7.12,-19.00,0.25,23.75,35.25,4.16
21.00,0.00,264.50,5.38,-131.19,-43.12,39.19,-12.81,34.56,4.18
21.00,1.00,257.38,7.38,-46.88,-11.31,16.81,17.56,34.56,4.18
21.00,2.00,354.62,-12.25,7.38,-16.81,2.25,22.56,34.56,4.18
21.00,0.00,263.44,5.62,-130.25,-44.81,37.38,-13.62,33.79,4.20
21.00,1.00,256.94,7.38,-46.56,-10.50,16.12,16.44,33.79,4.20
21.00,2.00,354.19,-12.31,7.56,-15.19,3.19,21.25,33.79,4.20
21.00,0.00,262.12,5.88,-129.31,-46.62,36.38,-14.06,32.90,4.22
21.00,1.00,256.50,7.38,-46.31,-10.38,15.31,15.12,32.90,4.22
21.00,2.00,353.75,-12.44,7.81,-12.94,2.38,18.88,32.90,4.22
21.00,0.00,261.25,6.12,-128.31,-46.06,34.19,-12.69,32.02,4.24
21.00,1.00,256.12,7.38,-46.06,-11.56,15.00,13.50,32.02,4.24
21.00,2.00,353.44,-12.50,7.94,-12.50,1.69,16.31,32.02,4.24
21.00,0.00,260.38,6.31,-127.44,-43.06,30.19,-10.44,31.28,4.26
21.00,1.00,255.81,7.38,-45.81,-11.94,13.00,11.44,31.28,4.26
21.00,2.00,353.06,-12.50,8.19,-14.75,-0.81,16.00,31.28,4.26
21.00,0.00,259.75,6.50,-126.62,-39.75,26.38,-9.06,30.59,4.28
21.00,1.00,255.56,7.31,-45.56,-11.75,10.50,8.81,30.59,4.28
21.00,2.00,352.75,-12.56,8.44,-13.56,-0.38,14.50,30.59,4.28
21.00,0.00,259.12,6.69,-125.81,-37.94,24.75,-5.88,29.86,4.30
21.00,1.00,255.38,7.31,-45.31,-11.62,9.75,6.81,29.86,4.30
21.00,2.00,352.50,-12.56,8.62,-10.19,1.62,11.75,29.86,4.30
21.00,0.00,258.19,6.88,-125.00,-38.06,24.88,-4.00,29.09,4.32
21.00,1.00,255.19,7.25,-45.06,-11.94,9.06,5.12,29.09,4.32
21.00,2.00,352.31,-12.62,8.75,-8.56,1.81,9.44,29.09,4.32
21.00,0.00,257.62,7.06,-124.25,-35.38,22.81,-3.62,28.37,4.34
21.00,1.00,255.06,7.19,-44.81,-12.00,8.12,4.00,28.37,4.34
21.00,2.00,352.12,-12.69,8.88,-8.00,2.25,8.88,28.37,4.34
21.00,0.00,256.69,7.25,-123.62,-31.25,20.38,-1.88,27.79,4.36
21.00,1.00,254.94,7.12,-44.56,-12.62,8.19,4.12,27.79,4.36
21.00,2.00,351.88,-12.75,9.00,-8.88,1.00,9.62,27.79,4.36
21.00,0.00,256.06,7.50,-123.00,-30.44,21.62,0.94,27.24,4.38
21.00,1.00,254.81,7.06,-44.25,-13.25,8.25,3.75,27.24,4.38
21.00,2.00,351.69,-12.81,9.12,-9.62,-0.19,10.31,27.24,4.38
21.00,0.00,255.38,7.75,-122.31,-32.06,24.38,1.69,26.63,4.40
21.00,1.00,254.69,7.00,-44.00,-13.44,8.50,3.69,26.63,4.40
21.00,2.00,351.50,-12.81,9.31,-9.00,-0.56,9.50,26.63,4.40
21.00,0.00,254.69,8.06,-121.69,-31.25,25.12,2.56,26.03,4.42
21.00,1.00,254.56,6.94,-43.69,-13.81,8.69,3.69,26.03,4.42
21.00,2.00,351.25,-12.81,9.38,-8.38,-1.38,9.19,26.03,4.42
21.00,0.00,253.88,8.44,-121.06,-27.50,25.69,5.56,25.52,4.44
21.00,1.00,254.50,6.88,-43.44,-14.62,8.56,3.12,25.52,4.44
21.00,2.00,351.06,-12.81,9.50,-8.06,-1.25,9.31,25.52,4.44
21.00,0.00,253.00,8.81,-120.50,-25.88,27.81,7.94,25.07,4.46
21.00,1.00,254.38,6.75,-43.12,-15.25,9.25,3.31,25.07,4.46
21.00,2.00,350.88,-12.81,9.62,-8.44,-1.75,9.50,25.07,4.46
21.00,0.00,252.06,9.25,-119.94,-26.44,28.94,8.44,24.61,4.48
21.00,1.00,254.25,6.69,-42.81,-15.88,9.62,3.69,24.61,4.48
21.00,2.00,350.69,-12.81,9.75,-9.19,-1.56,9.75,24.61,4.48
21.00,0.00,251.12,9.62,-119.31,-27.25,29.44,7.06,24.14,4.50
21.00,1.00,254.12,6.62,-42.50,-16.19,10.19,3.75,24.14,4.50
21.00,2.00,350.44,-12.81,9.88,-9.06,-1.50,9.62,24.14,4.50
21.00,0.00,250.25,10.00,-118.75,-25.88,27.12,6.00,23.74,4.52
21.00,1.00,254.06,6.56,-42.31,-16.94,11.31,4.06,23.74,4.52
21.00,2.00,350.25,-12.75,10.00,-10.62,-2.06,10.06,23.74,4.52
21.00,0.00,249.50,10.31,-118.19,-23.88,24.38,5.88,23.43,4.54
21.00,1.00,253.81,6.44,-41.75,-17.50,11.88,4.19,23.43,4.54
21.00,2.00,350.00,-12.75,10.19,-12.12,-1.31,10.12,23.43,4.54
21.00,0.00,248.69,10.62,-117.69,-23.25,21.50,5.12,23.18,4.56
21.00,1.00,253.75,6.38,-41.56,-17.31,11.81,4.00,23.18,4.56
21.00,2.00,349.75,-12.75,10.44,-13.75,-1.56,10.31,23.18,4.56
21.00,0.00,248.25,10.81,-117.19,-22.19,18.25,4.12,22.94,4.58
21.00,1.00,253.56,6.19,-41.06,-17.25,12.25,3.31,22.94,4.58
21.00,2.00,349.56,-12.75,10.62,-13.12,-0.12,9.44,22.94,4.58
21.00,0.00,247.81,11.06,-116.69,-22.00,15.81,3.06,22.72,4.60
21.00,1.00,253.38,6.00,-40.69,-17.62,12.94,2.94,22.72,4.60
21.00,2.00,349.38,-12.81,10.88,-13.62,1.12,8.75,22.72,4.60
21.00,0.00,247.50,11.19,-116.25,-21.12,12.81,1.31,22.55,4.62
21.00,1.00,253.31,5.94,-40.50,-17.88,13.31,2.00,22.55,4.62
21.00,2.00,349.19,-12.88,11.12,-14.44,1.44,7.88,22.55,4.62
21.00,0.00,247.38,11.25,-115.81,-19.75,10.75,-0.50,22.37,4.64
21.00,1.00,253.25,5.75,-40.12,-17.44,13.31,0.88,22.37,4.64
21.00,2.00,349.00,-12.88,11.38,-13.12,2.56,7.06,22.37,4.64
21.00,0.00,247.31,11.25,-115.38,-18.31,7.38,-1.75,22.23,4.66
21.00,1.00,253.12,5.56,-39.81,-16.25,13.56,0.00,22.23,4.66
21.00,2.00,348.88,-13.00,11.62,-13.06,3.50,6.50,22.23,4.66
21.00,0.00,247.38,11.19,-115.00,-16.88,4.44,-2.12,22.17,4.68
21.00,1.00,253.06,5.38,-39.44,-16.12,13.50,-0.56,22.17,4.68
21.00,2.00,348.75,-13.06,11.88,-14.31,4.38,5.88,22.17,4.68
21.00,0.00,247.44,11.19,-114.69,-16.06,3.19,-2.06,22.13,4.70
21.00,1.00,253.00,5.19,-39.12,-16.62,13.19,-1.81,22.13,4.70
21.00,2.00,348.62,-13.19,12.19,-14.44,5.50,5.12,22.13,4.70
21.00,0.00,247.44,11.12,-114.38,-14.81,1.81,-2.31,22.10,4.72
21.00,1.00,252.94,4.94,-38.81,-16.25,13.31,-2.62,22.10,4.72
21.00,2.00,348.50,-13.31,12.50,-13.69,6.44,4.25,22.10,4.72
21.00,0.00,247.56,11.06,-114.06,-15.38,1.56,-2.31,22.04,4.74
21.00,1.00,252.94,4.69,-38.44,-15.44,13.19,-2.19,22.04,4.74
21.00,2.00,348.44,-13.44,12.75,-13.25,6.62,4.12,22.04,4.74
21.00,0.00,247.62,11.06,-113.69,-17.25,2.38,-3.19,21.93,4.76
21.00,1.00,252.94,4.44,-38.12,-15.44,12.94,-1.62,21.93,4.76
21.00,2.00,348.31,-13.56,13.00,-13.25,6.31,4.38,21.93,4.76
21.00,0.00,247.75,11.00,-113.38,-17.38,2.31,-2.81,21.80,4.78
21.00,1.00,252.88,4.25,-37.81,-14.75,11.94,-1.12,21.80,4.78
21.00,2.00,348.19,-13.75,13.25,-12.19,5.50,4.50,21.80,4.78
21.00,0.00,247.81,11.00,-113.00,-17.56,3.38,-1.69,21.66,4.80
21.00,1.00,252.81,4.06,-37.50,-14.50,11.56,-0.56,21.66,4.80
21.00,2.00,348.12,-13.81,13.50,-12.19,3.62,5.12,21.66,4.80
21.00,0.00,247.94,11.00,-112.62,-17.56,3.75,-0.62,21.50,4.82
21.00,1.00,252.75,3.88,-37.19,-14.25,11.25,-0.25,21.50,4.82
21.00,2.00,348.00,-13.94,13.69,-11.44,2.62,5.38,21.50,4.82
21.00,0.00,247.88,11.06,-112.25,-17.50,5.50,1.06,21.33,4.84
21.00,1.00,252.69,3.69,-36.88,-13.50,10.06,0.75,21.33,4.84
21.00,2.00,347.88,-14.00,13.94,-11.12,1.12,5.69,21.33,4.84
21.00,0.00,247.69,11.19,-111.88,-18.44,7.38,2.19,21.12,4.86
21.00,1.00,252.62,3.50,-36.62,-13.31,9.69,0.94,21.12,4.86
21.00,2.00,347.69,-14.00,14.12,-10.38,0.38,6.25,21.12,4.86
21.00,0.00,247.56,11.31,-111.44,-18.69,8.81,2.19,20.92,4.88
21.00,1.00,252.56,3.38,-36.31,-13.19,9.62,1.94,20.92,4.88
21.00,2.00,347.56,-14.06,14.31,-10.94,-0.06,6.56,20.92,4.88
21.00,0.00,247.31,11.44,-111.06,-19.00,10.56,3.25,20.69,4.90
21.00,1.00,252.50,3.25,-36.06,-12.38,8.94,2.06,20.69,4.90
21.00,2.00,347.38,-14.06,14.50,-10.44,-1.69,6.62,20.69,4.90
21.00,0.00,247.06,11.56,-110.62,-18.00,11.44,4.12,20.48,4.92
21.00,1.00,252.38,3.12,-35.75,-11.81,8.62,2.12,20.48,4.92
21.00,2.00,347.25,-14.06,14.69,-9.81,-2.56,7.62,20.48,4.92
21.00,0.00,246.75,11.75,-110.25,-16.94,12.12,5.75,20.29,4.94
21.00,1.00,252.31,3.00,-35.50,-11.38,8.38,3.38,20.29,4.94
21.00,2.00,347.06,-14.06,14.81,-9.75,-2.69,7.94,20.29,4.94
21.00,0.00,246.31,11.94,-109.88,-17.00,13.62,7.00,20.10,4.96
21.00,1.00,252.19,2.94,-35.25,-11.94,7.81,3.88,20.10,4.96
21.00,2.00,346.94,-14.06,14.94,-9.94,-2.81,8.81,20.10,4.96
21.00,0.00,245.94,12.19,-109.50,-17.44,13.56,6.88,19.91,4.98
21.00,1.00,252.06,2.81,-35.00,-11.62,7.62,4.56,19.91,4.98
21.00,2.00,346.62,-14.06,15.19,-9.94,-4.12,9.44,19.91,4.98
21.00,0.00,245.56,12.38,-109.19,-14.88,11.50,7.44,19.77,5.00
21.00,1.00,251.94,2.75,-34.75,-10.50,6.56,4.69,19.77,5.00
21.00,2.00,346.44,-14.00,15.38,-9.75,-5.69,9.31,19.77,5.00
21.00,0.00,245.31,12.56,-108.88,-12.00,8.81,8.56,19.66,5.02
21.00,1.00,251.81,2.69,-34.50,-10.31,6.38,4.25,19.66,5.02
21.00,2.00,346.31,-14.00,15.44,-7.81,-4.00,7.75,19.66,5.02
21.00,0.00,245.06,12.69,-108.62,-10.94,7.25,8.38,19.58,5.04
21.00,1.00,251.69,2.62,-34.25,-9.31,5.56,3.94,19.58,5.04
21.00,2.00,346.06,-13.94,15.69,-7.75,-3.88,7.25,19.58,5.04
21.00,0.00,244.88,12.81,-108.38,-9.19,5.25,7.19,19.53,5.06
21.00,1.00,251.62,2.56,-34.06,-8.62,4.94,3.38,19.53,5.06
21.00,2.00,346.00,-13.94,15.81,-7.38,-4.25,5.75,19.53,5.06
21.00,0.00,244.81,12.88,-108.19,-7.44,2.50,6.44,19.47,5.08
21.00,1.00,251.56,2.50,-33.88,-7.62,3.56,2.12,19.47,5.08
21.00,2.00,345.81,-13.81,16.06,-5.06,-3.12,4.56,19.47,5.08
21.00,0.00,244.88,12.94,-108.06,-5.50,-1.00,5.94,19.44,5.10
21.00,1.00,251.50,2.44,-33.69,-7.00,2.12,0.94,19.44,5.10
21.00,2.00,345.75,-13.81,16.19,-4.56,-2.25,3.25,19.44,5.10
21.00,0.00,245.00,12.94,-108.00,-4.06,-2.56,4.94,19.42,5.12
21.00,1.00,251.50,2.38,-33.56,-6.25,2.12,0.62,19.42,5.12
21.00,2.00,345.69,-13.81,16.25,-3.12,-1.88,1.88,19.42,5.12
21.00,0.00,245.06,12.94,-107.94,-1.56,-5.62,4.44,19.43,5.14
21.00,1.00,251.50,2.31,-33.44,-5.25,1.25,-0.06,19.43,5.14
21.00,2.00,345.69,-13.75,16.44,-2.06,-1.12,0.62,19.43,5.14
21.00,0.00,245.25,12.94,-107.94,-0.38,-8.56,4.06,19.46,5.16
21.00,1.00,251.50,2.31,-33.31,-4.88,0.12,-0.94,19.46,5.16
21.00,2.00,345.69,-13.75,16.44,-1.62,-0.50,-0.25,19.46,5.16
21.00,0.00,245.50,12.94,-107.94,0.06,-10.31,3.69,19.51,5.18
21.00,1.00,251.56,2.25,-33.19,-4.19,0.25,-1.31,19.51,5.18
21.00,2.00,345.69,-13.75,16.56,-1.75,0.31,-0.50,19.51,5.18
21.00,0.00,245.75,12.94,-107.94,0.69,-11.00,2.94,19.58,5.20
21.00,1.00,251.56,2.25,-33.12,-4.06,-0.25,-1.69,19.58,5.20
21.00,2.00,345.69,-13.75,16.62,-1.81,0.25,0.00,19.58,5.20
21.00,0.00,246.31,12.88,-108.00,1.06,-11.38,2.62,19.65,5.22
21.00,1.00,251.62,2.25,-33.00,-4.12,-0.06,-2.00,19.65,5.22
21.00,2.00,345.69,-13.75,16.62,-1.75,0.62,-0.12,19.65,5.22
21.00,0.00,246.56,12.88,-108.12,1.44,-10.81,2.31,19.75,5.24
21.00,1.00,251.62,2.19,-32.94,-3.69,0.94,-1.00,19.75,5.24
21.00,2.00,345.69,-13.75,16.69,-2.25,-0.44,0.50,19.75,5.24
21.00,0.00,246.75,12.81,-108.19,1.31,-9.38,2.69,19.84,5.26
21.00,1.00,251.62,2.19,-32.81,-3.81,1.00,-0.25,19.84,5.26
21.00,2.00,345.69,-13.75,16.75,-2.31,-0.88,1.56,19.84,5.26
21.00,0.00,246.88,12.88,-108.19,-0.94,-4.81,3.19,19.90,5.28
21.00,1.00,251.62,2.12,-32.75,-4.00,0.94,0.25,19.90,5.28
21.00,2.00,345.56,-13.75,16.81,-3.06,-1.25,2.62,19.90,5.28
21.00,0.00,246.88,12.94,-108.19,-1.94,-0.81,4.12,19.95,5.30
21.00,1.00,251.62,2.12,-32.62,-4.06,1.31,1.44,19.95,5.30
21.00,2.00,345.50,-13.75,16.88,-3.88,-2.25,3.38,19.95,5.30
21.00,0.00,246.81,13.00,-108.12,-2.50,0.62,4.56,19.97,5.32
21.00,1.00,251.56,2.12,-32.56,-3.94,1.62,1.94,19.97,5.32
21.00,2.00,345.44,-13.75,16.88,-3.12,-1.94,3.56,19.97,5.32
21.00,0.00,246.62,13.12,-108.06,-2.69,4.81,5.12,19.98,5.34
21.00,1.00,251.50,2.12,-32.50,-3.94,2.00,2.19,19.98,5.34
21.00,2.00,345.31,-13.75,16.94,-3.38,-1.75,4.62,19.98,5.34
21.00,0.00,246.44,13.25,-108.00,-3.19,5.81,4.88,20.02,5.36
21.00,1.00,251.44,2.12,-32.38,-3.81,2.62,3.50,20.02,5.36
21.00,2.00,345.25,-13.75,16.94,-4.44,-2.31,5.19,20.02,5.36
21.00,0.00,246.19,13.38,-107.88,-4.25,8.31,4.38,20.03,5.38
21.00,1.00,251.38,2.06,-32.31,-3.81,3.19,3.75,20.03,5.38
21.00,2.00,345.06,-13.69,17.06,-4.69,-2.69,5.88,20.03,5.38
21.00,0.00,245.88,13.50,-107.75,-4.25,8.81,3.75,20.01,5.40
21.00,1.00,251.25,2.06,-32.25,-2.62,2.94,3.62,20.01,5.40
21.00,2.00,344.94,-13.69,17.12,-3.62,-2.00,6.00,20.01,5.40
21.00,0.00,245.75,13.62,-107.62,-4.62,8.94,3.38,19.99,5.42
21.00,1.00,251.19,2.06,-32.19,-0.81,4.44,3.19,19.99,5.42
21.00,2.00,344.88,-13.69,17.12,-3.88,-1.62,6.44,19.99,5.42
21.00,0.00,245.56,13.69,-107.50,-4.06,8.62,2.94,20.03,5.44
21.00,1.00,251.06,2.06,-32.12,-3.00,2.94,4.88,20.03,5.44
21.00,2.00,344.62,-13.75,17.25,-5.56,-1.50,7.19,20.03,5.44
21.00,0.00,245.38,13.75,-107.38,-3.94,7.44,3.12,20.05,5.46
21.00,1.00,251.00,2.00,-32.06,-2.00,2.81,4.38,20.05,5.46
21.00,2.00,344.56,-13.75,17.25,-4.81,-1.12,6.75,20.05,5.46
21.00,0.00,245.25,13.81,-107.25,-3.81,6.12,2.44,20.06,5.48
21.00,1.00,250.88,2.00,-32.06,-2.06,2.94,4.31,20.06,5.48
21.00,2.00,344.38,-13.75,17.38,-4.19,-0.44,6.06,20.06,5.48
21.00,0.00,245.19,13.81,-107.19,-2.25,-1.50,-0.81,20.13,5.50
21.00,1.00,250.81,2.00,-32.00,-1.69,3.75,3.44,20.13,5.50
21.00,2.00,344.25,-13.81,17.50,-4.69,1.00,4.06,20.13,5.50
21.00,0.00,245.44,13.75,-107.19,0.06,-7.06,0.38,20.25,5.52
21.00,1.00,250.69,1.94,-31.94,-2.31,3.38,2.75,20.25,5.52
21.00,2.00,344.25,-13.81,17.56,-4.50,1.25,3.12,20.25,5.52
21.00,0.00,245.62,13.75,-107.25,0.12,-5.81,0.06,20.32,5.54
21.00,1.00,250.62,1.94,-31.88,-2.00,3.19,1.94,20.32,5.54
21.00,2.00,344.19,-13.88,17.69,-2.81,2.88,2.12,20.32,5.54
21.00,0.00,245.75,13.69,-107.25,0.19,-4.25,-0.69,20.43,5.56
21.00,1.00,250.62,1.88,-31.81,-2.12,3.06,1.38,20.43,5.56
21.00,2.00,344.19,-13.94,17.75,-3.94,1.38,2.38,20.43,5.56
21.00,0.00,245.94,13.69,-107.25,0.44,-4.38,-0.88,20.53,5.58
21.00,1.00,250.56,1.81,-31.75,-3.56,1.62,0.44,20.53,5.58
21.00,2.00,344.12,-13.94,17.94,-3.12,1.25,1.06,20.53,5.58
21.00,0.00,246.06,13.62,-107.25,0.38,-4.25,-1.00,20.57,5.60
21.00,1.00,250.62,1.81,-31.69,-1.69,0.62,-0.88,20.57,5.60
21.00,2.00,344.12,-13.94,18.00,-1.19,2.38,-0.50,20.57,5.60
21.00,0.00,246.19,13.56,-107.25,1.31,-4.19,-0.88,20.63,5.62
21.00,1.00,250.62,1.81,-31.62,-1.38,0.38,-1.25,20.63,5.62
21.00,2.00,344.12,-14.00,18.00,-1.06,2.69,-0.94,20.63,5.62
21.00,0.00,246.25,13.56,-107.31,1.94,-4.25,-0.69,20.73,5.64
21.00,1.00,250.62,1.81,-31.62,-1.12,0.31,-1.44,20.73,5.64
21.00,2.00,344.19,-14.06,18.06,-1.75,1.88,-1.12,20.73,5.64
21.00,0.00,246.31,13.56,-107.31,2.12,-3.44,-0.44,20.80,5.66
21.00,1.00,250.69,1.75,-31.56,-0.56,0.69,-1.50,20.80,5.66
21.00,2.00,344.19,-14.06,18.12,-0.69,2.44,-1.44,20.80,5.66
21.00,0.00,246.38,13.56,-107.38,2.00,-3.00,-0.69,20.83,5.68
21.00,1.00,250.69,1.75,-31.56,-0.56,0.50,-1.56,20.83,5.68
21.00,2.00,344.25,-14.12,18.12,0.81,3.38,-1.56,20.83,5.68
21.00,0.00,246.44,13.50,-107.38,1.81,-3.94,-1.69,20.87,5.70
21.00,1.00,250.75,1.75,-31.56,-0.06,0.81,-1.44,20.87,5.70
21.00,2.00,344.31,-14.12,18.12,0.31,2.25,-1.06,20.87,5.70
21.00,0.00,246.62,13.44,-107.44,1.31,-5.56,-2.56,20.91,5.72
21.00,1.00,250.75,1.69,-31.56,0.00,1.06,-0.69,20.91,5.72
21.00,2.00,344.31,-14.19,18.12,-0.19,1.38,-0.69,20.91,5.72
21.00,0.00,246.81,13.38,-107.50,0.69,-6.00,-3.12,20.92,5.74
21.00,1.00,250.75,1.69,-31.56,0.19,1.19,-0.62,20.92,5.74
21.00,2.00,344.31,-14.19,18.12,0.31,1.44,-0.50,20.92,5.74
21.00,0.00,247.00,13.25,-107.50,-0.19,-6.00,-3.31,20.90,5.76
21.00,1.00,250.75,1.62,-31.56,0.12,1.00,-0.81,20.90,5.76
21.00,2.00,344.31,-14.19,18.12,0.62,1.75,-0.31,20.90,5.76
21.00,0.00,247.19,13.19,-107.50,-0.62,-4.25,-2.56,20.84,5.78
21.00,1.00,250.75,1.62,-31.56,0.44,1.44,-1.06,20.84,5.78
21.00,2.00,344.31,-14.25,18.12,1.44,2.62,0.00,20.84,5.78
21.00,0.00,247.31,13.12,-107.50,-0.62,-2.06,-1.81,20.80,5.80
21.00,1.00,250.75,1.56,-31.56,0.69,1.88,-0.81,20.80,5.80
21.00,2.00,344.31,-14.31,18.06,1.00,2.75,0.62,20.80,5.80
21.00,0.00,247.38,13.12,-107.50,-1.31,-0.62,-1.69,20.76,5.82
21.00,1.00,250.75,1.56,-31.56,0.94,1.44,-0.56,20.76,5.82
21.00,2.00,344.31,-14.31,18.06,0.31,2.50,0.44,20.76,5.82
21.00,0.00,247.44,13.06,-107.50,-1.31,-0.94,-1.81,20.73,5.84
21.00,1.00,250.75,1.50,-31.62,0.69,1.44,-0.56,20.73,5.84
21.00,2.00,344.38,-14.38,18.06,-0.38,2.12,-0.19,20.73,5.84
21.00,0.00,247.50,13.06,-107.44,-0.31,-1.31,-1.81,20.76,5.86
21.00,1.00,250.75,1.50,-31.62,1.19,0.88,-0.50,20.76,5.86
21.00,2.00,344.38,-14.44,18.12,-1.19,1.00,-0.56,20.76,5.86
21.00,0.00,247.75,13.00,-107.44,0.75,-0.56,-2.06,20.78,5.88
21.00,1.00,250.75,1.50,-31.62,1.44,0.62,-0.44,20.78,5.88
21.00,2.00,344.38,-14.44,18.12,-0.06,1.50,-1.06,20.78,5.88
21.00,0.00,247.81,12.94,-107.50,1.19,-1.31,-2.94,20.80,5.90
21.00,1.00,250.75,1.50,-31.69,1.06,0.19,-1.06,20.80,5.90
21.00,2.00,344.44,-14.44,18.12,0.56,2.12,-1.62,20.80,5.90
