Iteration,IMUNo,OrientationX (deg),OrientationY,OrientationZ,GyroX (20rad/sec),GyroY,GyroZ,Elbow_Pos (rad),Time (sec)
24.00,0.00,263.31,4.69,-108.31,26.94,-10.50,14.06,0.47,1.00
24.00,1.00,258.25,3.31,-45.56,1.44,-2.81,1.25,0.47,1.02
24.00,2.00,358.75,-14.81,7.56,5.38,-8.88,-0.19,0.47,1.02
24.00,0.00,263.31,4.88,-108.88,28.75,-14.69,13.62,1.01,1.02
24.00,1.00,258.25,3.38,-45.62,1.62,-2.88,1.25,1.01,1.02
24.00,2.00,358.75,-14.69,7.44,5.06,-8.50,0.38,1.01,1.02
24.00,0.00,263.38,4.94,-109.19,29.06,-15.56,13.44,1.55,1.04
24.00,1.00,258.25,3.38,-45.62,1.75,-3.00,1.19,1.55,1.04
24.00,2.00,358.75,-14.50,7.31,5.06,-8.12,0.75,1.55,1.04
24.00,0.00,263.44,5.12,-109.75,29.25,-16.44,13.44,2.10,1.06
24.00,1.00,258.25,3.44,-45.69,1.50,-2.88,0.81,2.10,1.06
24.00,2.00,358.75,-14.38,7.25,5.31,-7.38,0.75,2.10,1.06
24.00,0.00,263.56,5.25,-110.38,29.81,-15.62,13.62,2.65,1.08
24.00,1.00,258.25,3.50,-45.69,1.56,-2.62,1.06,2.65,1.08
24.00,2.00,358.75,-14.25,7.12,5.31,-6.62,1.50,2.65,1.08
24.00,0.00,263.56,5.44,-111.00,30.81,-14.06,15.00,3.24,1.10
24.00,1.00,258.25,3.56,-45.75,1.56,-2.50,1.19,3.24,1.10
24.00,2.00,358.69,-14.12,7.00,5.00,-7.19,1.94,3.24,1.10
24.00,0.00,263.50,5.62,-111.62,30.75,-11.56,16.00,3.81,1.12
24.00,1.00,258.25,3.62,-45.75,1.94,-2.25,1.25,3.81,1.12
24.00,2.00,358.69,-13.94,6.88,5.56,-8.25,2.56,3.81,1.12
24.00,0.00,263.38,5.88,-112.25,29.44,-10.31,15.31,4.34,1.14
24.00,1.00,258.25,3.62,-45.81,1.81,-2.25,1.00,4.34,1.14
24.00,2.00,358.62,-13.81,6.75,6.12,-8.06,2.56,4.34,1.14
24.00,0.00,263.19,6.06,-112.81,28.62,-7.88,16.00,4.86,1.16
24.00,1.00,258.25,3.69,-45.81,2.00,-2.25,1.62,4.86,1.16
24.00,2.00,358.56,-13.75,6.69,5.75,-8.19,3.19,4.86,1.16
24.00,0.00,262.88,6.38,-113.38,27.12,-3.75,17.25,5.36,1.18
24.00,1.00,258.25,3.75,-45.88,1.88,-1.88,1.81,5.36,1.18
24.00,2.00,358.50,-13.50,6.50,5.31,-7.75,3.62,5.36,1.18
24.00,0.00,262.50,6.69,-113.94,26.56,-1.88,17.88,5.84,1.20
24.00,1.00,258.19,3.81,-45.88,1.69,-1.62,1.50,5.84,1.20
24.00,2.00,358.44,-13.38,6.38,5.44,-7.31,3.88,5.84,1.20
24.00,0.00,262.06,7.00,-114.44,26.19,-0.81,18.50,6.31,1.22
24.00,1.00,258.19,3.88,-45.94,1.38,-1.50,1.75,6.31,1.22
24.00,2.00,358.38,-13.25,6.25,5.38,-7.31,3.88,6.31,1.22
24.00,0.00,261.62,7.31,-114.94,25.31,-1.94,18.00,6.77,1.24
24.00,1.00,258.12,3.94,-45.94,1.75,-0.94,2.38,6.77,1.24
24.00,2.00,358.25,-13.12,6.12,5.25,-7.44,4.75,6.77,1.24
24.00,0.00,261.31,7.56,-115.44,24.06,-2.88,16.88,7.21,1.26
24.00,1.00,258.06,4.00,-45.94,1.69,-0.31,2.69,7.21,1.26
24.00,2.00,358.25,-13.06,6.06,4.56,-7.19,5.69,7.21,1.26
24.00,0.00,261.00,7.81,-115.88,22.06,-4.31,15.44,7.61,1.28
24.00,1.00,258.00,4.06,-45.94,1.69,-0.12,2.75,7.61,1.28
24.00,2.00,358.06,-12.88,5.88,4.38,-6.38,6.12,7.61,1.28
24.00,0.00,260.81,8.00,-116.31,19.69,-6.00,13.69,7.96,1.30
24.00,1.00,257.94,4.06,-46.00,1.50,0.62,2.44,7.96,1.30
24.00,2.00,357.94,-12.75,5.75,4.44,-5.62,6.62,7.96,1.30
24.00,0.00,260.69,8.19,-116.75,18.88,-6.00,13.38,8.29,1.32
24.00,1.00,257.88,4.12,-46.00,1.12,1.12,2.81,8.29,1.32
24.00,2.00,357.81,-12.69,5.62,4.38,-4.69,7.06,8.29,1.32
24.00,0.00,260.44,8.38,-117.12,18.44,-4.56,13.88,8.63,1.34
24.00,1.00,257.81,4.12,-46.00,0.88,1.69,3.25,8.63,1.34
24.00,2.00,357.69,-12.62,5.50,3.62,-4.69,7.31,8.63,1.34
24.00,0.00,260.19,8.56,-117.50,16.81,-2.75,13.62,8.93,1.36
24.00,1.00,257.75,4.19,-46.00,0.62,2.06,3.56,8.93,1.36
24.00,2.00,357.56,-12.56,5.44,3.50,-4.69,8.06,8.93,1.36
24.00,0.00,259.88,8.81,-117.75,14.00,-0.56,12.00,9.18,1.38
24.00,1.00,257.62,4.19,-46.00,0.38,2.19,4.25,9.18,1.38
24.00,2.00,357.38,-12.44,5.31,3.12,-4.31,8.56,9.18,1.38
24.00,0.00,259.56,9.00,-118.06,14.31,-0.06,12.88,9.43,1.40
24.00,1.00,257.50,4.25,-46.00,0.00,2.81,4.19,9.43,1.40
24.00,2.00,357.19,-12.38,5.19,3.00,-5.00,9.75,9.43,1.40
24.00,0.00,259.19,9.25,-118.31,13.69,0.81,14.06,9.69,1.42
24.00,1.00,257.38,4.31,-46.00,0.12,2.69,4.44,9.69,1.42
24.00,2.00,357.06,-12.38,5.12,2.31,-6.12,9.56,9.69,1.42
24.00,0.00,258.81,9.50,-118.56,11.62,1.31,12.38,9.85,1.44
24.00,1.00,257.31,4.31,-45.94,-0.06,2.31,4.06,9.85,1.44
24.00,2.00,356.81,-12.19,5.00,4.56,-5.12,9.56,9.85,1.44
24.00,0.00,258.50,9.69,-118.75,9.12,2.00,9.88,9.94,1.46
24.00,1.00,257.19,4.38,-45.94,0.31,1.56,3.62,9.94,1.46
24.00,2.00,356.69,-12.19,4.94,5.25,-4.56,8.81,9.94,1.46
24.00,0.00,258.12,9.94,-118.94,7.50,4.06,9.50,10.01,1.48
24.00,1.00,257.12,4.38,-45.94,0.00,1.44,3.75,10.01,1.48
24.00,2.00,356.50,-12.06,4.75,4.31,-5.19,8.19,10.01,1.48
24.00,0.00,257.75,10.12,-119.06,7.94,3.19,10.44,10.12,1.50
24.00,1.00,257.00,4.44,-45.94,0.19,1.88,3.88,10.12,1.50
24.00,2.00,356.31,-11.94,4.62,3.12,-4.75,8.12,10.12,1.50
24.00,0.00,257.44,10.31,-119.25,8.88,1.06,11.62,10.28,1.52
24.00,1.00,256.94,4.44,-45.94,-0.88,1.38,3.75,10.28,1.52
24.00,2.00,356.25,-11.94,4.56,2.12,-4.88,7.56,10.28,1.52
24.00,0.00,257.19,10.50,-119.44,7.31,0.38,10.88,10.40,1.54
24.00,1.00,256.88,4.50,-45.88,-1.00,1.50,3.44,10.40,1.54
24.00,2.00,356.06,-11.81,4.50,2.00,-4.19,7.06,10.40,1.54
24.00,0.00,257.00,10.62,-119.56,6.12,-2.00,9.19,10.50,1.56
24.00,1.00,256.75,4.50,-45.88,-1.69,1.69,3.06,10.50,1.56
24.00,2.00,355.94,-11.75,4.44,1.81,-2.75,6.56,10.50,1.56
24.00,0.00,256.94,10.75,-119.75,6.50,-4.62,8.19,10.61,1.58
24.00,1.00,256.69,4.56,-45.81,-1.75,2.12,2.81,10.61,1.58
24.00,2.00,355.81,-11.75,4.38,1.62,-2.31,6.25,10.61,1.58
24.00,0.00,257.00,10.81,-119.88,7.25,-7.88,7.94,10.75,1.60
24.00,1.00,256.62,4.56,-45.75,-2.19,2.50,2.81,10.75,1.60
24.00,2.00,355.69,-11.69,4.31,0.81,-1.62,5.69,10.75,1.60
24.00,0.00,257.12,10.81,-120.06,6.69,-9.69,6.69,10.90,1.62
24.00,1.00,256.56,4.56,-45.69,-2.50,2.81,2.88,10.90,1.62
24.00,2.00,355.62,-11.69,4.31,0.25,-1.69,5.56,10.90,1.62
24.00,0.00,257.31,10.81,-120.25,5.94,-11.44,5.31,11.04,1.64
24.00,1.00,256.44,4.56,-45.62,-2.56,2.94,3.19,11.04,1.64
24.00,2.00,355.50,-11.69,4.25,-0.38,-1.56,5.94,11.04,1.64
24.00,0.00,257.56,10.75,-120.38,5.94,-12.19,4.31,11.20,1.66
24.00,1.00,256.38,4.62,-45.56,-2.81,3.19,2.81,11.20,1.66
24.00,2.00,355.38,-11.62,4.25,-0.94,-0.44,5.81,11.20,1.66
24.00,0.00,257.81,10.75,-120.56,5.38,-12.31,4.38,11.35,1.68
24.00,1.00,256.31,4.62,-45.50,-2.62,3.88,2.69,11.35,1.68
24.00,2.00,355.25,-11.69,4.25,-1.12,-0.31,5.94,11.35,1.68
24.00,0.00,258.00,10.69,-120.69,5.12,-10.31,4.44,11.46,1.70
24.00,1.00,256.19,4.62,-45.44,-3.19,3.88,3.00,11.46,1.70
24.00,2.00,355.12,-11.69,4.25,0.00,0.00,6.19,11.46,1.70
24.00,0.00,258.12,10.75,-120.81,4.56,-7.06,4.44,11.57,1.72
24.00,1.00,256.12,4.62,-45.38,-3.00,4.19,3.31,11.57,1.72
24.00,2.00,355.00,-11.69,4.19,-0.25,-0.12,6.88,11.57,1.72
24.00,0.00,258.06,10.81,-120.94,3.56,-3.94,4.88,11.67,1.74
24.00,1.00,256.00,4.62,-45.31,-3.12,4.62,3.56,11.67,1.74
24.00,2.00,354.88,-11.69,4.19,-0.56,-0.88,7.62,11.67,1.74
24.00,0.00,257.88,10.94,-121.00,2.44,0.75,5.56,11.73,1.76
24.00,1.00,255.88,4.62,-45.25,-3.38,4.94,4.44,11.73,1.76
24.00,2.00,354.69,-11.69,4.12,-0.25,-0.50,8.62,11.73,1.76
24.00,0.00,257.50,11.12,-121.06,1.44,5.50,6.19,11.79,1.78
24.00,1.00,255.75,4.62,-45.12,-3.31,5.50,4.94,11.79,1.78
24.00,2.00,354.50,-11.69,4.12,-1.38,-1.69,9.50,11.79,1.78
24.00,0.00,257.00,11.38,-121.06,1.00,9.81,6.25,11.86,1.80
24.00,1.00,255.62,4.62,-45.06,-3.69,5.19,5.19,11.86,1.80
24.00,2.00,354.31,-11.62,4.12,-1.88,-2.62,10.00,11.86,1.80
24.00,0.00,256.44,11.62,-121.00,0.88,13.56,6.38,11.91,1.82
24.00,1.00,255.44,4.62,-44.94,-4.00,5.19,4.81,11.91,1.82
24.00,2.00,354.12,-11.62,4.12,-1.69,-2.56,9.81,11.91,1.82
24.00,0.00,255.75,11.94,-121.00,0.81,16.19,6.50,11.95,1.84
24.00,1.00,255.31,4.62,-44.88,-3.56,5.38,4.44,11.95,1.84
24.00,2.00,353.94,-11.56,4.12,-0.75,-2.25,9.06,11.95,1.84
24.00,0.00,255.12,12.19,-120.94,1.06,16.69,5.44,12.01,1.86
24.00,1.00,255.19,4.62,-44.81,-3.69,4.88,4.94,12.01,1.86
24.00,2.00,353.75,-11.56,4.06,-1.44,-2.62,9.12,12.01,1.86
24.00,0.00,254.50,12.38,-120.88,0.62,16.31,4.44,12.08,1.88
24.00,1.00,255.06,4.62,-44.69,-3.75,4.81,4.31,12.08,1.88
24.00,2.00,353.62,-11.50,4.06,-2.62,-2.50,8.75,12.08,1.88
24.00,0.00,254.19,12.50,-120.88,0.81,15.31,3.25,12.16,1.90
24.00,1.00,255.00,4.56,-44.62,-3.94,4.56,2.94,12.16,1.90
24.00,2.00,353.44,-11.44,4.12,-2.56,-2.56,7.81,12.16,1.90
24.00,0.00,253.50,12.75,-120.81,0.88,12.94,1.69,12.23,1.92
24.00,1.00,254.88,4.56,-44.56,-3.44,4.12,2.56,12.23,1.92
24.00,2.00,353.31,-11.44,4.12,-2.19,-1.69,6.56,12.23,1.92
24.00,0.00,253.19,12.81,-120.75,0.12,10.94,0.19,12.30,1.94
24.00,1.00,254.81,4.56,-44.44,-4.06,3.81,3.12,12.30,1.94
24.00,2.00,353.19,-11.44,4.12,-2.88,-1.06,5.88,12.30,1.94
24.00,0.00,252.94,12.88,-120.69,-0.94,9.56,-0.88,12.35,1.96
24.00,1.00,254.75,4.56,-44.38,-3.75,3.81,2.44,12.35,1.96
24.00,2.00,353.06,-11.44,4.19,-3.25,-0.88,5.56,12.35,1.96
24.00,0.00,252.81,12.88,-120.56,-2.06,7.38,-2.38,12.38,1.98
24.00,1.00,254.62,4.56,-44.25,-3.88,3.75,2.38,12.38,1.98
24.00,2.00,352.94,-11.44,4.25,-3.25,0.19,5.62,12.38,1.98
24.00,0.00,252.75,12.88,-120.50,-2.69,5.44,-2.94,12.41,2.00
24.00,1.00,254.56,4.50,-44.19,-4.94,3.81,2.19,12.41,2.00
24.00,2.00,352.81,-11.44,4.31,-4.19,0.56,5.38,12.41,2.00
24.00,0.00,252.69,12.88,-120.38,-2.81,4.31,-3.25,12.45,2.02
24.00,1.00,254.50,4.50,-44.06,-4.62,4.31,1.88,12.45,2.02
24.00,2.00,352.75,-11.44,4.38,-4.81,0.81,4.62,12.45,2.02
24.00,0.00,252.62,12.88,-120.31,-3.50,3.25,-3.62,12.47,2.04
24.00,1.00,254.44,4.44,-44.00,-4.81,4.38,1.75,12.47,2.04
24.00,2.00,352.62,-11.50,4.44,-4.25,2.25,4.19,12.47,2.04
24.00,0.00,252.62,12.81,-120.25,-4.38,3.31,-3.69,12.49,2.06
24.00,1.00,254.38,4.44,-43.88,-5.31,5.00,1.88,12.49,2.06
24.00,2.00,352.56,-11.56,4.50,-5.06,2.62,4.31,12.49,2.06
24.00,0.00,252.62,12.81,-120.12,-5.12,4.25,-2.94,12.52,2.08
24.00,1.00,254.31,4.38,-43.75,-5.19,5.31,1.88,12.52,2.08
24.00,2.00,352.44,-11.56,4.62,-6.38,2.00,4.56,12.52,2.08
24.00,0.00,252.56,12.81,-120.00,-4.62,4.88,-2.31,12.56,2.10
24.00,1.00,254.19,4.31,-43.62,-5.56,5.12,1.94,12.56,2.10
24.00,2.00,352.38,-11.62,4.75,-6.56,1.31,4.19,12.56,2.10
24.00,0.00,252.50,12.81,-119.94,-4.31,5.44,-1.88,12.61,2.12
24.00,1.00,254.12,4.31,-43.50,-5.25,5.00,1.88,12.61,2.12
24.00,2.00,352.25,-11.62,4.88,-6.56,0.75,3.56,12.61,2.12
24.00,0.00,252.38,12.88,-119.81,-4.31,6.00,-1.38,12.66,2.14
24.00,1.00,254.06,4.25,-43.38,-5.50,4.75,1.44,12.66,2.14
24.00,2.00,352.19,-11.69,4.94,-6.50,1.25,3.31,12.66,2.14
24.00,0.00,252.25,12.94,-119.69,-3.69,5.12,-0.88,12.72,2.16
24.00,1.00,254.00,4.19,-43.25,-5.19,4.50,0.69,12.72,2.16
24.00,2.00,352.12,-11.75,5.06,-6.38,2.25,2.50,12.72,2.16
24.00,0.00,252.12,12.94,-119.62,-2.19,3.81,-0.38,12.83,2.18
24.00,1.00,254.00,4.19,-43.12,-5.44,4.88,0.56,12.83,2.18
24.00,2.00,352.06,-11.75,5.19,-7.00,2.12,2.25,12.83,2.18
24.00,0.00,252.00,13.00,-119.56,-1.00,3.19,-0.19,12.95,2.20
24.00,1.00,253.94,4.12,-43.00,-4.75,4.50,-0.06,12.95,2.20
24.00,2.00,352.00,-11.81,5.31,-6.06,1.69,2.00,12.95,2.20
24.00,0.00,251.94,13.00,-119.56,0.56,0.25,-0.19,13.08,2.22
24.00,1.00,253.88,4.06,-42.88,-4.44,3.88,0.12,13.08,2.22
24.00,2.00,352.00,-11.88,5.50,-5.50,2.31,1.06,13.08,2.22
24.00,0.00,252.00,13.00,-119.56,1.50,-1.69,0.00,13.24,2.24
24.00,1.00,253.88,4.00,-42.81,-4.19,3.50,-0.38,13.24,2.24
24.00,2.00,351.94,-11.88,5.62,-5.31,2.06,0.94,13.24,2.24
24.00,0.00,252.06,12.94,-119.62,2.00,-2.62,0.06,13.39,2.26
24.00,1.00,253.88,3.94,-42.69,-3.88,3.00,-0.81,13.39,2.26
24.00,2.00,351.94,-11.94,5.75,-4.56,1.81,0.31,13.39,2.26
24.00,0.00,252.12,12.94,-119.69,3.88,-5.75,0.12,13.56,2.28
24.00,1.00,253.88,3.94,-42.56,-3.62,2.25,-0.94,13.56,2.28
24.00,2.00,351.94,-11.94,5.81,-3.62,2.31,-0.25,13.56,2.28
24.00,0.00,252.31,12.88,-119.81,4.38,-7.25,0.25,13.76,2.30
24.00,1.00,253.88,3.88,-42.50,-4.38,1.75,-1.31,13.76,2.30
24.00,2.00,351.94,-12.00,5.94,-4.50,1.94,-0.56,13.76,2.30
24.00,0.00,252.56,12.75,-119.94,5.94,-10.38,0.88,13.99,2.32
24.00,1.00,253.88,3.81,-42.38,-3.88,1.62,-1.81,13.99,2.32
24.00,2.00,351.94,-12.00,6.06,-4.19,1.44,-1.12,13.99,2.32
24.00,0.00,252.88,12.69,-120.06,7.50,-13.25,0.81,14.24,2.34
24.00,1.00,253.94,3.81,-42.25,-3.50,1.38,-1.88,14.24,2.34
24.00,2.00,351.94,-12.06,6.19,-3.69,1.94,-1.50,14.24,2.34
24.00,0.00,253.25,12.50,-120.31,9.00,-15.44,1.00,14.53,2.36
24.00,1.00,253.94,3.75,-42.19,-2.81,1.44,-1.88,14.53,2.36
24.00,2.00,352.00,-12.06,6.25,-3.56,2.38,-2.19,14.53,2.36
24.00,0.00,253.75,12.38,-120.56,10.81,-18.06,1.62,14.86,2.38
24.00,1.00,253.94,3.75,-42.12,-2.31,1.19,-2.06,14.86,2.38
24.00,2.00,352.06,-12.12,6.38,-3.75,2.31,-2.56,14.86,2.38
24.00,0.00,254.25,12.19,-120.81,10.50,-19.62,0.12,15.19,2.40
24.00,1.00,254.00,3.69,-42.06,-2.69,0.88,-1.94,15.19,2.40
24.00,2.00,352.12,-12.12,6.50,-3.88,1.62,-3.19,15.19,2.40
24.00,0.00,254.94,11.94,-121.12,11.62,-22.31,-1.75,15.48,2.42
24.00,1.00,254.06,3.69,-42.00,-1.38,0.12,-3.19,15.48,2.42
24.00,2.00,352.19,-12.12,6.62,-1.31,1.81,-3.38,15.48,2.42
24.00,0.00,255.62,11.69,-121.44,15.31,-23.94,-1.00,15.84,2.44
24.00,1.00,254.12,3.62,-41.94,-1.00,-0.69,-3.75,15.84,2.44
24.00,2.00,352.25,-12.19,6.69,-0.62,2.25,-3.88,15.84,2.44
24.00,0.00,256.31,11.44,-121.81,16.12,-24.94,-0.69,16.23,2.46
24.00,1.00,254.19,3.62,-41.94,-0.75,-0.75,-3.94,16.23,2.46
24.00,2.00,352.31,-12.19,6.69,-0.88,1.69,-4.19,16.23,2.46
24.00,0.00,257.00,11.19,-122.25,16.44,-24.69,-1.19,16.64,2.48
24.00,1.00,254.25,3.56,-41.88,-0.38,-0.75,-3.56,16.64,2.48
24.00,2.00,352.38,-12.25,6.75,-1.50,1.31,-3.94,16.64,2.48
24.00,0.00,257.69,10.94,-122.69,19.62,-24.25,-0.50,17.12,2.50
24.00,1.00,254.31,3.56,-41.88,0.06,-0.50,-3.44,17.12,2.50
24.00,2.00,352.44,-12.25,6.81,-1.38,0.69,-3.56,17.12,2.50
24.00,0.00,258.31,10.69,-123.19,23.12,-24.62,0.56,17.68,2.52
24.00,1.00,254.38,3.50,-41.88,-0.25,-0.31,-3.31,17.68,2.52
24.00,2.00,352.56,-12.25,6.81,-1.50,1.75,-3.69,17.68,2.52
24.00,0.00,259.00,10.38,-123.69,23.62,-25.44,-0.31,18.24,2.54
24.00,1.00,254.44,3.50,-41.88,0.38,-0.88,-3.06,18.24,2.54
24.00,2.00,352.62,-12.25,6.88,-1.38,1.31,-3.56,18.24,2.54
24.00,0.00,259.81,10.06,-124.25,24.00,-26.12,-2.50,18.80,2.56
24.00,1.00,254.50,3.44,-41.88,0.69,-1.50,-2.94,18.80,2.56
24.00,2.00,352.69,-12.25,6.94,-0.31,1.50,-3.44,18.80,2.56
24.00,0.00,260.56,9.75,-124.81,26.00,-25.69,-1.69,19.38,2.58
24.00,1.00,254.62,3.44,-41.88,0.94,-1.50,-3.00,19.38,2.58
24.00,2.00,352.75,-12.31,6.94,0.25,1.38,-2.94,19.38,2.58
24.00,0.00,261.31,9.50,-125.38,26.62,-25.81,-0.81,19.98,2.60
24.00,1.00,254.69,3.44,-41.88,1.06,-1.19,-2.81,19.98,2.60
24.00,2.00,352.81,-12.31,6.94,0.38,1.88,-2.94,19.98,2.60
24.00,0.00,262.06,9.19,-125.94,25.75,-25.19,-1.00,20.56,2.62
24.00,1.00,254.69,3.44,-41.94,1.62,-0.75,-1.31,20.56,2.62
24.00,2.00,352.81,-12.31,6.94,0.06,0.31,-1.06,20.56,2.62
24.00,0.00,262.69,8.88,-126.50,25.25,-22.94,-1.00,21.13,2.64
24.00,1.00,254.75,3.44,-41.94,1.81,-0.62,-0.81,21.13,2.64
24.00,2.00,352.88,-12.31,6.94,0.44,-0.25,-0.12,21.13,2.64
24.00,0.00,263.31,8.62,-127.06,25.12,-21.75,-0.69,21.68,2.66
24.00,1.00,254.75,3.44,-41.94,2.19,-0.31,-0.88,21.68,2.66
24.00,2.00,352.88,-12.31,6.94,0.94,-0.12,0.50,21.68,2.66
24.00,0.00,263.94,8.44,-127.62,25.50,-21.62,0.50,22.21,2.68
24.00,1.00,254.75,3.44,-42.00,2.06,-0.38,-0.69,22.21,2.68
24.00,2.00,352.81,-12.31,6.88,2.12,-0.62,1.06,22.21,2.68
24.00,0.00,264.44,8.19,-128.12,23.69,-19.00,1.38,22.70,2.70
24.00,1.00,254.75,3.44,-42.00,2.12,0.38,-0.19,22.70,2.70
24.00,2.00,352.81,-12.31,6.88,2.00,-1.44,1.44,22.70,2.70
24.00,0.00,264.94,8.06,-128.62,22.25,-17.94,1.12,23.17,2.72
24.00,1.00,254.75,3.44,-42.06,1.94,0.50,0.25,23.17,2.72
24.00,2.00,352.81,-12.31,6.81,1.50,-1.12,1.75,23.17,2.72
24.00,0.00,265.44,7.88,-129.12,22.31,-17.12,0.25,23.65,2.74
24.00,1.00,254.75,3.44,-42.12,1.88,-0.12,0.00,23.65,2.74
24.00,2.00,352.75,-12.25,6.75,1.50,-1.69,1.56,23.65,2.74
24.00,0.00,265.81,7.69,-129.56,20.25,-14.56,0.81,24.06,2.76
24.00,1.00,254.75,3.44,-42.12,2.19,0.06,-0.19,24.06,2.76
24.00,2.00,352.69,-12.25,6.75,2.19,-1.38,2.06,24.06,2.76
24.00,0.00,266.12,7.56,-130.00,20.19,-12.75,1.75,24.47,2.78
24.00,1.00,254.75,3.44,-42.19,1.62,0.19,0.31,24.47,2.78
24.00,2.00,352.69,-12.25,6.69,2.00,-1.25,1.62,24.47,2.78
24.00,0.00,266.31,7.50,-130.38,18.94,-11.44,3.06,24.85,2.80
24.00,1.00,254.75,3.44,-42.19,1.69,0.56,0.50,24.85,2.80
24.00,2.00,352.69,-12.19,6.62,2.12,-1.19,1.25,24.85,2.80
24.00,0.00,266.31,7.56,-130.69,17.88,-7.12,4.19,25.22,2.82
24.00,1.00,254.75,3.44,-42.25,1.75,0.69,0.75,25.22,2.82
24.00,2.00,352.62,-12.19,6.56,1.50,-1.75,1.19,25.22,2.82
24.00,0.00,266.31,7.56,-131.06,16.75,-5.56,3.19,25.58,2.84
24.00,1.00,254.69,3.44,-42.25,1.12,-0.19,-0.12,25.58,2.84
24.00,2.00,352.62,-12.12,6.56,0.94,-1.62,0.38,25.58,2.84
24.00,0.00,266.38,7.50,-131.38,16.50,-5.38,2.50,25.92,2.86
24.00,1.00,254.75,3.44,-42.31,1.50,-1.75,-1.00,25.92,2.86
24.00,2.00,352.62,-12.12,6.56,1.62,-1.62,-0.50,25.92,2.86
24.00,0.00,266.38,7.50,-131.69,15.50,-3.94,2.62,26.20,2.88
24.00,1.00,254.75,3.50,-42.31,1.81,-2.19,-1.31,26.20,2.88
24.00,2.00,352.69,-12.06,6.50,3.25,-1.00,-1.06,26.20,2.88
24.00,0.00,266.31,7.50,-132.00,14.81,-3.50,4.31,26.45,2.90
24.00,1.00,254.81,3.50,-42.38,1.56,-1.69,-1.06,26.45,2.90
24.00,2.00,352.69,-12.06,6.44,3.75,-1.00,-1.62,26.45,2.90
24.00,0.00,266.25,7.56,-132.25,10.94,-1.50,3.31,26.65,2.92
24.00,1.00,254.81,3.50,-42.38,0.50,-1.19,-0.44,26.65,2.92
24.00,2.00,352.75,-12.06,6.38,2.19,-0.94,-1.62,26.65,2.92
24.00,0.00,266.19,7.56,-132.44,11.19,-2.44,2.50,26.90,2.94
24.00,1.00,254.81,3.50,-42.38,0.62,-1.94,-0.88,26.90,2.94
24.00,2.00,352.75,-12.00,6.38,0.12,-2.50,-1.12,26.90,2.94
24.00,0.00,266.12,7.56,-132.69,11.88,-2.44,0.75,27.16,2.96
24.00,1.00,254.88,3.56,-42.44,0.69,-2.50,-1.44,27.16,2.96
24.00,2.00,352.75,-11.94,6.38,0.75,-2.38,-1.25,27.16,2.96
24.00,0.00,266.19,7.50,-132.94,12.12,-3.56,1.44,27.39,2.98
24.00,1.00,254.94,3.56,-42.44,0.44,-2.06,-1.25,27.39,2.98
24.00,2.00,352.81,-11.94,6.38,1.69,-1.50,-2.31,27.39,2.98
24.00,0.00,266.19,7.50,-133.19,9.56,-2.62,1.06,27.59,3.00
24.00,1.00,254.94,3.56,-42.44,0.50,-2.25,-0.75,27.59,3.00
24.00,2.00,352.88,-11.88,6.31,0.81,-1.25,-1.81,27.59,3.00
24.00,0.00,266.25,7.44,-133.44,10.00,-3.88,0.44,27.81,3.02
24.00,1.00,255.00,3.62,-42.44,0.62,-1.75,-0.62,27.81,3.02
24.00,2.00,352.88,-11.88,6.31,0.31,-1.31,-0.94,27.81,3.02
24.00,0.00,266.38,7.44,-133.69,10.38,-5.31,1.81,28.05,3.04
24.00,1.00,255.00,3.62,-42.44,0.19,-1.25,0.31,28.05,3.04
24.00,2.00,352.88,-11.81,6.31,-0.19,-1.56,-0.25,28.05,3.04
24.00,0.00,266.44,7.38,-133.88,7.25,-4.19,1.31,28.22,3.06
24.00,1.00,255.00,3.62,-42.44,1.00,-1.12,0.19,28.22,3.06
24.00,2.00,352.88,-11.75,6.38,-0.19,-2.50,0.44,28.22,3.06
24.00,0.00,266.50,7.38,-134.06,5.38,-4.19,-0.19,28.33,3.08
24.00,1.00,255.00,3.69,-42.44,1.25,-1.25,0.06,28.33,3.08
24.00,2.00,352.88,-11.75,6.31,0.56,-2.12,0.75,28.33,3.08
24.00,0.00,266.69,7.31,-134.19,2.00,-4.38,-1.00,28.36,3.10
24.00,1.00,255.00,3.69,-42.50,0.69,-0.69,0.44,28.36,3.10
24.00,2.00,352.81,-11.69,6.31,0.75,-1.06,0.88,28.36,3.10
24.00,0.00,266.81,7.25,-134.25,1.50,-5.06,0.75,28.39,3.12
24.00,1.00,255.00,3.69,-42.50,0.19,-0.19,1.06,28.39,3.12
24.00,2.00,352.81,-11.69,6.31,0.00,-1.38,1.44,28.39,3.12
24.00,0.00,266.81,7.25,-134.25,-2.56,-1.69,0.81,28.35,3.14
24.00,1.00,254.94,3.75,-42.50,-0.06,0.12,1.38,28.35,3.14
24.00,2.00,352.75,-11.62,6.31,-0.88,-1.69,2.25,28.35,3.14
24.00,0.00,266.81,7.25,-134.19,-4.94,-1.00,0.00,28.27,3.16
24.00,1.00,254.94,3.75,-42.50,-0.25,0.75,1.81,28.27,3.16
24.00,2.00,352.69,-11.62,6.31,-1.31,-1.38,2.31,28.27,3.16
24.00,0.00,266.81,7.31,-134.12,-4.75,-1.06,1.81,28.19,3.18
24.00,1.00,254.88,3.81,-42.50,-0.81,1.25,1.88,28.19,3.18
24.00,2.00,352.69,-11.62,6.31,-0.94,-0.94,1.81,28.19,3.18
24.00,0.00,266.69,7.38,-134.06,-5.31,-0.44,3.69,28.09,3.20
24.00,1.00,254.81,3.81,-42.44,-0.81,0.81,1.69,28.09,3.20
24.00,2.00,352.62,-11.56,6.31,-1.06,-1.12,2.12,28.09,3.20
24.00,0.00,266.62,7.44,-133.94,-7.81,0.69,3.00,27.92,3.22
24.00,1.00,254.75,3.81,-42.44,-0.75,0.25,1.50,27.92,3.22
24.00,2.00,352.56,-11.56,6.31,-0.56,-0.94,2.06,27.92,3.22
24.00,0.00,266.62,7.50,-133.69,-11.06,2.50,1.81,27.67,3.24
24.00,1.00,254.75,3.88,-42.44,-0.69,0.56,2.00,27.67,3.24
24.00,2.00,352.56,-11.56,6.31,0.19,-1.31,1.81,27.67,3.24
24.00,0.00,266.50,7.56,-133.44,-15.25,5.38,0.94,27.31,3.26
24.00,1.00,254.69,3.88,-42.44,-1.19,0.06,1.81,27.31,3.26
24.00,2.00,352.50,-11.50,6.31,0.38,-3.19,2.19,27.31,3.26
24.00,0.00,266.25,7.75,-133.06,-20.00,11.00,1.06,26.84,3.28
24.00,1.00,254.69,3.94,-42.38,-1.06,-0.38,1.44,26.84,3.28
24.00,2.00,352.44,-11.44,6.25,0.88,-2.81,1.75,26.84,3.28
24.00,0.00,265.69,8.00,-132.56,-24.25,18.56,1.62,26.24,3.30
24.00,1.00,254.62,3.94,-42.38,-1.19,0.44,1.62,26.24,3.30
24.00,2.00,352.44,-11.44,6.19,2.00,-0.94,1.00,26.24,3.30
24.00,0.00,264.81,8.31,-132.00,-28.56,27.50,1.75,25.58,3.32
24.00,1.00,254.56,4.00,-42.38,-1.75,1.12,2.56,25.58,3.32
24.00,2.00,352.44,-11.44,6.19,0.50,-0.81,1.31,25.58,3.32
24.00,0.00,263.62,8.75,-131.31,-31.38,35.00,1.94,24.89,3.34
24.00,1.00,254.50,4.00,-42.38,-2.62,1.06,2.25,24.89,3.34
24.00,2.00,352.38,-11.38,6.19,-0.94,-0.69,1.81,24.89,3.34
24.00,0.00,261.94,9.38,-130.56,-35.75,42.12,2.62,24.11,3.36
24.00,1.00,254.44,4.06,-42.31,-3.31,1.31,2.31,24.11,3.36
24.00,2.00,352.31,-11.38,6.12,-1.31,2.25,2.38,24.11,3.36
24.00,0.00,260.38,10.00,-129.69,-40.06,46.88,3.62,23.25,3.38
24.00,1.00,254.38,4.06,-42.31,-4.56,3.00,2.75,23.25,3.38
24.00,2.00,352.25,-11.44,6.06,-2.25,3.25,2.75,23.25,3.38
24.00,0.00,258.75,10.69,-128.75,-44.94,50.00,3.69,22.34,3.40
24.00,1.00,254.25,4.12,-42.25,-6.12,5.12,3.69,22.34,3.40
24.00,2.00,352.19,-11.50,6.00,-5.12,3.69,2.69,22.34,3.40
24.00,0.00,257.19,11.25,-127.62,-50.19,49.25,0.12,21.39,3.42
24.00,1.00,254.12,4.12,-42.12,-7.94,6.69,4.25,21.39,3.42
24.00,2.00,352.12,-11.50,6.06,-8.19,3.44,2.00,21.39,3.42
24.00,0.00,256.00,11.75,-126.56,-48.19,44.38,-2.75,20.52,3.44
24.00,1.00,254.00,4.12,-42.00,-9.31,7.25,4.00,20.52,3.44
24.00,2.00,352.12,-11.56,6.25,-9.94,3.62,1.75,20.52,3.44
24.00,0.00,254.94,12.19,-125.56,-43.38,35.62,-2.12,19.79,3.46
24.00,1.00,253.88,4.12,-41.81,-10.00,6.56,3.12,19.79,3.46
24.00,2.00,352.06,-11.69,6.44,-11.44,3.12,2.00,19.79,3.46
24.00,0.00,254.31,12.50,-124.62,-43.81,29.94,-1.19,19.07,3.48
24.00,1.00,253.75,4.06,-41.69,-10.81,6.81,2.19,19.07,3.48
24.00,2.00,352.00,-11.75,6.62,-11.94,5.56,1.69,19.07,3.48
24.00,0.00,253.81,12.75,-123.62,-44.88,26.31,-3.38,18.36,3.50
24.00,1.00,253.62,4.06,-41.50,-12.38,8.62,2.12,18.36,3.50
24.00,2.00,351.94,-11.81,6.75,-13.56,7.88,0.88,18.36,3.50
24.00,0.00,253.38,12.88,-122.69,-43.38,19.50,-5.62,17.73,3.52
24.00,1.00,253.56,4.00,-41.31,-14.19,9.69,2.12,17.73,3.52
24.00,2.00,351.88,-12.00,7.00,-15.75,9.19,0.81,17.73,3.52
24.00,0.00,253.44,12.88,-121.88,-41.19,14.19,-7.81,17.21,3.54
24.00,1.00,253.44,3.88,-41.00,-14.44,10.00,1.69,17.21,3.54
24.00,2.00,351.88,-12.12,7.31,-18.56,7.50,1.19,17.21,3.54
24.00,0.00,253.81,12.69,-121.25,-37.12,7.38,-9.62,16.77,3.56
24.00,1.00,253.38,3.75,-40.75,-15.31,9.50,-0.44,16.77,3.56
24.00,2.00,351.81,-12.31,7.69,-17.62,8.38,-0.12,16.77,3.56
24.00,0.00,254.19,12.56,-120.56,-34.31,2.50,-10.81,16.38,3.58
24.00,1.00,253.31,3.62,-40.44,-15.94,9.19,-1.06,16.38,3.58
24.00,2.00,351.81,-12.44,8.00,-17.12,9.88,-0.38,16.38,3.58
24.00,0.00,254.69,12.38,-119.94,-32.19,-0.62,-11.38,16.04,3.60
24.00,1.00,253.31,3.50,-40.12,-17.00,8.75,-1.81,16.04,3.60
24.00,2.00,351.75,-12.62,8.38,-17.19,9.69,-0.81,16.04,3.60
24.00,0.00,254.88,12.25,-119.62,-31.81,0.12,-11.69,15.71,3.62
24.00,1.00,253.25,3.38,-39.81,-17.00,8.38,-1.81,15.71,3.62
24.00,2.00,351.75,-12.81,8.69,-17.19,10.00,-1.12,15.71,3.62
24.00,0.00,255.50,11.94,-118.69,-30.62,2.69,-11.69,15.41,3.64
24.00,1.00,253.25,3.25,-39.50,-17.19,8.62,-1.50,15.41,3.64
24.00,2.00,351.75,-13.00,9.00,-17.44,8.75,-0.75,15.41,3.64
24.00,0.00,255.69,11.88,-118.38,-28.25,6.25,-10.50,15.19,3.66
24.00,1.00,253.25,3.06,-39.19,-17.50,8.81,-1.69,15.19,3.66
24.00,2.00,351.75,-13.19,9.38,-18.56,6.94,0.62,15.19,3.66
24.00,0.00,255.62,11.81,-117.81,-26.81,10.12,-8.94,15.01,3.68
24.00,1.00,253.19,2.94,-38.81,-18.00,9.12,-1.56,15.01,3.68
24.00,2.00,351.69,-13.25,9.75,-19.19,6.00,1.44,15.01,3.68
24.00,0.00,255.50,11.88,-117.38,-25.88,13.38,-6.88,14.81,3.70
24.00,1.00,253.19,2.75,-38.44,-18.44,9.19,-1.88,14.81,3.70
24.00,2.00,351.62,-13.38,10.06,-17.12,6.06,2.00,14.81,3.70
24.00,0.00,255.31,11.94,-116.81,-25.12,16.50,-4.94,14.62,3.72
24.00,1.00,253.19,2.62,-38.06,-18.50,8.94,-0.81,14.62,3.72
24.00,2.00,351.56,-13.50,10.44,-16.81,5.69,2.31,14.62,3.72
24.00,0.00,255.06,12.00,-116.25,-24.00,18.81,-4.06,14.48,3.74
24.00,1.00,253.12,2.50,-37.69,-18.75,9.75,-0.50,14.48,3.74
24.00,2.00,351.44,-13.62,10.75,-17.50,4.44,3.56,14.48,3.74
24.00,0.00,254.75,12.06,-115.75,-23.19,19.38,-3.75,14.39,3.76
24.00,1.00,253.06,2.31,-37.31,-18.81,10.31,0.56,14.39,3.76
24.00,2.00,351.31,-13.75,11.06,-19.38,3.25,4.69,14.39,3.76
24.00,0.00,254.31,12.19,-115.25,-20.50,19.31,-3.44,14.37,3.78
24.00,1.00,253.00,2.19,-36.94,-18.75,10.62,0.88,14.37,3.78
24.00,2.00,351.19,-13.81,11.44,-19.44,2.69,5.56,14.37,3.78
24.00,0.00,253.94,12.25,-114.75,-20.31,19.31,-3.69,14.28,3.80
24.00,1.00,252.88,2.06,-36.56,-18.69,10.12,1.19,14.28,3.80
24.00,2.00,351.00,-13.88,11.75,-16.44,3.62,5.62,14.28,3.80
24.00,0.00,253.56,12.38,-114.25,-21.31,20.12,-4.19,14.15,3.82
24.00,1.00,252.81,1.88,-36.19,-18.56,10.38,1.25,14.15,3.82
24.00,2.00,350.88,-13.94,12.06,-15.56,4.56,5.69,14.15,3.82
24.00,0.00,253.25,12.44,-113.75,-21.50,20.31,-6.56,14.03,3.84
24.00,1.00,252.75,1.75,-35.75,-17.88,10.62,1.62,14.03,3.84
24.00,2.00,350.75,-14.06,12.38,-16.31,3.44,7.00,14.03,3.84
24.00,0.00,252.94,12.44,-113.25,-20.12,19.31,-5.81,13.95,3.86
24.00,1.00,252.62,1.62,-35.38,-17.12,10.12,1.81,13.95,3.86
24.00,2.00,350.50,-14.12,12.62,-16.62,1.25,8.50,13.95,3.86
24.00,0.00,252.56,12.56,-112.75,-19.94,21.69,-3.00,13.85,3.88
24.00,1.00,252.56,1.50,-35.06,-16.75,9.81,2.06,13.85,3.88
24.00,2.00,350.31,-14.19,12.94,-15.62,1.88,8.31,13.85,3.88
24.00,0.00,252.12,12.69,-112.31,-20.44,23.69,-3.25,13.72,3.90
24.00,1.00,252.44,1.38,-34.69,-16.62,9.94,2.06,13.72,3.90
24.00,2.00,350.19,-14.31,13.25,-14.50,2.31,6.81,13.72,3.90
24.00,0.00,251.69,12.75,-111.81,-19.38,23.31,-3.31,13.60,3.92
24.00,1.00,252.38,1.19,-34.38,-16.31,9.19,2.00,13.60,3.92
24.00,2.00,350.00,-14.38,13.50,-14.25,1.94,7.06,13.60,3.92
24.00,0.00,251.19,12.88,-111.38,-17.19,21.75,-2.12,13.52,3.94
24.00,1.00,252.25,1.06,-34.06,-14.69,8.88,1.75,13.52,3.94
24.00,2.00,349.81,-14.44,13.75,-13.75,1.38,7.19,13.52,3.94
24.00,0.00,250.81,13.00,-110.94,-16.69,20.88,-1.88,13.45,3.96
24.00,1.00,252.19,1.00,-33.75,-15.25,8.25,2.06,13.45,3.96
24.00,2.00,349.69,-14.50,14.00,-13.62,1.25,7.00,13.45,3.96
24.00,0.00,250.44,13.06,-110.50,-15.94,17.62,-2.19,13.40,3.98
24.00,1.00,252.12,0.88,-33.44,-14.56,7.81,0.75,13.40,3.98
24.00,2.00,349.50,-14.50,14.31,-13.69,0.94,6.00,13.40,3.98
24.00,0.00,250.19,13.12,-110.19,-14.88,15.06,-2.19,13.28,4.00
24.00,1.00,252.06,0.75,-33.12,-14.19,7.31,0.06,13.28,4.00
24.00,2.00,349.38,-14.56,14.56,-9.69,2.81,4.31,13.28,4.00
24.00,0.00,250.00,13.19,-109.81,-12.94,12.69,-2.31,13.21,4.02
24.00,1.00,252.00,0.62,-32.81,-12.94,7.69,1.00,13.21,4.02
24.00,2.00,349.31,-14.69,14.69,-9.88,2.69,4.31,13.21,4.02
24.00,0.00,249.81,13.19,-109.56,-11.81,9.12,-2.06,13.20,4.04
24.00,1.00,251.94,0.50,-32.56,-12.81,7.25,1.19,13.20,4.04
24.00,2.00,349.19,-14.75,14.94,-11.19,1.88,4.94,13.20,4.04
24.00,0.00,249.75,13.19,-109.31,-11.00,7.38,-1.12,13.21,4.06
24.00,1.00,251.88,0.38,-32.31,-11.88,7.44,1.25,13.21,4.06
24.00,2.00,349.06,-14.75,15.12,-11.56,0.56,5.25,13.21,4.06
24.00,0.00,249.62,13.25,-109.06,-11.19,6.62,-0.62,13.19,4.08
24.00,1.00,251.81,0.25,-32.00,-11.44,7.19,1.38,13.19,4.08
24.00,2.00,348.94,-14.81,15.31,-10.12,0.88,5.44,13.19,4.08
24.00,0.00,249.56,13.25,-108.81,-10.94,6.38,-0.50,13.17,4.10
24.00,1.00,251.75,0.19,-31.81,-10.75,7.25,1.56,13.17,4.10
24.00,2.00,348.81,-14.88,15.50,-10.00,0.75,5.69,13.17,4.10
24.00,0.00,249.44,13.31,-108.56,-10.62,7.00,-0.19,13.16,4.12
24.00,1.00,251.69,0.06,-31.56,-10.56,6.88,1.25,13.16,4.12
24.00,2.00,348.69,-14.94,15.69,-10.25,0.88,5.12,13.16,4.12
24.00,0.00,249.31,13.38,-108.31,-10.12,7.44,1.00,13.15,4.14
24.00,1.00,251.62,0.00,-31.38,-10.25,6.75,0.75,13.15,4.14
24.00,2.00,348.56,-14.94,15.94,-9.62,0.94,5.12,13.15,4.14
24.00,0.00,249.12,13.44,-108.12,-8.50,8.12,1.44,13.13,4.16
24.00,1.00,251.62,-0.06,-31.12,-9.00,6.88,1.06,13.13,4.16
24.00,2.00,348.44,-15.00,16.06,-7.81,1.38,4.88,13.13,4.16
24.00,0.00,248.94,13.50,-107.94,-7.62,8.38,1.69,13.14,4.18
24.00,1.00,251.56,-0.19,-30.94,-9.00,6.50,1.12,13.14,4.18
24.00,2.00,348.31,-15.06,16.19,-7.94,0.75,4.56,13.14,4.18
24.00,0.00,248.75,13.62,-107.75,-7.69,9.00,1.56,13.17,4.20
24.00,1.00,251.50,-0.25,-30.75,-8.56,6.69,1.31,13.17,4.20
24.00,2.00,348.19,-15.12,16.38,-9.12,-0.75,5.00,13.17,4.20
24.00,0.00,248.56,13.69,-107.50,-7.19,9.75,1.56,13.22,4.22
24.00,1.00,251.44,-0.38,-30.56,-9.56,5.19,1.75,13.22,4.22
24.00,2.00,348.06,-15.12,16.56,-9.38,-0.81,5.12,13.22,4.22
24.00,0.00,248.38,13.75,-107.31,-6.19,9.31,1.12,13.28,4.24
24.00,1.00,251.38,-0.44,-30.38,-8.44,5.81,0.94,13.28,4.24
24.00,2.00,347.94,-15.12,16.69,-8.75,0.12,5.12,13.28,4.24
24.00,0.00,248.25,13.75,-107.12,-5.50,7.81,0.81,13.35,4.26
24.00,1.00,251.31,-0.50,-30.12,-9.12,5.12,1.38,13.35,4.26
24.00,2.00,347.88,-15.19,16.88,-8.62,-0.12,4.69,13.35,4.26
24.00,0.00,248.19,13.75,-106.94,-5.31,6.88,-0.06,13.42,4.28
24.00,1.00,251.25,-0.62,-29.94,-7.44,5.56,0.94,13.42,4.28
24.00,2.00,347.75,-15.19,17.06,-8.62,0.19,4.62,13.42,4.28
24.00,0.00,248.19,13.69,-106.81,-4.81,4.81,-1.19,13.52,4.30
24.00,1.00,251.25,-0.69,-29.81,-8.12,5.12,0.81,13.52,4.30
24.00,2.00,347.62,-15.25,17.25,-8.88,1.81,4.00,13.52,4.30
24.00,0.00,248.31,13.62,-106.62,-4.19,1.25,-2.44,13.62,4.32
24.00,1.00,251.19,-0.75,-29.56,-7.88,5.12,-0.31,13.62,4.32
24.00,2.00,347.56,-15.31,17.50,-8.50,2.25,2.69,13.62,4.32
24.00,0.00,248.50,13.50,-106.56,-3.38,-1.06,-3.44,13.71,4.34
24.00,1.00,251.19,-0.88,-29.38,-7.12,5.06,-0.25,13.71,4.34
24.00,2.00,347.50,-15.38,17.62,-7.56,3.00,2.69,13.71,4.34
24.00,0.00,248.69,13.38,-106.44,-2.44,-3.19,-4.56,13.83,4.36
24.00,1.00,251.12,-0.94,-29.25,-6.19,5.25,0.00,13.83,4.36
24.00,2.00,347.44,-15.44,17.81,-7.81,3.56,2.75,13.83,4.36
24.00,0.00,249.06,13.25,-106.38,-1.88,-5.00,-5.19,13.97,4.38
24.00,1.00,251.12,-1.06,-29.06,-5.94,5.50,-0.81,13.97,4.38
24.00,2.00,347.44,-15.50,18.00,-7.88,3.62,2.38,13.97,4.38
24.00,0.00,249.31,13.12,-106.38,-1.19,-5.38,-5.19,14.10,4.40
24.00,1.00,251.12,-1.12,-28.94,-5.44,5.50,-1.00,14.10,4.40
24.00,2.00,347.38,-15.62,18.19,-7.12,4.31,1.75,14.10,4.40
24.00,0.00,249.62,13.00,-106.38,-0.38,-5.69,-5.62,14.25,4.42
24.00,1.00,251.12,-1.25,-28.81,-5.44,5.06,-1.62,14.25,4.42
24.00,2.00,347.31,-15.69,18.31,-6.81,4.50,1.38,14.25,4.42
24.00,0.00,249.88,12.88,-106.38,0.25,-6.00,-5.31,14.39,4.44
24.00,1.00,251.12,-1.38,-28.69,-5.25,5.50,-2.25,14.39,4.44
24.00,2.00,347.31,-15.81,18.50,-6.06,5.56,0.94,14.39,4.44
24.00,0.00,250.12,12.75,-106.38,0.06,-5.31,-4.19,14.54,4.46
24.00,1.00,251.12,-1.44,-28.56,-4.69,5.31,-2.12,14.54,4.46
24.00,2.00,347.31,-15.94,18.62,-6.19,4.94,1.12,14.54,4.46
24.00,0.00,250.38,12.62,-106.38,-0.88,-4.31,-3.62,14.67,4.48
24.00,1.00,251.12,-1.56,-28.44,-4.12,6.75,-1.69,14.67,4.48
24.00,2.00,347.25,-16.00,18.75,-6.75,4.25,1.62,14.67,4.48
24.00,0.00,250.50,12.56,-106.31,-1.94,-2.56,-3.12,14.77,4.50
24.00,1.00,251.12,-1.69,-28.31,-5.25,4.94,-0.81,14.77,4.50
24.00,2.00,347.25,-16.06,18.88,-6.50,3.81,1.88,14.77,4.50
24.00,0.00,250.62,12.56,-106.25,-2.31,-0.38,-2.38,14.86,4.52
24.00,1.00,251.12,-1.81,-28.19,-4.69,4.94,-1.12,14.86,4.52
24.00,2.00,347.19,-16.19,19.00,-6.12,3.25,1.56,14.86,4.52
24.00,0.00,250.69,12.56,-106.19,-2.19,0.94,-1.88,14.93,4.54
24.00,1.00,251.12,-1.88,-28.12,-4.81,5.25,-0.38,14.93,4.54
24.00,2.00,347.12,-16.25,19.12,-5.31,3.38,1.56,14.93,4.54
24.00,0.00,250.69,12.50,-106.12,-1.94,2.38,-1.56,15.02,4.56
24.00,1.00,251.06,-2.00,-28.00,-4.50,4.69,0.00,15.02,4.56
24.00,2.00,347.12,-16.31,19.25,-5.81,2.62,1.88,15.02,4.56
24.00,0.00,250.75,12.50,-106.00,-2.88,3.06,-1.44,15.09,4.58
24.00,1.00,251.06,-2.06,-27.88,-4.50,4.25,0.31,15.09,4.58
24.00,2.00,347.06,-16.38,19.38,-5.94,3.00,1.69,15.09,4.58
24.00,0.00,250.75,12.50,-105.94,-3.25,3.56,-1.31,15.16,4.60
24.00,1.00,251.06,-2.12,-27.81,-3.38,4.19,0.56,15.16,4.60
24.00,2.00,347.06,-16.44,19.50,-6.19,1.56,1.38,15.16,4.60
24.00,0.00,250.69,12.50,-105.81,-3.19,3.50,-1.81,15.20,4.62
24.00,1.00,251.06,-2.19,-27.69,-2.69,2.81,0.44,15.20,4.62
24.00,2.00,347.00,-16.50,19.62,-5.06,0.75,1.25,15.20,4.62
24.00,0.00,250.69,12.44,-105.75,-3.12,2.69,-2.12,15.21,4.64
24.00,1.00,251.00,-2.25,-27.62,-2.19,2.88,0.12,15.21,4.64
24.00,2.00,347.00,-16.50,19.69,-3.75,2.00,1.00,15.21,4.64
24.00,0.00,250.69,12.44,-105.69,-2.81,3.19,-1.75,15.23,4.66
24.00,1.00,251.00,-2.31,-27.56,-2.94,1.25,0.00,15.23,4.66
24.00,2.00,346.94,-16.56,19.81,-3.75,0.88,0.75,15.23,4.66
24.00,0.00,250.81,12.44,-105.62,-2.12,3.25,-2.12,15.26,4.68
24.00,1.00,251.00,-2.31,-27.56,-2.69,1.00,0.06,15.26,4.68
24.00,2.00,346.94,-16.56,19.88,-3.38,0.12,0.50,15.26,4.68
24.00,0.00,250.88,12.38,-105.62,0.50,-1.81,-1.62,15.34,4.70
24.00,1.00,251.00,-2.31,-27.44,-2.44,1.44,0.06,15.34,4.70
24.00,2.00,346.94,-16.56,19.94,-3.00,0.69,0.50,15.34,4.70
24.00,0.00,250.94,12.38,-105.62,0.81,-2.19,-0.44,15.41,4.72
24.00,1.00,251.00,-2.38,-27.38,-2.38,0.88,0.06,15.41,4.72
24.00,2.00,346.94,-16.56,20.00,-2.06,1.31,0.00,15.41,4.72
24.00,0.00,250.94,12.38,-105.69,1.25,-1.69,0.38,15.49,4.74
24.00,1.00,251.00,-2.38,-27.38,-1.75,0.81,0.31,15.49,4.74
24.00,2.00,346.94,-16.62,20.06,-2.56,0.31,0.62,15.49,4.74
24.00,0.00,251.00,12.31,-105.69,1.06,-2.31,0.50,15.57,4.76
24.00,1.00,251.00,-2.38,-27.31,-1.25,0.88,0.44,15.57,4.76
24.00,2.00,346.88,-16.62,20.12,-2.38,0.06,0.88,15.57,4.76
24.00,0.00,251.25,12.31,-105.75,0.81,-3.06,1.12,15.62,4.78
24.00,1.00,251.00,-2.38,-27.31,-0.50,1.00,0.56,15.62,4.78
24.00,2.00,346.88,-16.62,20.12,-1.44,0.56,0.94,15.62,4.78
24.00,0.00,251.25,12.38,-105.75,0.81,-2.25,2.31,15.66,4.80
24.00,1.00,251.00,-2.44,-27.31,-0.38,1.19,0.56,15.66,4.80
24.00,2.00,346.88,-16.62,20.12,-0.94,0.12,0.94,15.66,4.80
24.00,0.00,251.44,12.38,-105.75,1.19,-1.38,2.38,15.72,4.82
24.00,1.00,250.94,-2.44,-27.25,0.06,1.44,0.94,15.72,4.82
24.00,2.00,346.81,-16.62,20.19,-1.19,-0.88,0.88,15.72,4.82
24.00,0.00,251.44,12.44,-105.81,1.06,-1.19,1.81,15.76,4.84
24.00,1.00,250.94,-2.44,-27.25,0.12,1.00,1.00,15.76,4.84
24.00,2.00,346.81,-16.62,20.19,-0.62,-0.19,0.69,15.76,4.84
24.00,0.00,251.44,12.44,-105.81,0.38,-1.19,1.25,15.79,4.86
24.00,1.00,250.94,-2.44,-27.25,0.75,0.94,0.56,15.79,4.86
24.00,2.00,346.81,-16.62,20.19,-1.00,-0.88,0.31,15.79,4.86
24.00,0.00,251.50,12.44,-105.75,0.50,-0.56,1.38,15.83,4.88
24.00,1.00,250.94,-2.44,-27.25,0.81,0.19,0.38,15.83,4.88
24.00,2.00,346.81,-16.62,20.25,-1.56,-1.06,-0.19,15.83,4.88
24.00,0.00,251.50,12.44,-105.75,1.19,-0.56,0.50,15.88,4.90
24.00,1.00,250.94,-2.44,-27.25,1.00,-0.38,0.06,15.88,4.90
24.00,2.00,346.81,-16.56,20.31,-1.06,-0.75,-0.88,15.88,4.90
24.00,0.00,251.50,12.44,-105.75,1.25,-1.19,-0.69,15.91,4.92
24.00,1.00,250.94,-2.44,-27.25,1.00,-0.88,-0.38,15.91,4.92
24.00,2.00,346.81,-16.56,20.31,0.06,-0.44,-1.88,15.91,4.92
24.00,0.00,251.56,12.38,-105.69,0.94,-1.81,-1.62,15.92,4.94
24.00,1.00,250.94,-2.44,-27.25,1.75,-1.25,-0.69,15.92,4.94
24.00,2.00,346.88,-16.56,20.38,0.62,0.25,-2.12,15.92,4.94
