Iteration,IMUNo,OrientationX (deg),OrientationY,OrientationZ,GyroX (20rad/sec),GyroY,GyroZ,Elbow_Pos (rad),Time (sec)
25.00,0.00,277.19,-4.06,-96.94,1.69,3.75,3.94,-0.04,1.00
25.00,1.00,258.06,0.81,-41.25,4.44,-0.56,-1.44,-0.04,1.02
25.00,2.00,1.38,-16.81,11.25,3.56,-3.44,1.50,-0.04,1.02
25.00,0.00,277.00,-3.94,-96.94,0.94,5.56,4.50,0.00,1.02
25.00,1.00,258.12,0.75,-41.31,0.19,0.31,-1.50,0.00,1.04
25.00,2.00,1.38,-16.75,11.19,-1.12,-4.44,0.50,0.00,1.04
25.00,0.00,276.88,-3.88,-96.94,-0.50,2.81,1.44,0.11,1.04
25.00,1.00,258.12,0.75,-41.25,-2.38,1.00,-1.62,0.11,1.04
25.00,2.00,1.38,-16.69,11.31,-5.25,-0.25,-1.50,0.11,1.04
25.00,0.00,276.94,-3.88,-96.94,-1.06,-3.69,-2.62,0.21,1.06
25.00,1.00,258.12,0.69,-41.19,-5.75,3.00,-0.12,0.21,1.06
25.00,2.00,1.38,-16.69,11.38,-5.62,5.00,-2.62,0.21,1.06
25.00,0.00,277.19,-4.00,-96.94,-1.00,-7.56,-5.19,0.29,1.08
25.00,1.00,258.06,0.69,-41.06,-6.44,3.00,1.81,0.29,1.08
25.00,2.00,1.44,-16.81,11.50,-4.62,5.00,-2.19,0.29,1.08
25.00,0.00,277.44,-4.12,-96.88,-0.75,-7.25,-5.31,0.35,1.10
25.00,1.00,258.00,0.69,-40.94,-4.56,0.81,1.12,0.35,1.10
25.00,2.00,1.50,-16.88,11.56,-3.19,3.50,-1.81,0.35,1.10
25.00,0.00,277.56,-4.19,-96.88,1.50,-4.69,-2.19,0.29,1.12
25.00,1.00,258.06,0.69,-40.94,0.50,-1.69,-0.62,0.29,1.12
25.00,2.00,1.50,-16.88,11.62,4.12,0.38,-0.88,0.29,1.12
25.00,0.00,277.62,-4.19,-96.94,2.38,2.38,1.88,0.21,1.14
25.00,1.00,258.06,0.69,-41.00,5.62,-3.12,-1.75,0.21,1.14
25.00,2.00,1.56,-16.88,11.50,5.88,-0.25,-1.12,0.21,1.14
25.00,0.00,277.50,-4.12,-96.94,2.00,8.00,3.94,0.18,1.16
25.00,1.00,258.12,0.69,-41.12,6.31,-2.00,-2.12,0.18,1.16
25.00,2.00,1.56,-16.88,11.38,3.25,-3.94,0.56,0.18,1.16
25.00,0.00,277.25,-4.06,-97.00,0.88,7.06,3.44,0.22,1.18
25.00,1.00,258.19,0.69,-41.25,4.31,-0.62,-1.75,0.22,1.18
25.00,2.00,1.56,-16.81,11.31,-0.75,-2.81,1.19,0.22,1.18
25.00,0.00,277.06,-4.00,-97.00,-0.38,2.50,1.06,0.24,1.20
25.00,1.00,258.19,0.69,-41.25,0.69,1.81,-0.81,0.24,1.20
25.00,2.00,1.50,-16.75,11.38,-1.44,0.12,1.12,0.24,1.20
25.00,0.00,277.00,-4.00,-97.00,-1.50,-2.81,-2.06,0.28,1.22
25.00,1.00,258.19,0.62,-41.19,-2.81,3.62,1.50,0.28,1.22
25.00,2.00,1.50,-16.81,11.38,-3.00,3.75,-0.38,0.28,1.22
25.00,0.00,277.12,-4.06,-97.00,-1.75,-4.56,-3.06,0.30,1.24
25.00,1.00,258.12,0.62,-41.12,-3.31,2.44,1.50,0.30,1.24
25.00,2.00,1.50,-16.88,11.44,-2.75,3.06,0.12,0.30,1.24
25.00,0.00,277.31,-4.12,-96.94,0.50,-4.38,-2.19,0.27,1.26
25.00,1.00,258.06,0.62,-41.12,-0.69,0.44,0.94,0.27,1.26
25.00,2.00,1.50,-16.94,11.44,1.62,0.25,-0.31,0.27,1.26
25.00,0.00,277.44,-4.12,-96.94,2.06,-0.31,0.69,0.26,1.28
25.00,1.00,258.06,0.62,-41.12,2.12,-1.50,-0.06,0.26,1.28
25.00,2.00,1.56,-16.94,11.44,2.88,-1.44,-0.69,0.26,1.28
25.00,0.00,277.38,-4.12,-97.00,2.44,2.31,1.94,0.26,1.30
25.00,1.00,258.12,0.62,-41.19,3.25,-1.81,-1.25,0.26,1.30
25.00,2.00,1.56,-16.88,11.38,2.12,-2.56,-0.56,0.26,1.30
25.00,0.00,277.25,-4.06,-97.06,1.56,4.62,2.06,0.34,1.32
25.00,1.00,258.12,0.62,-41.25,2.44,-0.56,-1.50,0.34,1.32
25.00,2.00,1.56,-16.81,11.38,-1.69,-2.12,0.12,0.34,1.32
25.00,0.00,277.12,-4.00,-97.06,0.44,1.25,-0.31,0.39,1.34
25.00,1.00,258.19,0.62,-41.31,0.75,1.19,-0.62,0.39,1.34
25.00,2.00,1.56,-16.81,11.44,-1.88,0.31,-0.12,0.39,1.34
25.00,0.00,277.12,-4.06,-97.06,-1.12,-2.94,-2.75,0.40,1.36
25.00,1.00,258.12,0.56,-41.25,-0.62,3.00,1.12,0.40,1.36
25.00,2.00,1.56,-16.88,11.50,-1.56,3.56,-0.25,0.40,1.36
25.00,0.00,277.31,-4.12,-97.06,-1.12,-5.31,-3.06,0.37,1.38
25.00,1.00,258.12,0.56,-41.25,-0.62,1.62,1.06,0.37,1.38
25.00,2.00,1.56,-16.94,11.50,0.31,1.94,0.75,0.37,1.38
25.00,0.00,277.44,-4.19,-97.06,-0.88,-4.69,-2.44,0.30,1.40
25.00,1.00,258.06,0.56,-41.25,0.81,-0.19,0.50,0.30,1.40
25.00,2.00,1.56,-16.94,11.50,1.94,0.06,0.38,0.30,1.40
25.00,0.00,277.50,-4.19,-97.06,0.44,-1.19,-0.12,0.26,1.42
25.00,1.00,258.12,0.56,-41.31,2.19,-1.56,-0.19,0.26,1.42
25.00,2.00,1.56,-16.94,11.44,2.25,-1.31,-0.19,0.26,1.42
25.00,0.00,277.44,-4.12,-97.06,1.38,3.25,2.06,0.26,1.44
25.00,1.00,258.12,0.62,-41.31,2.69,-2.00,-0.62,0.26,1.44
25.00,2.00,1.56,-16.94,11.38,1.62,-1.50,-0.19,0.26,1.44
25.00,0.00,277.25,-4.06,-97.06,1.25,5.25,2.88,0.27,1.46
25.00,1.00,258.12,0.69,-41.38,3.19,-1.94,-0.62,0.27,1.46
25.00,2.00,1.56,-16.88,11.38,0.75,-1.75,0.69,0.27,1.46
25.00,0.00,277.06,-4.00,-97.12,0.50,4.12,2.25,0.27,1.48
25.00,1.00,258.12,0.69,-41.38,3.06,-0.88,-0.81,0.27,1.48
25.00,2.00,1.50,-16.88,11.31,0.38,-1.25,1.12,0.27,1.48
25.00,0.00,277.00,-4.00,-97.12,0.06,0.94,0.88,0.27,1.50
25.00,1.00,258.12,0.69,-41.44,2.31,0.12,-0.69,0.27,1.50
25.00,2.00,1.50,-16.81,11.31,0.31,-0.62,0.81,0.27,1.50
25.00,0.00,277.06,-4.00,-97.12,0.31,-2.75,-0.75,0.27,1.52
25.00,1.00,258.12,0.69,-41.44,0.81,1.00,-0.31,0.27,1.52
25.00,2.00,1.50,-16.81,11.31,-0.12,0.50,-0.25,0.27,1.52
25.00,0.00,277.19,-4.00,-97.12,0.44,-4.25,-1.44,0.29,1.54
25.00,1.00,258.12,0.69,-41.44,-0.44,0.81,-0.38,0.29,1.54
25.00,2.00,1.50,-16.81,11.31,-0.38,1.06,-0.75,0.29,1.54
25.00,0.00,277.31,-4.06,-97.12,0.44,-3.56,-2.19,0.34,1.56
25.00,1.00,258.12,0.69,-41.44,-1.50,0.19,-0.44,0.34,1.56
25.00,2.00,1.56,-16.88,11.38,-1.44,1.00,-1.31,0.34,1.56
25.00,0.00,277.38,-4.12,-97.12,0.38,-2.38,-2.12,0.37,1.58
25.00,1.00,258.12,0.69,-41.38,-2.12,-0.25,-0.56,0.37,1.58
25.00,2.00,1.56,-16.88,11.38,-1.19,0.56,-1.25,0.37,1.58
25.00,0.00,277.44,-4.12,-97.12,0.50,-1.19,-1.44,0.41,1.60
25.00,1.00,258.12,0.75,-41.38,-1.44,-0.38,-0.56,0.41,1.60
25.00,2.00,1.56,-16.88,11.44,-1.06,0.06,-1.06,0.41,1.60
25.00,0.00,277.44,-4.06,-97.12,0.19,-0.56,-0.44,0.41,1.62
25.00,1.00,258.12,0.75,-41.31,-0.50,-0.62,-0.38,0.41,1.62
25.00,2.00,1.56,-16.88,11.44,-0.19,-0.12,-0.19,0.41,1.62
25.00,0.00,277.38,-4.06,-97.12,-0.56,0.06,0.06,0.40,1.64
25.00,1.00,258.12,0.75,-41.31,0.44,-0.56,-0.31,0.40,1.64
25.00,2.00,1.56,-16.88,11.44,0.25,-0.19,0.31,0.40,1.64
25.00,0.00,277.38,-4.06,-97.12,-0.88,0.12,0.12,0.36,1.66
25.00,1.00,258.12,0.75,-41.31,1.12,0.06,-0.12,0.36,1.66
25.00,2.00,1.56,-16.88,11.44,0.75,-0.38,0.81,0.36,1.66
25.00,0.00,277.38,-4.06,-97.12,-0.81,0.50,0.19,0.32,1.68
25.00,1.00,258.12,0.75,-41.31,1.38,-0.06,-0.19,0.32,1.68
25.00,2.00,1.56,-16.88,11.44,0.75,-0.44,0.69,0.32,1.68
25.00,0.00,277.38,-4.06,-97.12,-1.06,0.31,0.31,0.29,1.70
25.00,1.00,258.12,0.75,-41.31,0.81,0.00,-0.12,0.29,1.70
25.00,2.00,1.56,-16.88,11.38,0.31,-0.38,0.44,0.29,1.70
25.00,0.00,277.38,-4.00,-97.06,-0.88,0.50,0.44,0.27,1.72
25.00,1.00,258.12,0.75,-41.31,0.44,0.00,-0.12,0.27,1.72
25.00,2.00,1.56,-16.88,11.38,0.19,-0.56,0.00,0.27,1.72
25.00,0.00,277.31,-4.00,-97.06,-0.69,0.31,0.56,0.26,1.74
25.00,1.00,258.12,0.81,-41.31,-0.19,-0.19,-0.06,0.26,1.74
25.00,2.00,1.56,-16.88,11.38,-0.06,-0.50,-0.19,0.26,1.74
25.00,0.00,277.31,-4.00,-97.06,-0.94,0.06,0.38,0.25,1.76
25.00,1.00,258.12,0.81,-41.31,-0.31,-0.44,0.19,0.25,1.76
25.00,2.00,1.56,-16.88,11.44,-0.50,-0.31,-0.69,0.25,1.76
25.00,0.00,277.31,-4.00,-97.06,-0.56,-0.44,0.12,0.24,1.78
25.00,1.00,258.12,0.81,-41.31,-0.94,-0.44,0.19,0.24,1.78
25.00,2.00,1.56,-16.88,11.44,-0.31,-0.50,-1.00,0.24,1.78
25.00,0.00,277.38,-4.00,-97.00,-0.75,-1.19,-0.25,0.22,1.80
25.00,1.00,258.12,0.81,-41.25,-0.88,-0.38,0.06,0.22,1.80
25.00,2.00,1.62,-16.88,11.44,0.06,-0.12,-1.06,0.22,1.80
25.00,0.00,277.38,-4.00,-97.00,-0.56,-1.56,-0.50,0.21,1.82
25.00,1.00,258.12,0.81,-41.19,-1.00,-0.12,-0.06,0.21,1.82
25.00,2.00,1.62,-16.88,11.44,-0.06,-0.56,-0.38,0.21,1.82
25.00,0.00,277.44,-4.00,-97.00,-0.81,-1.44,-0.56,0.19,1.84
25.00,1.00,258.06,0.88,-41.19,-0.56,0.25,0.38,0.19,1.84
25.00,2.00,1.62,-16.88,11.44,-0.12,-0.56,0.00,0.19,1.84
25.00,0.00,277.44,-4.00,-97.00,-0.75,-0.81,-0.38,0.19,1.86
25.00,1.00,258.06,0.88,-41.19,-0.31,0.25,0.44,0.19,1.86
25.00,2.00,1.62,-16.88,11.44,-0.31,-0.31,0.69,0.19,1.86
25.00,0.00,277.44,-4.00,-97.00,-0.44,0.25,0.19,0.16,1.88
25.00,1.00,258.06,0.88,-41.12,-0.31,0.38,0.12,0.16,1.88
25.00,2.00,1.62,-16.88,11.44,0.50,0.12,0.06,0.16,1.88
25.00,0.00,277.38,-4.00,-97.00,-0.12,0.75,0.38,0.16,1.90
25.00,1.00,258.06,0.88,-41.12,-0.12,0.31,-0.25,0.16,1.90
25.00,2.00,1.62,-16.88,11.44,0.25,0.38,-0.12,0.16,1.90
25.00,0.00,277.38,-4.00,-97.00,-0.31,0.81,0.25,0.15,1.92
25.00,1.00,258.06,0.88,-41.12,0.06,0.56,0.31,0.15,1.92
25.00,2.00,1.62,-16.88,11.44,0.00,0.25,0.06,0.15,1.92
25.00,0.00,277.38,-4.00,-97.00,-0.88,0.00,-0.31,0.13,1.94
25.00,1.00,258.06,0.88,-41.12,0.31,0.81,0.56,0.13,1.94
25.00,2.00,1.62,-16.88,11.44,0.00,-0.12,0.25,0.13,1.94
25.00,0.00,277.38,-4.00,-96.94,-0.88,-0.88,-0.56,0.11,1.96
25.00,1.00,258.06,0.88,-41.12,0.25,0.50,0.38,0.11,1.96
25.00,2.00,1.62,-16.88,11.44,0.06,-0.44,0.44,0.11,1.96
25.00,0.00,277.38,-4.00,-96.94,-0.62,-0.81,-0.50,0.09,1.98
25.00,1.00,258.06,0.88,-41.12,0.06,0.38,0.31,0.09,1.98
25.00,2.00,1.62,-16.88,11.50,0.38,-0.31,0.44,0.09,1.98
25.00,0.00,277.38,-4.00,-96.94,-0.69,-0.50,0.00,0.05,2.00
25.00,1.00,258.06,0.88,-41.06,0.19,0.38,0.12,0.05,2.00
25.00,2.00,1.62,-16.88,11.44,0.88,-0.12,0.12,0.05,2.00
25.00,0.00,277.38,-4.00,-96.94,-0.50,0.38,0.31,0.03,2.02
25.00,1.00,258.06,0.88,-41.06,0.06,0.25,0.38,0.03,2.02
25.00,2.00,1.62,-16.88,11.44,0.44,0.00,-0.06,0.03,2.02
25.00,0.00,277.38,-4.00,-96.94,-0.62,0.69,0.31,0.01,2.04
25.00,1.00,258.06,0.88,-41.06,0.06,0.31,0.62,0.01,2.04
25.00,2.00,1.62,-16.88,11.44,0.38,0.31,-0.06,0.01,2.04
25.00,0.00,277.38,-4.00,-96.94,-0.44,0.12,0.25,-0.01,2.06
25.00,1.00,258.06,0.94,-41.06,0.44,0.31,0.62,-0.01,2.06
25.00,2.00,1.62,-16.88,11.50,0.44,0.19,0.06,-0.01,2.06
25.00,0.00,277.38,-3.94,-96.94,-0.56,-0.69,0.19,-0.04,2.08
25.00,1.00,258.00,0.94,-41.00,0.50,0.31,0.62,-0.04,2.08
25.00,2.00,1.62,-16.88,11.50,0.75,0.69,-0.38,-0.04,2.08
25.00,0.00,277.38,-3.94,-96.94,-0.31,-0.75,0.12,-0.08,2.10
25.00,1.00,258.00,0.94,-41.00,1.25,0.25,0.69,-0.08,2.10
25.00,2.00,1.62,-16.88,11.50,1.25,1.44,-0.75,-0.08,2.10
25.00,0.00,277.38,-3.94,-96.94,0.12,-1.19,0.69,-0.09,2.12
25.00,1.00,258.00,0.94,-41.00,2.38,-0.56,0.50,-0.09,2.12
25.00,2.00,1.69,-16.88,11.50,0.62,0.50,-0.06,-0.09,2.12
25.00,0.00,277.38,-3.94,-96.94,1.06,-1.44,1.56,-0.08,2.14
25.00,1.00,258.00,0.94,-41.06,3.75,-1.56,0.00,-0.08,2.14
25.00,2.00,1.69,-16.94,11.50,0.69,2.25,-0.62,-0.08,2.14
25.00,0.00,277.38,-3.88,-97.00,3.19,-1.50,2.56,0.00,2.16
25.00,1.00,258.00,1.00,-41.12,3.94,-1.56,-0.12,0.00,2.16
25.00,2.00,1.75,-17.00,11.56,-0.31,5.38,-2.19,0.00,2.16
25.00,0.00,277.38,-3.81,-97.06,5.25,-2.44,4.06,0.15,2.18
25.00,1.00,258.00,1.00,-41.19,3.56,-1.12,0.19,0.15,2.18
25.00,2.00,1.81,-17.12,11.62,-1.56,7.12,-2.62,0.15,2.18
25.00,0.00,277.38,-3.75,-97.19,7.31,-4.06,5.88,0.35,2.20
25.00,1.00,258.00,1.00,-41.19,3.56,0.12,0.38,0.35,2.20
25.00,2.00,1.81,-17.25,11.69,-1.56,5.94,-2.25,0.35,2.20
25.00,0.00,277.38,-3.62,-97.38,8.81,-6.44,6.81,0.57,2.22
25.00,1.00,258.00,1.00,-41.25,3.75,0.19,0.31,0.57,2.22
25.00,2.00,1.88,-17.31,11.69,-0.81,5.44,-1.88,0.57,2.22
25.00,0.00,277.38,-3.50,-97.50,9.56,-8.38,7.81,0.80,2.24
25.00,1.00,258.00,1.00,-41.31,3.75,-0.12,0.81,0.80,2.24
25.00,2.00,1.94,-17.44,11.75,-0.88,5.69,-1.75,0.80,2.24
25.00,0.00,277.50,-3.38,-97.75,10.50,-9.75,8.31,1.07,2.26
25.00,1.00,258.00,1.00,-41.38,3.25,0.00,0.94,1.07,2.26
25.00,2.00,2.00,-17.56,11.81,-1.62,5.38,-2.06,1.07,2.26
25.00,0.00,277.62,-3.19,-97.94,13.56,-13.88,9.19,1.40,2.28
25.00,1.00,258.00,1.06,-41.44,2.69,0.19,1.50,1.40,2.28
25.00,2.00,2.00,-17.62,11.88,-1.19,4.56,-2.50,1.40,2.28
25.00,0.00,277.75,-3.06,-98.25,14.75,-15.50,9.50,1.75,2.30
25.00,1.00,257.94,1.06,-41.50,2.50,0.38,1.69,1.75,2.30
25.00,2.00,2.06,-17.69,11.88,-0.56,3.06,-1.56,1.75,2.30
25.00,0.00,277.94,-2.94,-98.50,13.44,-13.62,9.44,2.06,2.32
25.00,1.00,257.88,1.12,-41.50,2.88,0.38,2.38,2.06,2.32
25.00,2.00,2.06,-17.75,11.88,-0.44,1.44,-0.56,2.06,2.32
25.00,0.00,278.00,-2.75,-98.75,13.12,-11.62,9.31,2.37,2.34
25.00,1.00,257.88,1.12,-41.56,2.88,0.44,3.12,2.37,2.34
25.00,2.00,2.06,-17.75,11.88,-0.75,1.62,0.56,2.37,2.34
25.00,0.00,278.06,-2.62,-98.94,10.88,-8.44,8.44,2.66,2.36
25.00,1.00,257.75,1.19,-41.62,2.62,0.50,3.44,2.66,2.36
25.00,2.00,2.06,-17.81,11.94,-1.88,2.56,0.75,2.66,2.36
25.00,0.00,278.06,-2.50,-99.12,9.69,-6.19,6.50,2.93,2.38
25.00,1.00,257.69,1.25,-41.69,2.62,0.62,4.00,2.93,2.38
25.00,2.00,2.06,-17.81,11.94,-2.38,1.31,1.00,2.93,2.38
25.00,0.00,278.06,-2.38,-99.31,9.69,-4.00,6.19,3.18,2.40
25.00,1.00,257.62,1.31,-41.69,2.56,0.75,4.00,3.18,2.40
25.00,2.00,2.00,-17.88,12.00,-1.69,0.00,1.12,3.18,2.40
25.00,0.00,277.94,-2.25,-99.44,9.62,-1.69,7.12,3.42,2.42
25.00,1.00,257.56,1.31,-41.75,2.50,0.06,4.06,3.42,2.42
25.00,2.00,2.00,-17.81,12.00,-1.06,-0.88,1.06,3.42,2.42
25.00,0.00,277.81,-2.06,-99.62,8.19,1.00,6.00,3.64,2.44
25.00,1.00,257.44,1.38,-41.81,2.50,-0.19,4.31,3.64,2.44
25.00,2.00,2.00,-17.81,12.06,-1.56,-0.81,1.31,3.64,2.44
25.00,0.00,277.69,-2.00,-99.81,9.38,0.31,5.25,3.90,2.46
25.00,1.00,257.38,1.44,-41.81,2.31,-0.56,4.62,3.90,2.46
25.00,2.00,1.94,-17.81,12.06,-2.06,-1.12,0.88,3.90,2.46
25.00,0.00,277.56,-1.88,-100.00,12.12,-0.25,5.38,4.21,2.48
25.00,1.00,257.31,1.56,-41.88,2.38,-1.38,4.25,4.21,2.48
25.00,2.00,1.94,-17.75,12.06,-1.62,-2.62,0.62,4.21,2.48
25.00,0.00,277.50,-1.75,-100.31,14.25,-1.31,5.88,4.54,2.50
25.00,1.00,257.25,1.62,-41.94,2.44,-2.06,3.94,4.54,2.50
25.00,2.00,1.94,-17.69,12.12,-0.44,-3.81,0.25,4.54,2.50
25.00,0.00,277.38,-1.62,-100.56,13.06,0.62,4.31,4.82,2.52
25.00,1.00,257.19,1.69,-42.00,2.94,-3.00,3.75,4.82,2.52
25.00,2.00,1.94,-17.62,12.12,0.50,-3.94,-0.50,4.82,2.52
25.00,0.00,277.31,-1.56,-100.81,15.50,-1.25,3.75,5.15,2.54
25.00,1.00,257.12,1.81,-42.06,3.06,-3.44,3.38,5.15,2.54
25.00,2.00,1.94,-17.56,12.06,0.94,-3.44,-1.12,5.15,2.54
25.00,0.00,277.31,-1.50,-101.19,20.06,-4.50,6.56,5.58,2.56
25.00,1.00,257.06,1.88,-42.06,3.44,-4.19,2.88,5.58,2.56
25.00,2.00,1.94,-17.50,12.12,0.56,-5.00,-1.12,5.58,2.56
25.00,0.00,277.31,-1.31,-101.62,20.75,-4.44,8.25,6.00,2.58
25.00,1.00,257.06,2.00,-42.12,3.56,-4.81,2.75,6.00,2.58
25.00,2.00,1.94,-17.38,12.06,2.12,-5.12,-1.50,6.00,2.58
25.00,0.00,277.31,-1.19,-102.00,19.56,-6.06,7.06,6.38,2.60
25.00,1.00,257.06,2.12,-42.19,3.94,-5.19,2.19,6.38,2.60
25.00,2.00,2.00,-17.25,12.06,2.88,-5.19,-1.94,6.38,2.60
25.00,0.00,277.25,-1.12,-102.38,18.81,-5.06,6.31,6.70,2.62
25.00,1.00,257.06,2.25,-42.31,3.62,-5.38,1.44,6.70,2.62
25.00,2.00,2.06,-17.19,12.00,4.19,-2.75,-3.12,6.70,2.62
25.00,0.00,277.25,-1.00,-102.81,21.81,-5.75,7.62,7.12,2.64
25.00,1.00,257.06,2.31,-42.38,3.50,-5.06,1.69,7.12,2.64
25.00,2.00,2.12,-17.12,11.94,3.12,-3.81,-2.75,7.12,2.64
25.00,0.00,277.25,-0.88,-103.00,21.94,-6.81,9.81,7.54,2.66
25.00,1.00,257.06,2.44,-42.44,4.31,-4.12,2.06,7.54,2.66
25.00,2.00,2.12,-17.00,11.88,3.19,-4.56,-1.44,7.54,2.66
25.00,0.00,277.25,-0.62,-103.62,20.88,-8.19,10.88,7.93,2.68
25.00,1.00,257.00,2.50,-42.50,4.12,-3.75,2.31,7.93,2.68
25.00,2.00,2.19,-16.94,11.81,3.62,-4.50,-1.06,7.93,2.68
25.00,0.00,277.19,-0.56,-103.88,20.25,-8.12,12.06,8.31,2.70
25.00,1.00,257.00,2.62,-42.56,3.75,-3.25,1.94,8.31,2.70
25.00,2.00,2.19,-16.81,11.75,3.44,-4.19,-1.06,8.31,2.70
25.00,0.00,277.12,-0.31,-104.25,17.62,-6.56,11.25,8.65,2.72
25.00,1.00,257.00,2.69,-42.62,3.62,-3.44,1.56,8.65,2.72
25.00,2.00,2.19,-16.75,11.69,2.19,-4.75,-1.06,8.65,2.72
25.00,0.00,277.06,-0.12,-104.56,19.81,-8.12,11.31,9.04,2.74
25.00,1.00,257.00,2.75,-42.69,4.38,-4.00,0.88,9.04,2.74
25.00,2.00,2.25,-16.62,11.69,2.44,-5.25,-1.62,9.04,2.74
25.00,0.00,277.06,0.00,-105.00,21.81,-9.12,12.31,9.44,2.76
25.00,1.00,257.00,2.88,-42.75,4.31,-4.25,0.69,9.44,2.76
25.00,2.00,2.31,-16.50,11.62,4.25,-3.31,-2.75,9.44,2.76
25.00,0.00,276.94,0.25,-105.44,19.69,-7.31,14.81,9.79,2.78
25.00,1.00,257.00,2.94,-42.88,3.81,-3.94,0.62,9.79,2.78
25.00,2.00,2.38,-16.44,11.56,4.19,-2.38,-3.25,9.79,2.78
25.00,0.00,276.88,0.50,-105.81,18.69,-7.38,14.44,10.11,2.80
25.00,1.00,257.06,3.00,-42.94,3.44,-3.81,0.62,10.11,2.80
25.00,2.00,2.44,-16.38,11.50,4.25,-3.19,-3.31,10.11,2.80
25.00,0.00,276.75,0.69,-106.12,19.12,-8.44,14.38,10.45,2.82
25.00,1.00,257.06,3.06,-43.00,4.12,-3.88,0.75,10.45,2.82
25.00,2.00,2.50,-16.31,11.44,3.94,-3.75,-2.75,10.45,2.82
25.00,0.00,276.69,0.94,-106.50,19.38,-9.81,15.75,10.81,2.84
25.00,1.00,257.06,3.12,-43.06,4.06,-4.06,0.88,10.81,2.84
25.00,2.00,2.56,-16.25,11.38,3.50,-3.44,-2.81,10.81,2.84
25.00,0.00,276.62,1.19,-106.94,19.31,-11.00,16.12,11.18,2.86
25.00,1.00,257.06,3.25,-43.12,3.62,-3.75,1.06,11.18,2.86
25.00,2.00,2.62,-16.12,11.31,2.81,-3.94,-3.12,11.18,2.86
25.00,0.00,276.62,1.44,-107.31,21.38,-14.06,16.44,11.55,2.88
25.00,1.00,257.06,3.31,-43.19,4.31,-4.81,-0.19,11.55,2.88
25.00,2.00,2.69,-16.00,11.25,4.75,-4.44,-3.62,11.55,2.88
25.00,0.00,276.69,1.62,-107.81,22.06,-14.81,16.31,11.91,2.90
25.00,1.00,257.12,3.38,-43.31,4.62,-5.06,-0.62,11.91,2.90
25.00,2.00,2.81,-15.94,11.19,6.25,-2.75,-4.56,11.91,2.90
25.00,0.00,276.81,1.88,-108.31,26.69,-19.69,18.81,12.39,2.92
25.00,1.00,257.19,3.44,-43.38,4.00,-4.88,-0.81,12.39,2.92
25.00,2.00,2.88,-15.88,11.06,5.12,-2.19,-5.81,12.39,2.92
25.00,0.00,276.94,2.12,-108.81,26.44,-19.06,19.69,12.89,2.94
25.00,1.00,257.19,3.50,-43.44,3.44,-4.44,-1.44,12.89,2.94
25.00,2.00,3.00,-15.81,11.00,4.06,-3.50,-6.00,12.89,2.94
25.00,0.00,277.06,2.31,-109.38,28.38,-20.75,19.44,13.42,2.96
25.00,1.00,257.25,3.56,-43.50,4.12,-5.38,-1.81,13.42,2.96
25.00,2.00,3.12,-15.69,11.00,5.06,-4.25,-5.56,13.42,2.96
25.00,0.00,277.25,2.50,-110.06,35.38,-25.06,18.81,14.09,2.98
25.00,1.00,257.38,3.62,-43.62,4.19,-6.62,-2.12,14.09,2.98
25.00,2.00,3.25,-15.56,10.88,5.19,-4.94,-6.06,14.09,2.98
25.00,0.00,277.56,2.69,-110.75,35.81,-25.88,19.44,14.77,3.00
25.00,1.00,257.50,3.69,-43.69,3.81,-8.00,-3.12,14.77,3.00
25.00,2.00,3.38,-15.44,10.81,5.56,-5.06,-6.88,14.77,3.00
25.00,0.00,277.88,2.88,-111.50,36.94,-27.69,19.56,15.45,3.02
25.00,1.00,257.62,3.75,-43.75,4.62,-8.12,-3.69,15.45,3.02
25.00,2.00,3.56,-15.31,10.75,6.56,-5.75,-6.81,15.45,3.02
25.00,0.00,278.31,3.00,-112.31,39.62,-29.75,20.06,16.14,3.04
25.00,1.00,257.75,3.81,-43.88,5.31,-8.50,-3.69,16.14,3.04
25.00,2.00,3.69,-15.19,10.62,9.06,-5.81,-6.56,16.14,3.04
25.00,0.00,278.69,3.19,-113.19,40.56,-29.69,19.81,16.82,3.06
25.00,1.00,257.88,3.94,-44.00,5.44,-7.75,-3.44,16.82,3.06
25.00,2.00,3.81,-15.06,10.44,10.25,-5.44,-5.94,16.82,3.06
25.00,0.00,279.06,3.25,-114.00,40.81,-29.56,19.06,17.53,3.08
25.00,1.00,257.94,4.00,-44.06,5.56,-7.50,-3.31,17.53,3.08
25.00,2.00,3.94,-14.94,10.31,9.12,-7.12,-5.19,17.53,3.08
25.00,0.00,279.50,3.38,-114.88,42.00,-28.44,18.62,18.27,3.10
25.00,1.00,258.06,4.06,-44.19,6.00,-7.38,-3.12,18.27,3.10
25.00,2.00,4.06,-14.75,10.12,9.06,-7.81,-4.19,18.27,3.10
25.00,0.00,279.50,3.50,-115.75,43.75,-25.88,18.44,19.02,3.12
25.00,1.00,258.19,4.12,-44.31,6.69,-7.50,-2.75,19.02,3.12
25.00,2.00,4.12,-14.56,9.94,10.19,-7.94,-3.44,19.02,3.12
25.00,0.00,279.69,3.69,-116.75,45.69,-24.94,18.25,19.83,3.14
25.00,1.00,258.31,4.25,-44.44,7.19,-8.25,-2.44,19.83,3.14
25.00,2.00,4.19,-14.44,9.75,9.62,-8.69,-2.25,19.83,3.14
25.00,0.00,279.69,3.81,-117.75,47.94,-22.12,18.88,20.68,3.16
25.00,1.00,258.44,4.31,-44.56,7.19,-7.94,-4.25,20.68,3.16
25.00,2.00,4.19,-14.25,9.56,10.12,-10.56,-0.50,20.68,3.16
25.00,0.00,279.75,4.00,-118.75,47.94,-17.69,19.12,21.47,3.18
25.00,1.00,258.50,4.38,-44.75,7.75,-7.56,-3.19,21.47,3.18
25.00,2.00,4.25,-14.06,9.38,12.69,-9.44,-1.00,21.47,3.18
25.00,0.00,279.69,4.19,-119.69,47.69,-14.19,18.69,22.27,3.20
25.00,1.00,258.62,4.44,-44.88,7.44,-6.31,-2.56,22.27,3.20
25.00,2.00,4.25,-13.88,9.12,12.38,-7.88,-0.75,22.27,3.20
25.00,0.00,279.12,4.50,-120.62,46.56,-8.88,18.44,23.07,3.22
25.00,1.00,258.69,4.50,-45.06,7.62,-5.75,-2.12,23.07,3.22
25.00,2.00,4.25,-13.69,8.88,10.88,-9.38,0.19,23.07,3.22
25.00,0.00,278.75,4.81,-121.56,46.75,-5.50,19.12,23.88,3.24
25.00,1.00,258.81,4.56,-45.19,8.50,-6.56,-1.94,23.88,3.24
25.00,2.00,4.25,-13.50,8.69,10.31,-11.50,1.00,23.88,3.24
25.00,0.00,278.12,5.12,-122.50,46.19,-3.62,19.69,24.70,3.26
25.00,1.00,258.88,4.62,-45.38,9.62,-7.44,-2.44,24.70,3.26
25.00,2.00,4.25,-13.25,8.44,9.75,-12.88,0.62,24.70,3.26
25.00,0.00,277.56,5.44,-123.38,44.81,-1.88,18.75,25.47,3.28
25.00,1.00,259.00,4.69,-45.56,9.44,-7.69,-2.69,25.47,3.28
25.00,2.00,4.25,-13.00,8.25,10.62,-12.06,-0.38,25.47,3.28
25.00,0.00,276.94,5.75,-124.19,42.94,2.00,17.81,26.17,3.30
25.00,1.00,259.12,4.75,-45.81,9.81,-8.62,-2.88,26.17,3.30
25.00,2.00,4.31,-12.81,8.06,11.69,-12.00,-1.25,26.17,3.30
25.00,0.00,276.12,6.12,-125.00,42.12,4.81,17.25,26.83,3.32
25.00,1.00,259.25,4.81,-46.00,9.44,-8.50,-3.62,26.83,3.32
25.00,2.00,4.31,-12.56,7.81,12.88,-12.06,-1.44,26.83,3.32
25.00,0.00,275.31,6.50,-125.81,39.31,7.31,17.19,27.40,3.34
25.00,1.00,259.38,4.88,-46.19,9.12,-9.19,-3.94,27.40,3.34
25.00,2.00,4.38,-12.31,7.56,14.00,-11.38,-2.38,27.40,3.34
25.00,0.00,274.06,6.88,-126.50,38.00,9.06,17.25,27.95,3.36
25.00,1.00,259.50,4.94,-46.38,9.06,-9.62,-3.69,27.95,3.36
25.00,2.00,4.44,-12.12,7.25,13.44,-10.44,-3.38,27.95,3.36
25.00,0.00,273.06,7.25,-127.19,36.38,10.75,17.62,28.49,3.38
25.00,1.00,259.62,5.06,-46.56,9.31,-10.06,-2.69,28.49,3.38
25.00,2.00,4.56,-11.88,7.06,12.25,-10.88,-3.44,28.49,3.38
25.00,0.00,272.06,7.69,-127.81,32.31,11.88,16.38,28.92,3.40
25.00,1.00,259.75,5.19,-46.75,9.38,-10.50,-2.62,28.92,3.40
25.00,2.00,4.62,-11.69,6.81,13.12,-11.50,-3.06,28.92,3.40
25.00,0.00,270.69,8.06,-128.38,26.50,14.44,13.69,29.20,3.42
25.00,1.00,259.88,5.25,-46.94,9.31,-9.19,-2.56,29.20,3.42
25.00,2.00,4.69,-11.44,6.56,13.81,-12.69,-3.00,29.20,3.42
25.00,0.00,269.69,8.44,-128.81,25.06,14.44,13.88,29.45,3.44
25.00,1.00,260.00,5.31,-47.12,7.81,-8.38,-2.25,29.45,3.44
25.00,2.00,4.75,-11.19,6.25,14.25,-12.12,-3.06,29.45,3.44
25.00,0.00,268.12,8.88,-129.31,24.50,14.88,17.50,29.73,3.46
25.00,1.00,260.06,5.44,-47.31,7.75,-7.69,-2.25,29.73,3.46
25.00,2.00,4.81,-10.94,6.00,12.00,-13.38,-1.31,29.73,3.46
25.00,0.00,267.00,9.38,-129.69,20.06,15.56,18.00,29.91,3.48
25.00,1.00,260.19,5.50,-47.44,8.12,-6.81,-1.88,29.91,3.48
25.00,2.00,4.81,-10.69,5.81,11.81,-13.44,-1.00,29.91,3.48
25.00,0.00,265.88,9.81,-130.06,18.44,16.19,16.88,30.06,3.50
25.00,1.00,260.25,5.56,-47.62,8.25,-6.62,-1.31,30.06,3.50
25.00,2.00,4.88,-10.44,5.56,11.81,-12.25,-1.69,30.06,3.50
25.00,0.00,264.69,10.25,-130.44,18.69,15.62,18.50,30.25,3.52
25.00,1.00,260.31,5.62,-47.75,7.06,-5.81,-0.94,30.25,3.52
25.00,2.00,4.94,-10.19,5.38,10.31,-11.19,-1.81,30.25,3.52
25.00,0.00,263.56,10.75,-130.75,16.50,14.69,19.69,30.42,3.54
25.00,1.00,260.38,5.69,-47.94,7.06,-5.62,-1.00,30.42,3.54
25.00,2.00,4.94,-10.00,5.19,8.94,-11.19,-1.69,30.42,3.54
25.00,0.00,262.50,11.19,-131.00,12.50,14.00,17.56,30.48,3.56
25.00,1.00,260.44,5.75,-48.06,6.69,-4.81,-0.75,30.48,3.56
25.00,2.00,5.00,-9.75,5.00,9.88,-11.19,-2.06,30.48,3.56
25.00,0.00,261.62,11.56,-131.25,11.56,11.31,15.25,30.50,3.58
25.00,1.00,260.50,5.81,-48.19,6.44,-5.25,-1.19,30.50,3.58
25.00,2.00,5.06,-9.56,4.81,10.31,-10.75,-2.62,30.50,3.58
25.00,0.00,260.81,11.88,-131.50,13.19,7.69,16.19,30.58,3.60
25.00,1.00,260.50,5.88,-48.31,6.19,-5.38,-1.00,30.58,3.60
25.00,2.00,5.12,-9.38,4.62,9.81,-9.44,-2.25,30.58,3.60
25.00,0.00,259.81,12.19,-131.81,12.56,3.69,17.31,30.66,3.62
25.00,1.00,260.56,5.88,-48.44,5.75,-4.31,-0.88,30.66,3.62
25.00,2.00,5.19,-9.19,4.44,8.81,-7.62,-2.56,30.66,3.62
25.00,0.00,259.31,12.44,-132.06,9.75,2.69,15.56,30.73,3.64
25.00,1.00,260.62,5.94,-48.56,4.50,-3.56,-1.44,30.73,3.64
25.00,2.00,5.25,-9.06,4.31,6.88,-7.31,-2.44,30.73,3.64
25.00,0.00,258.81,12.69,-132.25,9.19,1.44,12.25,30.76,3.66
25.00,1.00,260.69,5.94,-48.62,4.44,-3.69,-1.94,30.76,3.66
25.00,2.00,5.25,-8.88,4.12,7.75,-7.19,-1.56,30.76,3.66
25.00,0.00,258.50,12.81,-132.50,9.69,0.44,11.06,30.80,3.68
25.00,1.00,260.75,6.00,-48.75,5.12,-3.81,-1.62,30.80,3.68
25.00,2.00,5.31,-8.75,4.00,7.94,-6.50,-1.75,30.80,3.68
25.00,0.00,258.19,12.94,-132.75,10.31,-1.19,11.06,30.88,3.70
25.00,1.00,260.81,6.00,-48.81,4.31,-3.50,-1.81,30.88,3.70
25.00,2.00,5.38,-8.62,3.88,6.81,-5.56,-2.50,30.88,3.70
25.00,0.00,257.69,13.00,-133.06,10.88,-2.69,10.31,31.00,3.72
25.00,1.00,260.88,6.00,-48.94,3.69,-2.56,-2.00,31.00,3.72
25.00,2.00,5.44,-8.56,3.75,5.50,-3.38,-2.62,31.00,3.72
25.00,0.00,257.62,13.06,-133.38,10.94,-4.81,8.69,31.16,3.74
25.00,1.00,260.94,6.00,-49.00,3.50,-2.62,-2.19,31.16,3.74
25.00,2.00,5.44,-8.50,3.62,4.00,-2.69,-1.94,31.16,3.74
25.00,0.00,257.50,13.00,-133.69,11.56,-6.81,6.62,31.33,3.76
25.00,1.00,261.00,6.00,-49.06,3.44,-2.50,-1.69,31.33,3.76
25.00,2.00,5.50,-8.44,3.56,3.75,-1.75,-1.94,31.33,3.76
25.00,0.00,257.81,12.81,-134.06,12.88,-10.31,4.25,31.54,3.78
25.00,1.00,261.06,6.00,-49.12,3.31,-2.44,-2.12,31.54,3.78
25.00,2.00,5.56,-8.44,3.50,3.56,-0.94,-1.88,31.54,3.78
25.00,0.00,258.19,12.62,-134.44,14.00,-14.12,2.75,31.79,3.80
25.00,1.00,261.06,6.00,-49.19,3.12,-2.06,-2.00,31.79,3.80
25.00,2.00,5.56,-8.44,3.44,2.88,0.25,-2.12,31.79,3.80
25.00,0.00,258.50,12.38,-134.88,15.38,-17.44,1.38,32.07,3.82
25.00,1.00,261.12,6.00,-49.25,2.56,-2.00,-2.56,32.07,3.82
25.00,2.00,5.62,-8.44,3.38,2.69,1.12,-2.06,32.07,3.82
25.00,0.00,259.06,12.12,-135.25,15.31,-17.12,-1.00,32.36,3.84
25.00,1.00,261.19,6.00,-49.31,2.31,-1.06,-2.38,32.36,3.84
25.00,2.00,5.69,-8.44,3.38,2.44,2.31,-1.31,32.36,3.84
25.00,0.00,259.50,11.81,-135.69,16.62,-19.88,-3.38,32.70,3.86
25.00,1.00,261.25,5.94,-49.38,1.25,0.06,-1.81,32.70,3.86
25.00,2.00,5.69,-8.50,3.31,1.56,2.75,-0.81,32.70,3.86
25.00,0.00,260.25,11.44,-136.12,19.00,-22.00,-3.06,33.12,3.88
25.00,1.00,261.25,5.94,-49.38,1.06,0.25,-1.94,33.12,3.88
25.00,2.00,5.69,-8.56,3.31,0.38,2.75,0.50,33.12,3.88
25.00,0.00,113.00,11.06,-136.56,19.25,-23.88,-2.06,33.54,3.90
25.00,1.00,261.31,5.88,-49.44,1.31,0.00,-1.50,33.54,3.90
25.00,2.00,5.69,-8.62,3.31,0.69,2.62,1.44,33.54,3.90
25.00,0.00,112.75,10.69,-136.94,18.12,-24.19,-2.81,33.92,3.92
25.00,1.00,261.31,5.88,-49.44,1.56,0.50,-1.19,33.92,3.92
25.00,2.00,5.62,-8.69,3.25,1.00,2.44,1.88,33.92,3.92
25.00,0.00,112.88,10.38,-137.44,17.56,-23.62,-4.25,34.28,3.94
25.00,1.00,261.31,5.88,-49.50,1.75,0.81,-0.56,34.28,3.94
25.00,2.00,5.62,-8.69,3.25,1.56,2.19,1.75,34.28,3.94
25.00,0.00,112.88,10.12,-137.94,18.88,-20.56,-3.44,34.68,3.96
25.00,1.00,261.31,5.88,-49.50,2.00,1.00,0.06,34.68,3.96
25.00,2.00,5.56,-8.75,3.19,1.25,1.12,2.75,34.68,3.96
25.00,0.00,112.94,9.81,-138.38,20.44,-20.75,-2.00,35.11,3.98
25.00,1.00,261.31,5.81,-49.56,2.12,1.75,0.31,35.11,3.98
25.00,2.00,5.50,-8.75,3.19,1.25,0.62,3.31,35.11,3.98
25.00,0.00,113.06,9.50,-138.81,20.69,-19.75,2.81,35.56,4.00
25.00,1.00,261.31,5.81,-49.56,1.88,1.81,0.50,35.56,4.00
25.00,2.00,5.44,-8.81,3.12,0.56,1.19,3.50,35.56,4.00
25.00,0.00,113.25,9.31,-139.31,18.81,-18.88,2.69,35.97,4.02
25.00,1.00,261.25,5.81,-49.62,1.81,1.81,0.88,35.97,4.02
25.00,2.00,5.38,-8.81,3.12,0.31,0.50,3.56,35.97,4.02
25.00,0.00,113.38,9.06,-139.69,19.06,-20.25,2.62,36.39,4.04
25.00,1.00,261.19,5.81,-49.62,1.19,1.62,1.19,36.39,4.04
25.00,2.00,5.31,-8.81,3.12,0.69,0.12,2.94,36.39,4.04
25.00,0.00,113.44,8.81,-140.12,18.00,-21.00,3.19,36.79,4.06
25.00,1.00,261.19,5.81,-49.62,0.88,1.44,1.06,36.79,4.06
25.00,2.00,5.25,-8.81,3.12,-0.19,0.19,1.94,36.79,4.06
25.00,0.00,113.62,8.50,-140.50,16.44,-22.56,3.12,37.16,4.08
25.00,1.00,261.12,5.81,-49.69,0.81,0.69,0.62,37.16,4.08
25.00,2.00,5.25,-8.81,3.12,-0.12,2.25,1.19,37.16,4.08
25.00,0.00,113.88,8.19,-140.88,17.62,-28.00,4.75,37.52,4.10
25.00,1.00,261.12,5.81,-49.69,-0.50,2.06,0.94,37.52,4.10
25.00,2.00,5.25,-8.88,3.06,1.88,1.69,0.31,37.52,4.10
25.00,0.00,114.12,7.75,-141.38,21.75,-36.31,7.94,38.02,4.12
25.00,1.00,261.12,5.81,-49.69,0.69,1.25,1.62,38.02,4.12
25.00,2.00,5.25,-8.88,3.06,-0.62,-1.69,1.06,38.02,4.12
25.00,0.00,114.50,7.25,-141.88,23.81,-43.44,8.19,38.60,4.14
25.00,1.00,261.06,5.81,-49.69,0.94,-0.50,0.94,38.60,4.14
25.00,2.00,5.19,-8.81,3.12,-1.81,-2.19,1.69,38.60,4.14
25.00,0.00,114.88,6.56,-142.44,25.00,-48.38,5.31,39.17,4.16
25.00,1.00,261.06,5.81,-49.69,1.62,-2.00,0.19,39.17,4.16
25.00,2.00,5.19,-8.81,3.12,-0.75,-1.19,0.50,39.17,4.16
25.00,0.00,115.31,5.88,-143.06,28.44,-50.75,5.50,39.78,4.18
25.00,1.00,261.06,5.88,-49.75,1.81,-2.31,-0.44,39.78,4.18
25.00,2.00,5.19,-8.81,3.12,1.31,-0.94,-0.44,39.78,4.18
25.00,0.00,115.75,5.19,-143.69,29.31,-47.94,8.06,40.39,4.20
25.00,1.00,261.12,5.88,-49.75,2.06,-2.31,0.00,40.39,4.20
25.00,2.00,5.19,-8.75,3.06,2.19,-0.69,-0.75,40.39,4.20
25.00,0.00,115.94,4.88,-144.00,27.12,-43.38,7.44,40.96,4.22
25.00,1.00,261.12,5.94,-49.81,2.12,-2.19,0.25,40.96,4.22
25.00,2.00,5.19,-8.75,3.00,1.94,-1.06,-0.12,40.96,4.22
25.00,0.00,116.50,4.25,-144.88,24.44,-35.38,4.75,41.46,4.24
25.00,1.00,261.12,5.94,-49.88,1.62,-3.31,0.75,41.46,4.24
25.00,2.00,5.19,-8.69,3.00,1.94,-2.44,1.06,41.46,4.24
25.00,0.00,116.88,4.06,-145.38,23.00,-28.94,5.25,41.93,4.26
25.00,1.00,261.19,6.00,-49.88,2.00,-2.88,0.50,41.93,4.26
25.00,2.00,5.12,-8.62,2.94,2.12,-3.12,1.88,41.93,4.26
25.00,0.00,117.19,3.94,-145.81,21.19,-22.75,8.31,42.32,4.28
25.00,1.00,261.19,6.00,-49.94,0.12,-1.38,0.31,42.32,4.28
25.00,2.00,5.12,-8.56,2.88,3.62,-3.62,1.88,42.32,4.28
25.00,0.00,117.50,3.94,-146.19,17.44,-16.12,7.88,42.62,4.30
25.00,1.00,261.19,6.06,-49.94,1.94,0.06,1.56,42.62,4.30
25.00,2.00,5.06,-8.50,2.81,4.06,-4.56,1.62,42.62,4.30
25.00,0.00,117.69,3.94,-146.31,15.56,-10.00,5.56,42.89,4.32
25.00,1.00,261.12,6.06,-49.94,1.94,-0.12,1.94,42.89,4.32
25.00,2.00,5.06,-8.44,2.69,3.75,-4.88,1.56,42.89,4.32
25.00,0.00,117.88,4.06,-146.62,14.88,-4.44,6.06,43.18,4.34
25.00,1.00,261.06,6.12,-50.00,1.25,-0.81,1.81,43.18,4.34
25.00,2.00,5.00,-8.31,2.69,1.75,-4.50,2.25,43.18,4.34
25.00,0.00,118.00,4.06,-146.88,11.88,1.81,6.81,43.42,4.36
25.00,1.00,261.06,6.19,-50.00,1.31,-1.00,1.88,43.42,4.36
25.00,2.00,5.00,-8.25,2.62,1.31,-4.69,1.88,43.42,4.36
25.00,0.00,118.06,4.19,-147.12,9.12,5.00,6.00,43.57,4.38
25.00,1.00,261.00,6.19,-50.06,1.44,-1.31,1.44,43.57,4.38
25.00,2.00,5.00,-8.12,2.56,2.31,-4.94,0.19,43.57,4.38
25.00,0.00,118.12,4.38,-147.25,7.31,6.81,4.12,43.68,4.40
25.00,1.00,261.00,6.25,-50.06,2.06,-3.94,0.50,43.68,4.40
25.00,2.00,5.00,-8.06,2.56,2.38,-4.38,-0.94,43.68,4.40
25.00,0.00,118.12,4.50,-147.38,4.44,8.31,1.56,43.72,4.42
25.00,1.00,261.06,6.31,-50.12,2.38,-4.69,0.38,43.72,4.42
25.00,2.00,5.00,-7.94,2.50,2.81,-4.00,-2.12,43.72,4.42
25.00,0.00,118.12,4.69,-147.44,0.12,11.06,-1.50,43.63,4.44
25.00,1.00,261.12,6.38,-50.12,1.75,-5.75,-1.25,43.63,4.44
25.00,2.00,5.06,-7.88,2.44,4.00,-3.44,-3.38,43.63,4.44
25.00,0.00,118.00,4.81,-147.44,-1.62,12.06,-2.56,43.49,4.46
25.00,1.00,261.19,6.44,-50.19,2.31,-5.38,-1.50,43.49,4.46
25.00,2.00,5.12,-7.81,2.38,4.88,-2.94,-3.81,43.49,4.46
25.00,0.00,117.69,5.06,-147.38,-2.31,15.25,-1.00,43.34,4.48
25.00,1.00,261.25,6.50,-50.25,2.25,-5.88,-0.62,43.34,4.48
25.00,2.00,5.25,-7.75,2.31,4.38,-2.81,-2.75,43.34,4.48
25.00,0.00,117.62,5.31,-147.31,-3.00,15.88,1.00,43.22,4.50
25.00,1.00,261.31,6.56,-50.25,4.50,-7.38,0.50,43.22,4.50
25.00,2.00,5.25,-7.75,2.25,2.44,-2.62,-1.44,43.22,4.50
25.00,0.00,117.56,5.56,-147.19,-4.38,16.06,0.88,43.05,4.52
25.00,1.00,261.38,6.69,-50.38,4.19,-6.69,0.94,43.05,4.52
25.00,2.00,5.25,-7.69,2.19,3.06,-3.88,-0.81,43.05,4.52
25.00,0.00,117.44,5.81,-147.06,-7.38,15.94,0.25,42.80,4.54
25.00,1.00,261.38,6.75,-50.44,2.50,-3.00,1.69,42.80,4.54
25.00,2.00,5.31,-7.56,2.12,3.56,-6.00,-0.62,42.80,4.54
25.00,0.00,117.38,6.06,-146.94,-6.81,16.31,1.56,42.58,4.56
25.00,1.00,261.38,6.81,-50.50,2.38,-2.50,1.69,42.58,4.56
25.00,2.00,5.31,-7.44,2.06,3.25,-6.88,-0.50,42.58,4.56
25.00,0.00,117.38,6.38,-146.81,-2.75,14.81,5.62,42.45,4.58
25.00,1.00,261.31,6.88,-50.50,1.44,-2.31,2.25,42.45,4.58
25.00,2.00,5.31,-7.31,2.00,3.12,-7.06,-1.12,42.45,4.58
25.00,0.00,117.38,6.69,-146.75,1.06,11.50,7.50,42.40,4.60
25.00,1.00,261.31,6.94,-50.56,1.75,-3.19,2.06,42.40,4.60
25.00,2.00,5.38,-7.19,1.94,3.25,-6.69,-2.06,42.40,4.60
25.00,0.00,117.50,6.94,-146.94,3.00,9.88,8.44,42.38,4.62
25.00,1.00,261.31,7.00,-50.56,1.50,-3.88,1.88,42.38,4.62
25.00,2.00,5.38,-7.06,1.88,3.62,-5.75,-2.38,42.38,4.62
25.00,0.00,117.62,7.12,-147.12,4.81,6.69,10.06,42.37,4.64
25.00,1.00,261.31,7.12,-50.62,2.12,-4.56,0.12,42.37,4.64
25.00,2.00,5.44,-6.94,1.81,5.19,-6.88,-2.12,42.37,4.64
25.00,0.00,117.81,7.25,-147.31,4.56,4.31,8.94,42.30,4.66
25.00,1.00,261.31,7.19,-50.62,3.38,-4.75,0.00,42.30,4.66
25.00,2.00,5.50,-6.81,1.69,8.06,-6.69,-3.12,42.30,4.66
25.00,0.00,117.88,7.38,-147.50,5.75,2.50,6.31,42.23,4.68
25.00,1.00,261.38,7.25,-50.69,3.69,-4.69,-0.44,42.23,4.68
25.00,2.00,5.56,-6.69,1.50,8.69,-5.94,-3.62,42.23,4.68
25.00,0.00,118.00,7.44,-147.69,10.94,0.25,8.44,42.35,4.70
25.00,1.00,261.38,7.31,-50.81,2.75,-4.44,-0.06,42.35,4.70
25.00,2.00,5.62,-6.56,1.38,5.69,-5.75,-2.50,42.35,4.70
25.00,0.00,118.12,7.56,-148.00,14.38,-2.75,11.56,42.56,4.72
25.00,1.00,261.44,7.38,-50.88,3.12,-4.88,-0.12,42.56,4.72
25.00,2.00,5.69,-6.44,1.31,5.12,-5.31,-1.62,42.56,4.72
25.00,0.00,118.38,7.56,-148.25,13.50,-3.75,9.69,42.72,4.74
25.00,1.00,261.44,7.44,-50.94,3.75,-5.12,-0.69,42.72,4.74
25.00,2.00,5.75,-6.31,1.19,6.12,-5.06,-2.56,42.72,4.74
25.00,0.00,118.50,7.62,-148.56,13.31,-4.38,6.81,42.89,4.76
25.00,1.00,261.50,7.50,-51.00,3.94,-5.00,-1.12,42.89,4.76
25.00,2.00,5.81,-6.25,1.06,5.94,-3.69,-3.12,42.89,4.76
25.00,0.00,118.62,7.56,-148.88,14.75,-6.81,5.62,43.13,4.78
25.00,1.00,261.56,7.56,-51.06,3.62,-4.31,0.12,43.13,4.78
25.00,2.00,5.88,-6.19,1.00,3.69,-3.12,-1.75,43.13,4.78
25.00,0.00,118.75,7.44,-149.19,16.06,-10.19,4.88,43.42,4.80
25.00,1.00,261.56,7.69,-51.12,3.38,-4.12,-0.44,43.42,4.80
25.00,2.00,5.88,-6.12,0.94,3.25,-1.56,-1.00,43.42,4.80
25.00,0.00,118.88,7.25,-149.56,16.25,-13.19,3.44,43.70,4.82
25.00,1.00,261.62,7.69,-51.19,2.94,-3.88,-0.88,43.70,4.82
25.00,2.00,5.88,-6.12,0.88,4.06,-1.19,-1.00,43.70,4.82
25.00,0.00,118.94,7.00,-149.94,15.25,-15.50,2.25,43.93,4.84
25.00,1.00,261.69,7.75,-51.25,1.69,-3.12,-1.00,43.93,4.84
25.00,2.00,5.94,-6.12,0.75,4.88,-0.12,-0.75,43.93,4.84
25.00,0.00,119.06,6.69,-150.25,14.19,-17.19,1.38,44.20,4.86
25.00,1.00,261.69,7.75,-51.25,1.06,-2.56,-0.38,44.20,4.86
25.00,2.00,5.94,-6.12,0.69,2.06,-0.12,0.44,44.20,4.86
25.00,0.00,119.12,6.31,-150.62,14.19,-18.38,0.50,44.52,4.88
25.00,1.00,261.69,7.81,-51.25,0.44,-2.06,0.69,44.52,4.88
25.00,2.00,5.88,-6.12,0.69,-0.12,-0.50,1.75,44.52,4.88
25.00,0.00,119.19,5.94,-150.94,14.75,-19.69,-0.19,44.86,4.90
25.00,1.00,261.69,7.88,-51.25,0.12,-2.19,0.94,44.86,4.90
25.00,2.00,5.88,-6.06,0.69,-0.12,-0.81,2.50,44.86,4.90
25.00,0.00,119.19,5.56,-151.31,15.19,-23.44,-1.31,45.20,4.92
25.00,1.00,261.75,7.88,-51.25,-0.12,-2.06,0.44,45.20,4.92
25.00,2.00,5.81,-6.06,0.69,-0.12,0.69,2.62,45.20,4.92
25.00,0.00,119.25,5.06,-151.56,13.88,-25.81,-3.38,45.49,4.94
25.00,1.00,261.75,7.94,-51.25,-0.50,-1.38,-0.06,45.49,4.94
25.00,2.00,5.75,-6.12,0.69,1.12,1.44,2.44,45.49,4.94
25.00,0.00,119.25,4.56,-151.88,11.81,-26.38,-5.19,45.73,4.96
25.00,1.00,261.75,7.94,-51.25,-0.38,-0.81,-0.25,45.73,4.96
25.00,2.00,5.69,-6.12,0.69,0.88,0.88,2.00,45.73,4.96
25.00,0.00,119.12,4.12,-152.12,11.50,-25.62,-4.94,45.96,4.98
25.00,1.00,261.75,7.94,-51.25,0.31,-1.06,-0.44,45.96,4.98
25.00,2.00,5.69,-6.19,0.62,1.31,1.56,2.44,45.96,4.98
25.00,0.00,119.19,3.75,-152.38,11.81,-22.69,-2.31,46.19,5.00
25.00,1.00,261.75,8.00,-51.25,0.75,-1.38,-0.31,46.19,5.00
25.00,2.00,5.62,-6.19,0.56,1.69,1.81,2.38,46.19,5.00
25.00,0.00,119.25,3.44,-152.56,9.38,-19.06,-1.81,46.39,5.02
25.00,1.00,261.75,8.00,-51.25,0.56,0.31,0.06,46.39,5.02
25.00,2.00,5.56,-6.25,0.56,0.50,2.44,1.38,46.39,5.02
25.00,0.00,119.25,3.12,-152.69,5.12,-15.94,-2.56,46.50,5.04
25.00,1.00,261.75,8.00,-51.25,0.06,0.62,1.00,46.50,5.04
25.00,2.00,5.56,-6.31,0.56,0.12,1.81,1.12,46.50,5.04
25.00,0.00,119.25,2.88,-152.75,0.62,-10.06,-2.44,46.49,5.06
25.00,1.00,261.69,8.00,-51.25,0.75,0.88,0.75,46.49,5.06
25.00,2.00,5.56,-6.31,0.56,0.88,0.81,0.12,46.49,5.06
25.00,0.00,119.25,2.81,-152.69,-4.44,-1.50,-2.00,46.34,5.08
25.00,1.00,261.69,8.00,-51.25,0.88,-0.06,0.31,46.34,5.08
25.00,2.00,5.56,-6.31,0.50,2.38,0.31,-0.81,46.34,5.08
25.00,0.00,119.19,2.88,-152.44,-12.06,10.31,-3.00,46.03,5.10
25.00,1.00,261.69,8.00,-51.31,0.38,0.31,0.62,46.03,5.10
25.00,2.00,5.56,-6.31,0.44,1.69,0.50,-1.31,46.03,5.12
25.00,0.00,119.00,3.19,-152.12,-16.38,21.31,-3.81,45.66,5.12
25.00,1.00,261.69,8.06,-51.31,0.12,0.38,0.06,45.66,5.12
25.00,2.00,5.62,-6.31,0.44,0.25,0.44,-1.38,45.66,5.12
25.00,0.00,118.88,3.62,-151.75,-18.94,30.25,-1.88,45.21,5.14
25.00,1.00,261.69,8.06,-51.31,0.19,0.38,-0.62,45.21,5.14
25.00,2.00,5.69,-6.31,0.44,1.00,1.81,-2.44,45.21,5.14
25.00,0.00,118.69,4.25,-151.31,-24.31,36.75,-1.56,44.64,5.16
25.00,1.00,261.69,8.06,-51.31,0.69,0.75,-0.81,44.64,5.16
25.00,2.00,5.75,-6.31,0.38,1.06,2.50,-3.06,44.64,5.16
25.00,0.00,118.38,4.88,-150.69,-30.50,39.75,-4.62,43.96,5.18
25.00,1.00,261.69,8.06,-51.31,-0.62,2.06,-0.75,43.96,5.18
25.00,2.00,5.75,-6.31,0.31,-0.06,2.75,-3.25,43.96,5.18
25.00,0.00,118.06,5.56,-150.00,-35.00,43.19,-7.44,43.16,5.20
25.00,1.00,261.62,8.06,-51.38,-0.25,2.19,-0.81,43.16,5.20
25.00,2.00,5.81,-6.38,0.31,0.38,2.94,-2.06,43.16,5.22
25.00,0.00,117.69,6.31,-149.19,-39.94,51.81,-9.19,42.29,5.22
25.00,1.00,261.56,8.06,-51.38,-1.56,5.00,-0.19,42.29,5.22
25.00,2.00,5.81,-6.44,0.31,-1.00,3.44,-0.25,42.29,5.22
25.00,0.00,117.19,7.12,-148.25,-47.38,59.81,-12.12,41.31,5.24
25.00,1.00,261.50,8.06,-51.31,-3.50,8.12,1.94,41.31,5.24
25.00,2.00,5.81,-6.56,0.38,-3.69,4.44,2.62,41.31,5.24
25.00,0.00,116.69,8.06,-147.19,-50.69,63.69,-13.50,40.30,5.26
25.00,1.00,261.31,8.00,-51.25,-3.31,10.12,5.50,40.30,5.26
25.00,2.00,5.69,-6.62,0.44,-5.88,3.69,5.31,40.30,5.26
25.00,0.00,116.06,9.06,-146.06,-53.19,70.44,-11.44,39.25,5.28
25.00,1.00,261.06,8.00,-51.19,-5.06,11.94,7.44,39.25,5.28
25.00,2.00,5.56,-6.69,0.56,-6.44,2.56,9.00,39.25,5.28
25.00,0.00,115.50,10.19,-144.81,-57.19,82.06,-10.50,38.16,5.30
25.00,1.00,260.81,8.00,-51.06,-5.94,13.31,8.25,38.16,5.30
25.00,2.00,5.31,-6.75,0.69,-8.56,4.19,10.31,38.16,5.30
25.00,0.00,114.69,11.44,-143.44,-58.81,88.44,-10.81,37.19,5.32
25.00,1.00,260.44,8.00,-50.94,-8.69,17.88,11.69,37.19,5.32
25.00,2.00,5.06,-6.88,0.94,-15.25,7.25,12.31,37.19,5.32
25.00,0.00,114.06,12.69,-142.00,-62.00,91.12,-10.06,36.25,5.34
25.00,1.00,260.00,8.00,-50.75,-9.88,19.75,14.62,36.25,5.34
25.00,2.00,4.81,-7.00,1.25,-20.31,6.19,14.69,36.25,5.34
25.00,0.00,113.44,13.94,-140.44,-64.44,89.69,-10.88,35.33,5.36
25.00,1.00,259.50,8.00,-50.50,-10.94,20.81,14.56,35.33,5.36
25.00,2.00,4.50,-7.06,1.69,-23.31,2.88,14.94,35.33,5.36
25.00,0.00,112.31,15.06,-138.88,-64.81,85.62,-14.62,34.27,5.38
25.00,1.00,259.12,7.88,-50.19,-12.31,18.38,9.94,34.27,5.38
25.00,2.00,4.25,-7.19,2.00,-17.69,7.50,11.00,34.27,5.38
25.00,0.00,245.62,16.00,-137.25,-63.31,79.38,-19.19,33.21,5.40
25.00,1.00,258.81,7.81,-49.94,-13.00,17.56,9.62,33.21,5.40
25.00,2.00,4.06,-7.44,2.31,-16.19,12.88,8.44,33.21,5.40
25.00,0.00,243.69,16.75,-135.69,-61.44,70.88,-22.12,32.24,5.42
25.00,1.00,258.50,7.75,-49.62,-14.44,17.00,9.00,32.24,5.42
25.00,2.00,3.88,-7.75,2.62,-18.25,14.62,6.19,32.24,5.42
25.00,0.00,242.75,17.19,-134.25,-60.00,62.38,-23.06,31.46,5.44
25.00,1.00,258.25,7.69,-49.31,-17.94,16.94,8.38,31.46,5.44
25.00,2.00,3.75,-8.00,3.06,-24.94,10.88,6.88,31.46,5.44
25.00,0.00,242.00,17.62,-132.75,-57.75,55.44,-24.88,30.69,5.46
25.00,1.00,258.00,7.56,-48.94,-19.50,13.94,4.56,30.69,5.46
25.00,2.00,3.56,-8.19,3.50,-23.50,9.81,5.50,30.69,5.46
25.00,0.00,241.12,17.88,-131.38,-54.06,47.75,-26.81,29.95,5.48
25.00,1.00,257.88,7.44,-48.50,-19.81,13.31,3.81,29.95,5.48
25.00,2.00,3.50,-8.38,3.94,-21.06,11.69,2.31,29.95,5.48
25.00,0.00,240.94,18.00,-130.06,-48.12,38.19,-26.00,29.41,5.50
25.00,1.00,257.69,7.38,-48.12,-20.19,12.69,3.88,29.41,5.50
25.00,2.00,3.44,-8.62,4.38,-24.00,11.00,3.19,29.41,5.50
25.00,0.00,240.62,18.06,-128.94,-44.81,30.38,-23.94,28.94,5.52
25.00,1.00,257.56,7.25,-47.69,-21.62,12.88,4.00,28.94,5.52
25.00,2.00,3.31,-8.81,4.81,-23.88,11.19,4.25,28.94,5.52
25.00,0.00,240.81,18.00,-127.88,-43.75,24.19,-23.44,28.48,5.54
25.00,1.00,257.38,7.12,-47.25,-21.69,13.31,4.19,28.48,5.54
25.00,2.00,3.19,-9.06,5.25,-23.56,10.44,4.69,28.48,5.54
25.00,0.00,241.12,17.88,-126.88,-41.19,19.19,-22.56,28.15,5.56
25.00,1.00,257.19,7.00,-46.81,-21.25,15.31,4.69,28.15,5.56
25.00,2.00,3.06,-9.19,5.69,-26.19,6.50,6.12,28.15,5.56
25.00,0.00,241.31,17.75,-126.00,-36.62,15.06,-19.88,27.88,5.58
25.00,1.00,257.00,6.88,-46.38,-21.44,15.00,3.50,27.88,5.58
25.00,2.00,2.88,-9.31,6.12,-24.88,6.19,5.94,27.88,5.58
25.00,0.00,241.62,17.62,-125.19,-33.25,13.62,-16.81,27.64,5.60
25.00,1.00,256.88,6.75,-45.94,-21.25,14.81,3.19,27.64,5.60
25.00,2.00,2.75,-9.50,6.56,-22.69,8.31,5.69,27.64,5.60
25.00,0.00,241.62,17.50,-124.44,-32.06,13.75,-15.88,27.44,5.62
25.00,1.00,256.69,6.56,-45.50,-21.62,14.56,4.06,27.44,5.62
25.00,2.00,2.62,-9.69,6.94,-22.75,7.56,6.31,27.44,5.62
25.00,0.00,241.88,17.44,-123.75,-30.38,13.81,-14.94,27.31,5.64
25.00,1.00,256.50,6.44,-45.06,-22.88,15.12,5.19,27.31,5.64
25.00,2.00,2.44,-9.81,7.38,-24.88,4.75,7.62,27.31,5.64
25.00,0.00,242.00,17.38,-123.00,-29.56,16.25,-12.50,27.23,5.66
25.00,1.00,256.31,6.31,-44.62,-23.06,14.81,4.50,27.23,5.66
25.00,2.00,2.19,-9.88,7.81,-25.69,1.25,8.94,27.23,5.66
25.00,0.00,241.94,17.38,-122.31,-29.94,18.50,-12.25,27.10,5.68
25.00,1.00,256.12,6.19,-44.12,-22.75,14.19,4.50,27.10,5.68
25.00,2.00,2.00,-9.88,8.25,-24.56,0.62,9.81,27.10,5.68
25.00,0.00,241.81,17.44,-121.62,-27.62,20.44,-9.62,27.00,5.70
25.00,1.00,255.94,6.06,-43.69,-22.62,14.69,5.44,27.00,5.70
25.00,2.00,1.75,-9.94,8.69,-22.75,2.12,10.31,27.00,5.70
25.00,0.00,241.50,17.50,-120.94,-30.25,24.38,-8.94,26.82,5.72
25.00,1.00,255.75,5.94,-43.19,-23.31,15.06,5.44,26.82,5.72
25.00,2.00,1.50,-10.06,9.00,-22.25,2.81,10.88,26.82,5.72
25.00,0.00,241.25,17.56,-120.12,-31.25,25.31,-9.56,26.68,5.74
25.00,1.00,255.56,5.81,-42.75,-24.75,15.81,6.75,26.68,5.74
25.00,2.00,1.25,-10.12,9.38,-25.12,1.12,12.19,26.68,5.74
25.00,0.00,241.00,17.69,-119.38,-30.50,26.31,-9.44,26.59,5.76
25.00,1.00,255.31,5.62,-42.19,-25.50,16.75,5.44,26.59,5.76
25.00,2.00,0.94,-10.19,9.88,-26.56,-0.44,12.62,26.59,5.76
25.00,0.00,240.56,17.75,-118.62,-29.88,25.69,-8.50,26.48,5.78
25.00,1.00,255.12,5.50,-41.69,-25.31,16.75,5.00,26.48,5.78
25.00,2.00,0.69,-10.19,10.31,-25.00,1.25,12.25,26.48,5.78
25.00,0.00,240.31,17.88,-117.88,-30.44,25.75,-8.31,26.36,5.80
25.00,1.00,254.94,5.31,-41.19,-26.56,16.88,5.81,26.36,5.80
25.00,2.00,0.38,-10.31,10.75,-25.19,2.56,12.38,26.36,5.80
25.00,0.00,240.19,17.94,-117.50,-29.81,24.38,-8.50,26.36,5.82
25.00,1.00,254.69,5.12,-40.62,-27.81,17.62,6.31,26.36,5.82
25.00,2.00,0.06,-10.38,11.25,-29.69,0.25,14.00,26.36,5.82
25.00,0.00,239.81,18.00,-116.44,-28.38,23.00,-8.69,26.43,5.84
25.00,1.00,254.50,4.94,-40.06,-27.88,18.00,5.31,26.43,5.84
25.00,2.00,359.75,-10.44,11.81,-31.44,-1.06,14.69,26.43,5.84
25.00,0.00,239.62,18.06,-115.75,-26.62,21.88,-8.25,26.53,5.86
25.00,1.00,254.31,4.75,-39.50,-27.75,17.44,4.62,26.53,5.86
25.00,2.00,359.38,-10.44,12.31,-31.25,-0.44,13.62,26.53,5.86
25.00,0.00,239.38,18.06,-115.44,-24.31,20.19,-8.12,26.67,5.88
25.00,1.00,254.12,4.56,-38.94,-27.31,17.50,4.62,26.67,5.88
25.00,2.00,359.12,-10.50,12.88,-30.31,0.62,12.19,26.67,5.88
25.00,0.00,239.25,18.06,-114.88,-21.31,18.31,-7.62,26.84,5.90
25.00,1.00,254.00,4.31,-38.38,-27.56,16.88,3.88,26.84,5.90
25.00,2.00,358.81,-10.62,13.44,-28.94,1.19,10.19,26.84,5.90
25.00,0.00,239.06,18.06,-114.31,-18.81,16.31,-7.62,27.06,5.92
25.00,1.00,253.81,4.12,-37.81,-28.31,14.56,3.25,27.06,5.92
25.00,2.00,358.62,-10.62,13.94,-28.88,0.50,9.38,27.06,5.92
25.00,0.00,239.00,18.06,-113.88,-14.81,13.25,-6.25,27.38,5.94
25.00,1.00,253.69,4.00,-37.25,-27.50,12.44,2.38,27.38,5.94
25.00,2.00,358.38,-10.69,14.44,-28.69,-1.50,8.25,27.38,5.94
25.00,0.00,238.88,18.06,-113.50,-12.56,12.44,-5.00,27.71,5.96
25.00,1.00,253.62,3.81,-36.75,-25.00,11.12,2.06,27.71,5.96
25.00,2.00,358.19,-10.69,15.00,-27.31,-3.12,7.50,27.71,5.96
25.00,0.00,238.75,18.00,-113.12,-11.81,11.50,-5.00,28.02,5.98
25.00,1.00,253.56,3.69,-36.25,-23.38,8.88,1.44,28.02,5.98
25.00,2.00,358.00,-10.62,15.44,-25.81,-3.81,7.38,28.02,5.98
25.00,0.00,238.88,17.88,-112.81,-7.50,7.75,-5.38,28.37,6.00
25.00,1.00,253.50,3.56,-35.88,-21.56,7.25,-0.25,28.37,6.00
25.00,2.00,357.81,-10.56,15.88,-23.12,-3.69,5.69,28.37,6.00
25.00,0.00,238.94,17.75,-112.50,-5.44,7.12,-4.81,28.73,6.02
25.00,1.00,253.50,3.38,-35.25,-19.88,5.88,-0.62,28.73,6.02
25.00,2.00,357.69,-10.56,16.31,-21.44,-3.94,3.81,28.73,6.02
25.00,0.00,238.94,17.75,-112.44,-1.62,4.38,-4.44,29.18,6.04
25.00,1.00,253.50,3.31,-34.88,-18.88,4.06,-0.38,29.18,6.04
25.00,2.00,357.56,-10.50,16.69,-21.44,-5.00,3.88,29.18,6.04
25.00,0.00,239.00,17.62,-112.31,3.88,0.81,-3.06,29.71,6.06
25.00,1.00,253.50,3.25,-34.44,-16.06,3.44,-2.56,29.71,6.06
25.00,2.00,357.44,-10.38,17.06,-19.81,-4.88,2.88,29.71,6.06
25.00,0.00,239.12,17.56,-112.25,6.19,-0.31,-1.25,30.23,6.08
25.00,1.00,253.56,3.06,-33.88,-15.44,2.62,-3.75,30.23,6.08
25.00,2.00,357.31,-10.31,17.38,-17.25,-4.19,1.56,30.23,6.08
25.00,0.00,239.12,17.50,-112.31,9.00,-0.88,1.94,30.82,6.10
25.00,1.00,253.69,2.94,-33.38,-14.06,1.12,-3.69,30.82,6.10
25.00,2.00,357.31,-10.25,17.94,-17.31,-3.69,0.44,30.82,6.10
25.00,0.00,239.06,17.50,-112.38,6.69,0.75,0.44,31.34,6.12
25.00,1.00,253.75,2.88,-32.94,-13.69,1.44,-3.81,31.34,6.12
25.00,2.00,357.25,-10.19,18.50,-16.44,-4.62,0.69,31.34,6.12
25.00,0.00,239.12,17.44,-112.50,9.06,-2.44,-1.62,31.83,6.14
25.00,1.00,253.88,2.69,-32.50,-12.19,0.69,-4.75,31.83,6.14
25.00,2.00,357.25,-10.19,18.88,-12.69,-3.38,-0.50,31.83,6.14
25.00,0.00,239.12,17.38,-112.62,9.38,-1.50,1.38,32.31,6.16
25.00,1.00,253.94,2.62,-32.06,-11.81,0.38,-2.88,32.31,6.16
25.00,2.00,357.19,-10.12,19.25,-12.19,-4.44,-0.06,32.31,6.16
25.00,0.00,239.06,17.44,-112.81,8.38,-0.50,1.62,32.79,6.18
25.00,1.00,253.94,2.56,-31.88,-10.31,-0.25,-1.81,32.79,6.18
25.00,2.00,357.19,-10.06,19.62,-13.00,-6.44,1.19,32.79,6.18
25.00,0.00,239.06,17.38,-112.75,4.69,3.62,0.06,33.16,6.20
25.00,1.00,254.00,2.50,-31.38,-8.31,1.50,-2.00,33.16,6.20
25.00,2.00,357.06,-10.00,20.00,-11.56,-7.12,1.56,33.16,6.20
25.00,0.00,239.00,17.38,-112.62,4.50,4.88,0.25,33.46,6.22
25.00,1.00,254.06,2.50,-31.19,-8.56,1.06,-0.88,33.46,6.22
25.00,2.00,357.00,-9.88,20.19,-8.75,-5.00,1.44,33.46,6.22
25.00,0.00,238.94,17.38,-112.50,3.69,6.56,1.38,33.72,6.24
25.00,1.00,254.06,2.44,-30.81,-8.12,0.31,-0.56,33.72,6.24
25.00,2.00,357.00,-9.81,20.38,-7.94,-3.75,1.31,33.72,6.24
25.00,0.00,238.81,17.38,-112.38,2.00,8.31,0.56,33.95,6.26
25.00,1.00,254.06,2.44,-30.56,-5.25,3.25,-0.44,33.95,6.26
25.00,2.00,356.94,-9.81,20.56,-8.38,-3.31,2.19,33.95,6.26
25.00,0.00,238.94,17.38,-112.25,1.88,6.75,-0.69,34.14,6.28
25.00,1.00,254.06,2.44,-30.50,-6.19,2.06,-0.19,34.14,6.28
25.00,2.00,356.88,-9.75,20.75,-6.69,-1.62,2.00,34.14,6.28
25.00,0.00,238.88,17.38,-112.12,0.69,6.50,-0.88,34.27,6.30
25.00,1.00,254.06,2.31,-30.25,-5.19,2.56,0.00,34.27,6.30
25.00,2.00,356.81,-9.75,20.81,-5.19,-0.62,1.75,34.27,6.30
25.00,0.00,238.88,17.31,-112.00,-1.81,4.94,-2.25,34.36,6.32
25.00,1.00,254.06,2.31,-30.25,-4.00,2.62,0.19,34.36,6.32
25.00,2.00,356.75,-9.75,20.94,-5.50,-1.50,2.19,34.36,6.32
25.00,0.00,238.94,17.25,-111.94,-2.62,3.56,-3.44,34.37,6.34
25.00,1.00,254.00,2.25,-30.12,-3.31,2.44,-0.19,34.37,6.34
25.00,2.00,356.69,-9.75,21.00,-3.25,-1.12,1.88,34.37,6.34
25.00,0.00,239.06,17.19,-111.94,1.94,-7.00,-2.81,34.49,6.36
25.00,1.00,254.00,2.19,-30.06,-2.62,2.94,0.25,34.49,6.36
25.00,2.00,356.69,-9.75,21.06,-3.44,-0.12,0.94,34.49,6.36
25.00,0.00,239.50,17.12,-112.00,0.38,-3.94,-0.38,34.61,6.38
25.00,1.00,254.00,2.19,-30.00,-2.69,2.56,0.19,34.61,6.38
25.00,2.00,356.69,-9.75,21.19,-4.94,0.12,0.12,34.61,6.38
25.00,0.00,239.56,17.12,-112.00,0.38,-2.25,-0.12,34.70,6.40
25.00,1.00,254.00,2.12,-29.94,-1.81,1.19,-1.12,34.70,6.40
25.00,2.00,356.69,-9.75,21.25,-3.75,-0.25,-0.75,34.70,6.40
25.00,0.00,239.62,17.06,-112.00,0.44,-2.81,0.25,34.73,6.42
25.00,1.00,254.00,2.12,-29.94,-1.69,0.75,-1.38,34.73,6.42
25.00,2.00,356.69,-9.75,21.31,-0.75,0.62,-1.81,34.73,6.42
25.00,0.00,239.69,17.06,-112.00,0.31,-3.75,1.38,34.76,6.44
25.00,1.00,254.06,2.06,-29.88,-1.38,-0.12,-1.62,34.76,6.44
25.00,2.00,356.75,-9.75,21.31,-1.12,-0.31,-2.31,34.76,6.44
25.00,0.00,239.75,17.12,-112.06,-0.19,-3.56,2.62,34.79,6.46
25.00,1.00,254.12,2.06,-29.88,-1.06,-0.94,-1.31,34.79,6.46
25.00,2.00,356.75,-9.69,21.38,-1.56,-1.69,-2.00,34.79,6.46
25.00,0.00,240.06,17.12,-112.06,0.06,-2.94,3.12,34.82,6.48
25.00,1.00,254.12,2.06,-29.81,-0.81,-1.62,-0.56,34.82,6.48
25.00,2.00,356.81,-9.62,21.38,-1.25,-2.56,-2.00,34.82,6.48
25.00,0.00,240.06,17.19,-112.06,0.38,-2.19,2.81,34.84,6.50
25.00,1.00,254.12,2.12,-29.81,0.06,-2.25,-0.62,34.84,6.50
25.00,2.00,356.81,-9.56,21.38,-0.56,-2.25,-2.44,34.84,6.50
25.00,0.00,240.06,17.25,-112.12,-0.19,-0.81,2.88,34.84,6.52
25.00,1.00,254.12,2.12,-29.81,0.25,-2.19,-0.38,34.84,6.52
25.00,2.00,356.88,-9.50,21.44,0.12,-2.06,-2.94,34.84,6.52
25.00,0.00,240.31,17.31,-112.12,-0.69,-0.69,3.31,34.84,6.54
25.00,1.00,254.12,2.19,-29.81,0.75,-2.75,0.44,34.84,6.54
25.00,2.00,356.94,-9.44,21.44,-0.81,-3.19,-2.69,34.84,6.54
25.00,0.00,240.25,17.31,-112.12,-0.44,0.06,2.88,34.82,6.56
25.00,1.00,254.19,2.25,-29.88,1.25,-2.69,0.31,34.82,6.56
25.00,2.00,357.00,-9.38,21.44,0.25,-2.81,-3.06,34.82,6.56
25.00,0.00,240.25,17.38,-112.12,0.00,-0.12,2.44,34.80,6.58
25.00,1.00,254.19,2.25,-29.88,1.00,-2.94,0.44,34.80,6.58
25.00,2.00,357.00,-9.31,21.44,1.12,-2.38,-3.06,34.80,6.58
25.00,0.00,240.19,17.44,-112.12,-0.06,-0.25,1.81,34.77,6.60
25.00,1.00,254.19,2.31,-29.94,1.12,-2.38,0.81,34.77,6.60
25.00,2.00,357.06,-9.25,21.38,1.19,-2.12,-2.69,34.77,6.60
25.00,0.00,240.19,17.44,-112.12,0.56,0.00,1.44,34.79,6.62
25.00,1.00,254.19,2.38,-29.94,1.25,-2.44,1.06,34.79,6.62
25.00,2.00,357.12,-9.19,21.38,-0.25,-3.56,-1.69,34.79,6.62
25.00,0.00,240.25,17.44,-112.19,1.38,-0.38,1.06,34.82,6.64
25.00,1.00,254.19,2.44,-29.94,1.88,-2.62,0.94,34.82,6.64
25.00,2.00,357.12,-9.06,21.38,0.12,-4.25,-1.50,34.82,6.64
25.00,0.00,240.25,17.44,-112.19,1.81,-1.19,1.25,34.81,6.66
25.00,1.00,254.19,2.50,-30.00,1.44,-3.00,0.62,34.81,6.66
25.00,2.00,357.12,-9.00,21.38,2.06,-2.44,-2.25,34.81,6.66
