Iteration,IMUNo,OrientationX (deg),OrientationY,OrientationZ,GyroX (20rad/sec),GyroY,GyroZ,Elbow_Pos (rad),Time (sec)
26.00,0.00,275.81,-4.00,-98.62,-0.88,-0.38,-1.06,0.02,0.00
26.00,1.00,260.94,0.75,-42.19,3.25,3.69,-7.94,0.02,0.00
26.00,2.00,4.38,-17.44,11.94,-1.56,-0.06,-2.31,0.02,0.00
26.00,0.00,278.62,-5.12,-97.12,2.69,-4.56,-3.69,0.10,1.02
26.00,1.00,261.06,-4.38,-40.69,1.94,1.19,-1.25,0.10,1.02
26.00,2.00,3.75,-19.62,13.06,-1.00,3.69,-1.12,0.10,1.02
26.00,0.00,278.75,-5.19,-97.19,2.25,-3.94,-3.06,0.20,1.04
26.00,1.00,261.06,-4.38,-40.75,2.88,1.38,-1.38,0.20,1.04
26.00,2.00,3.75,-19.62,13.12,-2.06,2.44,-0.94,0.20,1.04
26.00,0.00,278.88,-5.25,-97.25,2.81,-3.31,-2.56,0.34,1.06
26.00,1.00,261.06,-4.38,-40.81,2.88,1.81,-1.94,0.34,1.06
26.00,2.00,3.81,-19.69,13.19,-3.50,3.19,-0.75,0.34,1.06
26.00,0.00,278.94,-5.25,-97.25,2.56,-3.31,-2.19,0.47,1.08
26.00,1.00,261.06,-4.44,-40.88,2.00,2.56,-1.12,0.47,1.08
26.00,2.00,3.81,-19.75,13.25,-3.19,3.88,-1.12,0.47,1.08
26.00,0.00,279.06,-5.31,-97.31,2.50,-3.56,-1.69,0.60,1.10
26.00,1.00,261.06,-4.50,-40.88,1.12,2.81,-0.44,0.60,1.10
26.00,2.00,3.81,-19.81,13.31,-2.88,3.56,-0.56,0.60,1.10
26.00,0.00,279.19,-5.31,-97.38,1.88,-3.88,-1.56,0.71,1.12
26.00,1.00,261.00,-4.50,-40.88,1.62,3.31,-0.56,0.71,1.12
26.00,2.00,3.81,-19.88,13.38,-3.06,1.81,0.19,0.71,1.12
26.00,0.00,279.25,-5.31,-97.38,1.75,-3.31,-1.31,0.82,1.14
26.00,1.00,261.00,-4.56,-40.94,1.44,3.06,0.25,0.82,1.14
26.00,2.00,3.75,-19.88,13.44,-3.25,1.19,1.12,0.82,1.14
26.00,0.00,279.31,-5.38,-97.44,2.19,-1.69,-0.94,0.95,1.16
26.00,1.00,261.00,-4.56,-40.94,2.12,2.50,0.25,0.95,1.16
26.00,2.00,3.75,-19.94,13.50,-3.12,1.25,1.25,0.95,1.16
26.00,0.00,279.31,-5.31,-97.50,2.12,-0.31,-0.62,1.04,1.18
26.00,1.00,260.94,-4.62,-41.00,1.06,1.88,1.31,1.04,1.18
26.00,2.00,3.75,-19.94,13.56,-1.81,2.19,0.88,1.04,1.18
26.00,0.00,279.31,-5.31,-97.50,1.62,0.38,0.06,1.12,1.20
26.00,1.00,260.94,-4.62,-41.00,1.62,1.44,1.06,1.12,1.20
26.00,2.00,3.69,-20.00,13.56,-1.88,0.81,1.06,1.12,1.20
26.00,0.00,279.31,-5.31,-97.56,1.38,1.38,0.38,1.20,1.22
26.00,1.00,260.88,-4.62,-41.06,3.00,1.38,1.38,1.20,1.22
26.00,2.00,3.69,-20.00,13.62,-2.12,-0.62,1.56,1.20,1.22
26.00,0.00,279.25,-5.31,-97.62,1.81,1.25,0.50,1.27,1.24
26.00,1.00,260.88,-4.62,-41.12,3.38,1.19,0.81,1.27,1.24
26.00,2.00,3.62,-20.00,13.62,-1.25,0.88,1.56,1.27,1.24
26.00,0.00,279.25,-5.31,-97.62,2.62,0.94,0.38,1.35,1.26
26.00,1.00,260.81,-4.62,-41.19,2.50,1.06,0.94,1.35,1.26
26.00,2.00,3.62,-20.06,13.62,-0.88,2.50,0.88,1.35,1.26
26.00,0.00,279.25,-5.31,-97.69,2.12,0.19,0.31,1.43,1.28
26.00,1.00,260.81,-4.62,-41.19,2.12,0.62,0.38,1.43,1.28
26.00,2.00,3.62,-20.06,13.69,-1.38,1.00,0.69,1.43,1.28
26.00,0.00,279.25,-5.31,-97.75,2.06,-0.38,-0.12,1.50,1.30
26.00,1.00,260.81,-4.62,-41.25,1.75,-0.19,-0.06,1.50,1.30
26.00,2.00,3.62,-20.06,13.69,-1.25,0.50,0.31,1.50,1.30
26.00,0.00,279.25,-5.31,-97.75,2.00,-0.06,-0.44,1.56,1.32
26.00,1.00,260.81,-4.62,-41.25,1.69,-0.50,-1.19,1.56,1.32
26.00,2.00,3.62,-20.12,13.69,-0.50,1.38,-0.31,1.56,1.32
26.00,0.00,279.25,-5.31,-97.81,2.62,-0.19,-0.88,1.62,1.34
26.00,1.00,260.88,-4.62,-41.31,0.94,-0.75,-1.50,1.62,1.34
26.00,2.00,3.62,-20.12,13.69,-0.25,1.44,-1.50,1.62,1.34
26.00,0.00,279.31,-5.38,-97.88,2.88,-0.69,-0.81,1.71,1.36
26.00,1.00,260.94,-4.62,-41.31,0.69,-1.06,-1.38,1.71,1.36
26.00,2.00,3.69,-20.12,13.75,-0.75,1.44,-1.88,1.71,1.36
26.00,0.00,279.38,-5.38,-97.94,3.06,-1.31,-0.69,1.79,1.38
26.00,1.00,260.94,-4.62,-41.31,0.62,-1.50,-1.56,1.79,1.38
26.00,2.00,3.69,-20.19,13.75,-0.75,1.38,-1.88,1.79,1.38
26.00,0.00,279.44,-5.38,-98.00,2.81,-1.44,-0.88,1.87,1.40
26.00,1.00,261.00,-4.62,-41.31,0.25,-1.56,-1.25,1.87,1.40
26.00,2.00,3.75,-20.19,13.81,-0.38,2.19,-1.81,1.87,1.40
26.00,0.00,279.50,-5.44,-98.06,2.81,-2.06,-0.88,1.93,1.42
26.00,1.00,261.00,-4.62,-41.31,0.25,-0.94,-1.06,1.93,1.42
26.00,2.00,3.81,-20.25,13.81,0.19,2.25,-1.94,1.93,1.42
26.00,0.00,279.50,-5.44,-98.06,2.56,-2.25,-0.62,1.98,1.44
26.00,1.00,261.00,-4.62,-41.31,0.44,-0.69,-0.56,1.98,1.44
26.00,2.00,3.81,-20.25,13.81,0.12,1.44,-1.25,1.98,1.44
26.00,0.00,279.56,-5.44,-98.12,2.12,-2.19,-0.31,2.03,1.46
26.00,1.00,261.06,-4.62,-41.31,0.88,-0.75,-0.12,2.03,1.46
26.00,2.00,3.81,-20.25,13.81,-0.19,0.56,-0.69,2.03,1.46
26.00,0.00,279.62,-5.44,-98.19,1.75,-1.81,-0.19,2.07,1.48
26.00,1.00,261.06,-4.62,-41.31,0.44,-0.69,0.50,2.07,1.48
26.00,2.00,3.81,-20.25,13.81,0.06,0.44,-0.31,2.07,1.48
26.00,0.00,279.62,-5.44,-98.25,1.81,-1.00,0.00,2.10,1.50
26.00,1.00,261.00,-4.56,-41.31,-0.25,-0.56,1.19,2.10,1.50
26.00,2.00,3.81,-20.25,13.81,0.50,1.19,-0.19,2.10,1.50
26.00,0.00,279.62,-5.38,-98.25,1.75,-0.44,0.44,2.14,1.52
26.00,1.00,261.00,-4.56,-41.31,0.19,-0.62,0.75,2.14,1.52
26.00,2.00,3.81,-20.31,13.81,0.12,0.62,0.25,2.14,1.52
26.00,0.00,279.62,-5.38,-98.31,1.69,0.31,0.94,2.17,1.54
26.00,1.00,261.00,-4.50,-41.31,-0.25,-0.94,0.62,2.17,1.54
26.00,2.00,3.81,-20.31,13.81,0.25,0.19,-0.06,2.17,1.54
26.00,0.00,279.62,-5.38,-98.31,1.44,0.50,1.06,2.20,1.56
26.00,1.00,261.00,-4.50,-41.31,-0.06,0.00,0.94,2.20,1.56
26.00,2.00,3.81,-20.31,13.81,0.25,0.25,-0.69,2.20,1.56
26.00,0.00,279.56,-5.31,-98.38,0.88,0.94,1.31,2.23,1.58
26.00,1.00,260.94,-4.50,-41.31,-0.06,0.56,1.50,2.23,1.58
26.00,2.00,3.81,-20.31,13.81,-0.56,-0.12,0.19,2.23,1.58
26.00,0.00,279.50,-5.31,-98.38,0.62,1.00,1.38,2.27,1.60
26.00,1.00,260.94,-4.50,-41.31,0.69,0.94,1.50,2.27,1.60
26.00,2.00,3.81,-20.31,13.81,-1.12,-0.62,1.06,2.27,1.60
26.00,0.00,279.44,-5.25,-98.38,0.19,0.38,1.38,2.29,1.62
26.00,1.00,260.88,-4.44,-41.31,0.75,0.81,1.81,2.29,1.62
26.00,2.00,3.81,-20.31,13.81,-0.62,-0.75,1.25,2.29,1.62
26.00,0.00,279.44,-5.25,-98.38,0.31,0.56,1.12,2.30,1.64
26.00,1.00,260.81,-4.44,-41.31,0.94,0.44,1.38,2.30,1.64
26.00,2.00,3.75,-20.25,13.81,0.00,-0.69,1.19,2.30,1.64
26.00,0.00,279.38,-5.19,-98.38,0.31,0.50,1.00,2.30,1.66
26.00,1.00,260.81,-4.44,-41.38,1.00,0.19,1.56,2.30,1.66
26.00,2.00,3.75,-20.25,13.81,0.31,-0.69,0.88,2.30,1.66
26.00,0.00,279.38,-5.19,-98.38,0.44,1.12,1.00,2.30,1.68
26.00,1.00,260.81,-4.44,-41.38,0.88,0.31,1.31,2.30,1.68
26.00,2.00,3.75,-20.25,13.81,0.19,-0.44,0.75,2.30,1.68
26.00,0.00,279.31,-5.19,-98.38,0.25,1.06,0.75,2.31,1.70
26.00,1.00,260.75,-4.38,-41.38,0.62,-0.06,1.19,2.31,1.70
26.00,2.00,3.75,-20.25,13.81,0.00,-0.56,0.69,2.31,1.70
26.00,0.00,279.31,-5.12,-98.38,0.50,1.25,0.88,2.33,1.72
26.00,1.00,260.75,-4.38,-41.38,0.62,-0.25,0.88,2.33,1.72
26.00,2.00,3.75,-20.25,13.81,-0.38,-0.50,0.50,2.33,1.72
26.00,0.00,279.25,-5.12,-98.38,0.25,0.88,0.81,2.34,1.74
26.00,1.00,260.75,-4.38,-41.38,0.38,-0.19,0.75,2.34,1.74
26.00,2.00,3.69,-20.25,13.81,-0.38,-0.38,0.12,2.34,1.74
26.00,0.00,279.19,-5.12,-98.38,0.25,0.25,0.69,2.36,1.76
26.00,1.00,260.75,-4.38,-41.38,0.62,0.38,0.69,2.36,1.76
26.00,2.00,3.69,-20.25,13.81,-0.44,-0.56,-0.06,2.36,1.76
26.00,0.00,279.19,-5.12,-98.38,0.12,-0.62,0.38,2.37,1.78
26.00,1.00,260.69,-4.31,-41.38,0.62,0.00,0.69,2.37,1.78
26.00,2.00,3.69,-20.25,13.81,-0.44,-0.31,0.12,2.37,1.78
26.00,0.00,279.19,-5.12,-98.38,0.38,-0.62,0.31,2.38,1.80
26.00,1.00,260.69,-4.31,-41.44,0.81,-0.06,0.19,2.38,1.80
26.00,2.00,3.69,-20.25,13.81,0.06,-0.19,0.19,2.38,1.80
26.00,0.00,279.25,-5.12,-98.38,0.00,-0.62,0.25,2.38,1.82
26.00,1.00,260.69,-4.31,-41.44,0.50,0.19,0.56,2.38,1.82
26.00,2.00,3.69,-20.25,13.81,-0.12,-0.12,0.00,2.38,1.82
26.00,0.00,279.25,-5.12,-98.38,0.31,-0.44,0.38,2.40,1.84
26.00,1.00,260.69,-4.31,-41.44,0.62,0.25,0.50,2.40,1.84
26.00,2.00,3.69,-20.25,13.81,-0.56,-0.12,-0.06,2.40,1.84
26.00,0.00,279.25,-5.12,-98.38,0.25,-0.31,0.19,2.42,1.86
26.00,1.00,260.69,-4.31,-41.44,0.75,0.12,0.19,2.42,1.86
26.00,2.00,3.69,-20.25,13.81,-0.50,-0.25,-0.06,2.42,1.86
26.00,0.00,279.19,-5.06,-98.38,0.38,-0.25,0.06,2.43,1.88
26.00,1.00,260.69,-4.31,-41.44,0.31,-0.06,0.25,2.43,1.88
26.00,2.00,3.69,-20.25,13.81,-0.06,0.44,-0.50,2.43,1.88
26.00,0.00,279.19,-5.06,-98.44,0.50,-0.38,-0.31,2.44,1.90
26.00,1.00,260.69,-4.31,-41.44,0.75,0.00,0.12,2.44,1.90
26.00,2.00,3.69,-20.25,13.81,0.06,0.44,-0.38,2.44,1.90
26.00,0.00,279.19,-5.06,-98.44,0.56,-0.56,0.00,2.46,1.92
26.00,1.00,260.69,-4.31,-41.44,0.44,-0.06,0.06,2.46,1.92
26.00,2.00,3.69,-20.25,13.81,-0.38,0.12,-0.25,2.46,1.92
26.00,0.00,279.19,-5.06,-98.44,0.56,-0.50,-0.12,2.49,1.94
26.00,1.00,260.69,-4.31,-41.44,0.50,-0.12,0.12,2.49,1.94
26.00,2.00,3.69,-20.25,13.81,-0.50,0.19,-0.31,2.49,1.94
26.00,0.00,279.19,-5.06,-98.44,0.31,-0.56,-0.25,2.50,1.96
26.00,1.00,260.69,-4.31,-41.44,0.25,0.44,0.06,2.50,1.96
26.00,2.00,3.69,-20.25,13.81,-0.50,0.00,-0.31,2.50,1.96
26.00,0.00,279.19,-5.06,-98.44,0.12,0.06,-0.25,2.52,1.98
26.00,1.00,260.69,-4.31,-41.44,0.50,0.44,-0.06,2.52,1.98
26.00,2.00,3.69,-20.25,13.81,-0.69,0.12,0.06,2.52,1.98
26.00,0.00,279.19,-5.06,-98.44,0.12,0.25,-0.38,2.54,2.00
26.00,1.00,260.69,-4.31,-41.44,0.25,0.38,-0.06,2.54,2.00
26.00,2.00,3.69,-20.25,13.81,-0.62,-0.12,0.00,2.54,2.00
26.00,0.00,279.19,-5.06,-98.44,0.12,0.38,-0.19,2.56,2.02
26.00,1.00,260.69,-4.31,-41.44,0.38,0.44,-0.12,2.56,2.02
26.00,2.00,3.69,-20.25,13.81,-0.56,-0.06,0.00,2.56,2.02
26.00,0.00,279.19,-5.06,-98.44,0.12,0.25,-0.12,2.57,2.04
26.00,1.00,260.69,-4.31,-41.44,0.62,0.88,-0.06,2.57,2.04
26.00,2.00,3.69,-20.25,13.81,-0.56,0.19,-0.06,2.57,2.04
26.00,0.00,279.19,-5.06,-98.44,0.25,0.12,0.00,2.59,2.06
26.00,1.00,260.69,-4.31,-41.44,0.25,0.44,0.00,2.59,2.06
26.00,2.00,3.69,-20.25,13.81,-0.62,0.12,0.00,2.59,2.06
26.00,0.00,279.19,-5.06,-98.44,-0.25,-0.44,-0.12,2.61,2.08
26.00,1.00,260.69,-4.31,-41.44,0.50,0.50,0.19,2.61,2.08
26.00,2.00,3.69,-20.25,13.88,-0.88,0.12,0.19,2.61,2.08
26.00,0.00,279.19,-5.06,-98.44,0.31,-0.44,-0.12,2.63,2.10
26.00,1.00,260.69,-4.25,-41.44,0.25,0.25,0.12,2.63,2.10
26.00,2.00,3.69,-20.25,13.88,-0.94,0.12,-0.06,2.63,2.10
26.00,0.00,279.19,-5.06,-98.44,0.25,-0.44,-0.31,2.66,2.12
26.00,1.00,260.69,-4.25,-41.44,0.00,0.38,0.19,2.66,2.12
26.00,2.00,3.69,-20.25,13.88,-0.69,-0.06,-0.25,2.66,2.12
26.00,0.00,279.19,-5.06,-98.44,0.38,-0.19,0.00,2.68,2.14
26.00,1.00,260.69,-4.25,-41.44,0.06,0.31,0.62,2.68,2.14
26.00,2.00,3.69,-20.25,13.88,-0.75,-0.12,-0.31,2.68,2.14
26.00,0.00,279.19,-5.06,-98.44,0.00,-0.12,0.25,2.71,2.16
26.00,1.00,260.62,-4.25,-41.44,-0.06,0.12,0.75,2.71,2.16
26.00,2.00,3.69,-20.25,13.94,-1.06,-0.44,0.12,2.71,2.16
26.00,0.00,279.19,-5.06,-98.44,-0.12,0.12,0.25,2.73,2.18
26.00,1.00,260.62,-4.25,-41.44,0.00,-0.19,0.31,2.73,2.18
26.00,2.00,3.69,-20.25,13.94,-1.19,-0.81,0.31,2.73,2.18
26.00,0.00,279.19,-5.00,-98.44,0.25,0.38,0.69,2.75,2.20
26.00,1.00,260.62,-4.25,-41.44,-0.12,0.25,0.06,2.75,2.20
26.00,2.00,3.69,-20.25,13.94,-0.56,-0.19,-0.12,2.75,2.20
26.00,0.00,279.12,-5.00,-98.44,0.62,0.44,0.75,2.76,2.22
26.00,1.00,260.62,-4.25,-41.44,0.06,0.19,0.69,2.76,2.22
26.00,2.00,3.69,-20.25,13.94,0.12,0.25,-0.38,2.76,2.22
26.00,0.00,279.12,-5.00,-98.44,0.12,0.06,0.62,2.77,2.24
26.00,1.00,260.62,-4.25,-41.44,0.62,-0.06,0.69,2.77,2.24
26.00,2.00,3.69,-20.25,13.94,-0.12,0.06,-0.12,2.77,2.24
26.00,0.00,279.12,-5.00,-98.44,-0.12,-0.38,0.38,2.77,2.26
26.00,1.00,260.62,-4.25,-41.44,0.62,0.06,0.75,2.77,2.26
26.00,2.00,3.69,-20.25,13.94,-0.38,-0.19,-0.06,2.77,2.26
26.00,0.00,279.12,-5.00,-98.44,0.06,-0.19,0.19,2.78,2.28
26.00,1.00,260.62,-4.25,-41.44,0.75,0.19,0.75,2.78,2.28
26.00,2.00,3.69,-20.25,13.94,-0.25,-0.56,0.12,2.78,2.28
26.00,0.00,279.12,-5.00,-98.44,0.06,-0.56,0.44,2.78,2.30
26.00,1.00,260.62,-4.25,-41.44,0.69,0.12,0.75,2.78,2.30
26.00,2.00,3.69,-20.25,13.94,0.06,-0.56,0.38,2.78,2.30
26.00,0.00,279.12,-5.00,-98.44,-0.12,-0.38,0.56,2.78,2.32
26.00,1.00,260.62,-4.25,-41.50,0.50,0.25,0.69,2.78,2.32
26.00,2.00,3.69,-20.25,13.94,-0.06,-0.38,0.38,2.78,2.32
26.00,0.00,279.12,-5.00,-98.44,0.06,0.69,0.69,2.79,2.34
26.00,1.00,260.56,-4.19,-41.50,0.31,0.12,0.94,2.79,2.34
26.00,2.00,3.69,-20.25,13.94,-0.56,-0.38,0.44,2.79,2.34
26.00,0.00,279.12,-5.00,-98.44,0.25,0.94,0.50,2.81,2.36
26.00,1.00,260.56,-4.19,-41.50,0.44,0.56,0.75,2.81,2.36
26.00,2.00,3.69,-20.25,13.94,-0.69,-0.56,0.31,2.81,2.36
26.00,0.00,279.06,-5.00,-98.44,0.06,0.62,0.62,2.83,2.38
26.00,1.00,260.56,-4.19,-41.50,0.44,0.44,0.69,2.83,2.38
26.00,2.00,3.69,-20.25,13.94,-0.50,-0.12,0.81,2.83,2.38
26.00,0.00,279.06,-5.00,-98.44,-0.12,0.50,0.50,2.83,2.40
26.00,1.00,260.56,-4.19,-41.50,0.69,0.44,0.75,2.83,2.40
26.00,2.00,3.69,-20.25,14.00,-0.44,-0.19,0.50,2.83,2.40
26.00,0.00,279.06,-5.00,-98.44,0.00,0.06,0.19,2.84,2.42
26.00,1.00,260.56,-4.19,-41.50,0.81,0.50,0.75,2.84,2.42
26.00,2.00,3.69,-20.25,14.00,-0.25,-0.12,0.50,2.84,2.42
26.00,0.00,279.06,-5.00,-98.44,0.12,-0.56,0.12,2.85,2.44
26.00,1.00,260.50,-4.19,-41.50,0.81,0.38,0.81,2.85,2.44
26.00,2.00,3.69,-20.25,14.00,-0.31,-0.38,0.56,2.85,2.44
26.00,0.00,279.06,-5.00,-98.44,0.12,-0.56,0.06,2.85,2.46
26.00,1.00,260.50,-4.19,-41.50,0.94,0.38,0.50,2.85,2.46
26.00,2.00,3.69,-20.25,14.00,-0.12,-0.19,0.44,2.85,2.46
26.00,0.00,279.06,-5.00,-98.44,0.19,0.00,0.38,2.87,2.48
26.00,1.00,260.50,-4.19,-41.56,0.56,0.25,0.50,2.87,2.48
26.00,2.00,3.69,-20.25,14.00,-0.56,-0.31,0.38,2.87,2.48
26.00,0.00,279.06,-5.00,-98.44,0.06,0.19,0.38,2.88,2.50
26.00,1.00,260.50,-4.19,-41.56,0.00,-0.12,0.44,2.88,2.50
26.00,2.00,3.69,-20.25,14.00,-0.50,-0.06,0.19,2.88,2.50
26.00,0.00,279.06,-5.00,-98.44,0.19,0.44,0.38,2.90,2.52
26.00,1.00,260.50,-4.19,-41.56,0.25,-0.31,0.12,2.90,2.52
26.00,2.00,3.69,-20.25,14.00,-0.44,-0.19,0.00,2.90,2.52
26.00,0.00,279.06,-5.00,-98.44,0.12,-0.12,0.44,2.91,2.54
26.00,1.00,260.50,-4.19,-41.56,0.38,-0.31,-0.06,2.91,2.54
26.00,2.00,3.69,-20.25,14.00,-0.19,-0.06,-0.06,2.91,2.54
26.00,0.00,279.12,-5.00,-98.44,0.19,-0.69,0.19,2.91,2.56
26.00,1.00,260.50,-4.19,-41.56,0.38,-0.25,-0.12,2.91,2.56
26.00,2.00,3.69,-20.25,14.00,-0.06,0.06,-0.38,2.91,2.56
26.00,0.00,279.12,-5.00,-98.44,0.25,-0.75,0.00,2.91,2.58
26.00,1.00,260.50,-4.19,-41.56,0.62,-0.31,-0.50,2.91,2.58
26.00,2.00,3.69,-20.25,14.00,0.31,0.25,-0.38,2.91,2.58
26.00,0.00,279.12,-5.00,-98.44,0.38,-0.62,-0.19,2.91,2.60
26.00,1.00,260.50,-4.19,-41.56,0.50,-0.31,-0.62,2.91,2.60
26.00,2.00,3.69,-20.25,14.00,0.38,0.31,-0.44,2.91,2.60
26.00,0.00,279.12,-5.00,-98.44,0.50,-0.56,-0.25,2.91,2.62
26.00,1.00,260.50,-4.19,-41.56,0.50,-0.56,-0.81,2.91,2.62
26.00,2.00,3.69,-20.25,14.00,0.38,0.44,-0.56,2.91,2.62
26.00,0.00,279.12,-5.00,-98.44,0.38,-0.50,-0.12,2.92,2.64
26.00,1.00,260.56,-4.19,-41.56,0.06,-0.12,-0.88,2.92,2.64
26.00,2.00,3.69,-20.25,14.00,-0.12,0.44,-0.44,2.92,2.64
26.00,0.00,279.12,-5.00,-98.44,0.25,-0.38,-0.44,2.93,2.66
26.00,1.00,260.56,-4.19,-41.56,0.06,0.00,-0.88,2.93,2.66
26.00,2.00,3.69,-20.25,14.00,0.12,0.44,-0.25,2.93,2.66
26.00,0.00,279.12,-5.00,-98.44,0.25,-0.25,-0.69,2.93,2.68
26.00,1.00,260.56,-4.19,-41.56,0.00,0.06,-0.62,2.93,2.68
26.00,2.00,3.69,-20.25,14.00,0.06,1.00,-0.44,2.93,2.68
26.00,0.00,279.19,-5.00,-98.44,0.31,-0.44,-0.69,2.94,2.70
26.00,1.00,260.56,-4.19,-41.56,0.31,0.25,-0.75,2.94,2.70
26.00,2.00,3.69,-20.25,14.00,-0.12,0.69,-0.38,2.94,2.70
26.00,0.00,279.19,-5.00,-98.44,0.44,-0.56,-0.88,2.96,2.72
26.00,1.00,260.56,-4.19,-41.56,0.00,0.38,-0.50,2.96,2.72
26.00,2.00,3.69,-20.25,14.00,-0.38,0.75,-0.25,2.96,2.72
26.00,0.00,279.19,-5.00,-98.44,0.50,-0.81,-0.62,2.98,2.74
26.00,1.00,260.56,-4.19,-41.56,-0.25,0.19,-0.50,2.98,2.74
26.00,2.00,3.69,-20.25,14.00,-0.56,0.56,-0.12,2.98,2.74
26.00,0.00,279.25,-5.06,-98.44,0.38,-0.69,-0.75,3.00,2.76
26.00,1.00,260.56,-4.19,-41.56,0.00,0.31,-0.69,3.00,2.76
26.00,2.00,3.69,-20.25,14.00,-0.19,0.50,0.00,3.00,2.76
26.00,0.00,279.25,-5.06,-98.44,0.38,-0.31,-0.75,3.00,2.78
26.00,1.00,260.62,-4.25,-41.56,-0.06,0.00,-0.56,3.00,2.78
26.00,2.00,3.69,-20.31,14.00,0.12,0.88,-0.50,3.00,2.78
26.00,0.00,279.25,-5.06,-98.44,0.56,-0.44,-0.75,3.02,2.80
26.00,1.00,260.62,-4.25,-41.56,-0.12,0.25,-1.25,3.02,2.80
26.00,2.00,3.69,-20.31,14.00,-0.06,0.94,-0.56,3.02,2.80
26.00,0.00,279.25,-5.06,-98.44,0.50,-0.19,-0.75,3.04,2.82
26.00,1.00,260.62,-4.25,-41.56,-0.25,0.12,-0.75,3.04,2.82
26.00,2.00,3.69,-20.31,14.00,-0.44,1.00,-0.38,3.04,2.82
26.00,0.00,279.25,-5.06,-98.44,0.44,-0.19,-0.56,3.07,2.84
26.00,1.00,260.62,-4.25,-41.56,-0.19,0.12,-0.69,3.07,2.84
26.00,2.00,3.69,-20.31,14.00,-1.06,0.19,-0.12,3.07,2.84
26.00,0.00,279.31,-5.06,-98.44,0.31,-0.50,-0.69,3.09,2.86
26.00,1.00,260.69,-4.25,-41.56,-0.12,-0.19,-1.50,3.09,2.86
26.00,2.00,3.69,-20.31,14.00,-0.38,0.88,-0.75,3.09,2.86
26.00,0.00,279.31,-5.12,-98.44,0.31,-0.62,-0.44,3.10,2.88
26.00,1.00,260.69,-4.31,-41.56,-0.19,0.31,-1.44,3.10,2.88
26.00,2.00,3.75,-20.38,14.00,-0.12,1.44,-1.19,3.10,2.88
26.00,0.00,279.31,-5.12,-98.44,0.50,-0.81,-0.62,3.12,2.90
26.00,1.00,260.69,-4.31,-41.56,-0.25,0.31,-1.06,3.12,2.90
26.00,2.00,3.75,-20.38,14.06,-0.50,1.25,-1.06,3.12,2.90
26.00,0.00,279.38,-5.12,-98.44,0.38,-1.06,-0.56,3.14,2.92
26.00,1.00,260.75,-4.31,-41.56,0.44,0.19,-1.00,3.14,2.92
26.00,2.00,3.75,-20.38,14.06,-0.38,1.31,-0.88,3.14,2.92
26.00,0.00,279.38,-5.12,-98.44,0.19,-1.62,-0.75,3.15,2.94
26.00,1.00,260.75,-4.31,-41.56,0.19,-0.12,-0.94,3.15,2.94
26.00,2.00,3.81,-20.38,14.06,-0.25,0.75,-0.56,3.15,2.94
26.00,0.00,279.44,-5.12,-98.44,0.31,-1.31,-0.81,3.16,2.96
26.00,1.00,260.75,-4.31,-41.56,0.25,0.25,-0.88,3.16,2.96
26.00,2.00,3.81,-20.44,14.06,-0.31,0.69,-0.44,3.16,2.96
26.00,0.00,279.44,-5.19,-98.44,0.19,-0.56,-0.62,3.17,2.98
26.00,1.00,260.81,-4.38,-41.56,0.06,0.38,-0.75,3.17,2.98
26.00,2.00,3.81,-20.44,14.06,-0.06,0.62,-0.19,3.17,2.98
26.00,0.00,279.50,-5.19,-98.44,0.12,0.25,-0.62,3.17,3.00
26.00,1.00,260.81,-4.38,-41.56,0.06,0.12,-0.69,3.17,3.00
26.00,2.00,3.81,-20.44,14.06,-0.12,0.69,-0.38,3.17,3.00
26.00,0.00,279.44,-5.19,-98.44,0.44,0.69,-0.62,3.19,3.02
26.00,1.00,260.81,-4.38,-41.50,0.06,0.12,-0.81,3.19,3.02
26.00,2.00,3.81,-20.44,14.06,-0.44,1.00,-0.44,3.19,3.02
26.00,0.00,279.50,-5.19,-98.44,0.50,0.06,-0.62,3.21,3.04
26.00,1.00,260.81,-4.38,-41.50,0.12,0.25,-0.88,3.21,3.04
26.00,2.00,3.81,-20.44,14.06,-0.38,0.75,-0.56,3.21,3.04
26.00,0.00,279.50,-5.19,-98.44,0.81,-0.12,-0.69,3.24,3.06
26.00,1.00,260.88,-4.38,-41.50,0.12,0.38,-0.69,3.24,3.06
26.00,2.00,3.81,-20.50,14.06,-0.31,0.81,-0.25,3.24,3.06
26.00,0.00,279.50,-5.19,-98.44,0.44,-0.62,-0.88,3.25,3.08
26.00,1.00,260.88,-4.38,-41.50,0.19,0.50,-0.81,3.25,3.08
26.00,2.00,3.81,-20.50,14.06,-0.06,0.94,-0.38,3.25,3.08
26.00,0.00,279.56,-5.25,-98.44,0.50,-1.12,-0.94,3.26,3.10
26.00,1.00,260.88,-4.44,-41.50,0.38,0.38,-0.88,3.26,3.10
26.00,2.00,3.81,-20.50,14.06,-0.06,0.81,-0.25,3.26,3.10
26.00,0.00,279.56,-5.25,-98.44,0.44,-1.00,-1.06,3.27,3.12
26.00,1.00,260.88,-4.44,-41.50,0.44,0.06,-1.44,3.27,3.12
26.00,2.00,3.81,-20.50,14.06,0.19,0.56,-0.50,3.27,3.12
26.00,0.00,279.62,-5.25,-98.44,0.62,-0.75,-0.81,3.29,3.14
26.00,1.00,260.94,-4.44,-41.50,0.38,0.19,-1.44,3.29,3.14
26.00,2.00,3.81,-20.56,14.06,-0.06,0.81,-0.62,3.29,3.14
26.00,0.00,279.62,-5.31,-98.44,0.31,-0.38,-0.75,3.29,3.16
26.00,1.00,260.94,-4.44,-41.50,0.56,0.06,-1.38,3.29,3.16
26.00,2.00,3.81,-20.56,14.06,0.31,0.81,-0.25,3.29,3.16
26.00,0.00,279.69,-5.31,-98.44,0.50,-0.38,-0.56,3.30,3.18
26.00,1.00,261.00,-4.50,-41.50,0.50,0.06,-1.56,3.30,3.18
26.00,2.00,3.81,-20.56,14.06,0.00,0.81,-0.62,3.30,3.18
26.00,0.00,279.69,-5.31,-98.44,0.25,-0.81,-0.69,3.30,3.20
26.00,1.00,261.00,-4.50,-41.56,0.69,-0.19,-1.19,3.30,3.20
26.00,2.00,3.81,-20.56,14.06,0.12,0.94,-0.62,3.30,3.20
26.00,0.00,279.69,-5.31,-98.44,0.38,-0.88,-0.94,3.30,3.22
26.00,1.00,261.06,-4.50,-41.56,0.94,-0.12,-1.50,3.30,3.22
26.00,2.00,3.81,-20.62,14.06,0.31,1.06,-0.56,3.30,3.22
26.00,0.00,279.75,-5.31,-98.44,0.75,-1.12,-0.88,3.31,3.24
26.00,1.00,261.06,-4.56,-41.56,0.88,-0.25,-1.38,3.31,3.24
26.00,2.00,3.81,-20.62,14.06,0.31,1.06,-0.62,3.31,3.24
26.00,0.00,279.81,-5.38,-98.44,0.50,-1.62,-1.06,3.31,3.26
26.00,1.00,261.12,-4.56,-41.56,1.00,-0.19,-1.25,3.31,3.26
26.00,2.00,3.88,-20.62,14.06,0.62,1.12,-0.50,3.31,3.26
26.00,0.00,279.88,-5.38,-98.50,0.50,-1.50,-1.06,3.31,3.28
26.00,1.00,261.12,-4.56,-41.62,0.56,0.06,-1.06,3.31,3.28
26.00,2.00,3.88,-20.69,14.06,0.31,1.12,-0.50,3.31,3.28
26.00,0.00,279.94,-5.44,-98.44,0.19,-1.31,-0.81,3.32,3.30
26.00,1.00,261.12,-4.56,-41.62,0.56,0.12,-0.81,3.32,3.30
26.00,2.00,3.88,-20.69,14.06,-0.06,1.06,-0.12,3.32,3.30
26.00,0.00,279.94,-5.44,-98.44,0.25,-1.25,-0.75,3.33,3.32
26.00,1.00,261.19,-4.56,-41.62,0.50,0.25,-0.75,3.33,3.32
26.00,2.00,3.88,-20.69,14.06,-0.38,0.81,0.12,3.33,3.32
26.00,0.00,280.00,-5.44,-98.44,0.50,-1.19,-0.62,3.35,3.34
26.00,1.00,261.19,-4.62,-41.62,0.62,0.38,-0.69,3.35,3.34
26.00,2.00,3.88,-20.69,14.06,-0.19,1.06,0.31,3.35,3.34
26.00,0.00,280.06,-5.44,-98.44,0.75,-2.31,-0.94,3.38,3.36
26.00,1.00,261.19,-4.62,-41.62,0.69,0.44,-0.31,3.38,3.36
26.00,2.00,3.88,-20.75,14.12,-0.69,1.31,0.25,3.38,3.36
26.00,0.00,280.12,-5.50,-98.50,1.00,-2.75,-0.88,3.43,3.38
26.00,1.00,261.19,-4.62,-41.62,0.50,1.06,-0.06,3.43,3.38
26.00,2.00,3.88,-20.75,14.12,-1.31,1.50,0.44,3.43,3.38
26.00,0.00,280.25,-5.50,-98.50,1.06,-4.00,-1.50,3.50,3.40
26.00,1.00,261.19,-4.62,-41.62,0.00,1.19,0.06,3.50,3.40
26.00,2.00,3.88,-20.81,14.12,-1.62,2.06,0.50,3.50,3.40
26.00,0.00,280.38,-5.56,-98.50,1.06,-5.31,-2.19,3.56,3.42
26.00,1.00,261.12,-4.62,-41.62,0.25,1.38,0.44,3.56,3.42
26.00,2.00,3.81,-20.88,14.19,-1.81,2.25,0.69,3.56,3.42
26.00,0.00,280.56,-5.62,-98.50,1.12,-6.06,-2.44,3.63,3.44
26.00,1.00,261.12,-4.69,-41.62,-0.06,1.44,0.19,3.63,3.44
26.00,2.00,3.81,-20.88,14.25,-1.75,2.44,0.50,3.63,3.44
26.00,0.00,280.75,-5.69,-98.50,1.19,-6.50,-2.94,3.69,3.46
26.00,1.00,261.12,-4.69,-41.62,0.19,1.38,0.31,3.69,3.46
26.00,2.00,3.81,-20.94,14.25,-1.44,2.44,0.00,3.69,3.46
26.00,0.00,281.00,-5.75,-98.56,1.12,-6.50,-2.94,3.74,3.48
26.00,1.00,261.12,-4.69,-41.62,-0.06,1.25,-0.19,3.74,3.48
26.00,2.00,3.81,-21.00,14.31,-1.25,2.50,0.12,3.74,3.48
26.00,0.00,281.12,-5.81,-98.56,0.69,-5.19,-2.56,3.80,3.50
26.00,1.00,261.12,-4.75,-41.62,0.38,1.38,0.25,3.80,3.50
26.00,2.00,3.81,-21.00,14.31,-1.75,1.56,0.19,3.80,3.50
26.00,0.00,281.19,-5.81,-98.56,0.44,-3.44,-2.06,3.84,3.52
26.00,1.00,261.12,-4.75,-41.62,0.25,0.81,0.00,3.84,3.52
26.00,2.00,3.81,-21.06,14.38,-1.56,0.56,0.44,3.84,3.52
26.00,0.00,281.25,-5.81,-98.56,0.19,-1.62,-0.88,3.84,3.54
26.00,1.00,261.12,-4.75,-41.62,0.50,0.12,-0.56,3.84,3.54
26.00,2.00,3.81,-21.06,14.38,0.31,1.00,-0.38,3.84,3.54
26.00,0.00,281.25,-5.81,-98.56,0.31,0.19,0.00,3.83,3.56
26.00,1.00,261.12,-4.75,-41.62,0.69,-0.19,-0.81,3.83,3.56
26.00,2.00,3.88,-21.06,14.38,0.81,1.25,-0.81,3.83,3.56
26.00,0.00,281.19,-5.81,-98.56,0.50,1.62,0.25,3.83,3.58
26.00,1.00,261.12,-4.75,-41.62,0.56,-0.06,-0.38,3.83,3.58
26.00,2.00,3.88,-21.06,14.38,0.44,0.44,-0.19,3.83,3.58
26.00,0.00,281.12,-5.81,-98.56,0.12,1.31,0.38,3.82,3.60
26.00,1.00,261.12,-4.75,-41.69,1.06,-0.19,-0.19,3.82,3.60
26.00,2.00,3.88,-21.06,14.38,0.56,-0.06,0.12,3.82,3.60
26.00,0.00,281.12,-5.75,-98.62,-0.12,0.38,0.25,3.81,3.62
26.00,1.00,261.12,-4.75,-41.69,0.88,-0.19,0.19,3.81,3.62
26.00,2.00,3.88,-21.06,14.38,0.25,-0.31,0.31,3.81,3.62
26.00,0.00,281.12,-5.75,-98.62,-0.31,0.00,0.25,3.81,3.64
26.00,1.00,261.12,-4.75,-41.69,0.44,-0.19,0.50,3.81,3.64
26.00,2.00,3.88,-21.06,14.38,-0.06,-0.38,0.38,3.81,3.64
26.00,0.00,281.12,-5.75,-98.62,-0.31,0.19,0.19,3.81,3.66
26.00,1.00,261.12,-4.75,-41.69,0.06,0.00,0.62,3.81,3.66
26.00,2.00,3.88,-21.06,14.38,-0.50,-0.19,0.62,3.81,3.66
26.00,0.00,281.12,-5.75,-98.62,-0.12,0.38,0.12,3.82,3.68
26.00,1.00,261.12,-4.75,-41.69,-0.19,0.19,0.25,3.82,3.68
26.00,2.00,3.88,-21.06,14.38,-0.62,0.00,0.38,3.82,3.68
26.00,0.00,281.12,-5.75,-98.62,-0.06,0.12,0.06,3.83,3.70
26.00,1.00,261.12,-4.75,-41.69,0.00,0.31,0.44,3.83,3.70
26.00,2.00,3.88,-21.06,14.38,-0.62,0.06,0.38,3.83,3.70
26.00,0.00,281.12,-5.75,-98.62,0.25,-0.75,0.12,3.85,3.72
26.00,1.00,261.12,-4.75,-41.69,-0.19,0.12,0.44,3.85,3.72
26.00,2.00,3.88,-21.06,14.38,-0.44,-0.19,0.12,3.85,3.72
26.00,0.00,281.12,-5.75,-98.62,0.44,-0.81,0.12,3.87,3.74
26.00,1.00,261.12,-4.75,-41.69,-0.12,0.25,0.31,3.87,3.74
26.00,2.00,3.88,-21.06,14.38,-0.38,0.00,0.19,3.87,3.74
26.00,0.00,281.12,-5.75,-98.62,0.25,-0.88,0.25,3.87,3.76
26.00,1.00,261.12,-4.75,-41.69,0.06,0.19,0.38,3.87,3.76
26.00,2.00,3.88,-21.06,14.38,0.06,0.06,-0.06,3.87,3.76
26.00,0.00,281.12,-5.75,-98.62,0.06,-0.31,0.06,3.88,3.78
26.00,1.00,261.12,-4.75,-41.69,0.44,-0.31,0.56,3.88,3.78
26.00,2.00,3.88,-21.06,14.38,-0.06,-0.31,0.38,3.88,3.78
26.00,0.00,281.12,-5.75,-98.62,0.25,-0.31,0.25,3.87,3.80
26.00,1.00,261.12,-4.75,-41.69,0.69,-0.31,-0.06,3.87,3.80
26.00,2.00,3.88,-21.06,14.38,0.62,-0.12,0.25,3.87,3.80
26.00,0.00,281.12,-5.75,-98.62,0.38,0.44,0.19,3.86,3.82
26.00,1.00,261.12,-4.75,-41.69,0.69,-0.25,0.00,3.86,3.82
26.00,2.00,3.88,-21.06,14.38,0.62,-0.06,-0.25,3.86,3.82
26.00,0.00,281.12,-5.75,-98.62,0.06,0.06,0.19,3.85,3.84
26.00,1.00,261.12,-4.75,-41.75,0.81,-0.44,-0.06,3.85,3.84
26.00,2.00,3.88,-21.06,14.38,0.62,-0.06,0.06,3.85,3.84
26.00,0.00,281.56,-5.69,-98.62,0.19,-0.06,0.62,3.84,3.86
26.00,1.00,261.12,-4.75,-41.75,1.06,-0.62,-0.06,3.84,3.86
26.00,2.00,3.88,-21.06,14.31,0.69,0.00,-0.06,3.84,3.86
26.00,0.00,281.56,-5.69,-98.69,0.19,-0.12,0.94,3.83,3.88
26.00,1.00,261.12,-4.75,-41.75,0.62,-0.94,-0.06,3.83,3.88
26.00,2.00,3.88,-21.06,14.31,0.69,-0.06,-0.06,3.83,3.88
26.00,0.00,281.56,-5.69,-98.69,0.25,0.12,1.06,3.80,3.90
26.00,1.00,261.12,-4.69,-41.75,1.44,-1.12,0.50,3.80,3.90
26.00,2.00,3.88,-21.06,14.31,1.25,0.31,0.06,3.80,3.90
26.00,0.00,281.50,-5.62,-98.69,0.06,0.12,1.62,3.75,3.92
26.00,1.00,261.12,-4.69,-41.81,2.81,-1.50,1.38,3.75,3.92
26.00,2.00,3.88,-21.06,14.25,2.25,0.56,0.31,3.75,3.92
26.00,0.00,281.50,-5.56,-98.69,-0.12,0.25,2.00,3.70,3.94
26.00,1.00,261.12,-4.69,-41.81,3.81,-2.62,1.19,3.70,3.94
26.00,2.00,3.88,-21.06,14.25,2.31,-1.12,0.75,3.70,3.94
26.00,0.00,281.62,-5.50,-98.69,0.00,0.62,3.31,3.60,3.96
26.00,1.00,261.12,-4.56,-41.94,6.12,-3.69,1.94,3.60,3.96
26.00,2.00,3.88,-21.06,14.19,4.25,0.25,-0.56,3.60,3.96
26.00,0.00,281.50,-5.38,-98.75,0.38,-0.06,5.06,3.52,3.98
26.00,1.00,261.00,-4.50,-42.06,7.75,-1.81,4.62,3.52,3.98
26.00,2.00,3.94,-21.12,14.12,4.00,2.19,-1.38,3.52,3.98
26.00,0.00,281.31,-5.25,-98.81,1.69,0.56,6.56,3.43,4.00
26.00,1.00,261.00,-4.44,-42.12,7.56,-5.94,3.12,3.43,4.00
26.00,2.00,3.94,-21.12,14.06,5.31,-1.12,-0.62,3.43,4.00
26.00,0.00,281.06,-5.00,-98.88,4.00,1.19,9.69,3.41,4.02
26.00,1.00,260.94,-4.25,-42.38,10.25,-2.00,9.12,3.41,4.02
26.00,2.00,4.00,-21.12,14.06,4.88,-4.62,-0.19,3.41,4.02
26.00,0.00,280.81,-4.75,-99.00,7.25,1.06,14.06,3.53,4.04
26.00,1.00,260.88,-4.19,-42.50,12.00,-8.88,3.12,3.53,4.04
26.00,2.00,4.00,-21.00,14.06,2.38,-7.75,0.44,3.53,4.04
26.00,0.00,280.50,-4.44,-99.25,13.06,1.69,18.38,3.62,4.06
26.00,1.00,260.94,-3.94,-42.88,11.69,-9.62,2.25,3.62,4.06
26.00,2.00,4.06,-20.81,13.94,8.94,-7.44,-3.81,3.62,4.06
26.00,0.00,280.06,-4.00,-99.56,18.56,0.81,21.50,3.79,4.08
26.00,1.00,260.88,-3.81,-43.06,11.56,-5.88,4.31,3.79,4.08
26.00,2.00,4.19,-20.69,13.75,11.19,-6.56,-5.44,3.79,4.08
26.00,0.00,279.75,-3.56,-100.00,23.12,-0.69,23.69,4.08,4.10
26.00,1.00,260.94,-3.69,-43.19,9.81,-11.56,0.56,4.08,4.10
26.00,2.00,4.31,-20.50,13.56,10.56,-8.56,-5.06,4.08,4.10
26.00,0.00,279.38,-3.12,-100.50,26.81,-2.69,24.25,4.45,4.12
26.00,1.00,261.00,-3.56,-43.38,9.12,-8.00,2.56,4.45,4.12
26.00,2.00,4.38,-20.31,13.38,10.50,-9.88,-4.75,4.45,4.12
26.00,0.00,279.06,-2.69,-101.12,31.94,-4.62,23.44,4.98,4.14
26.00,1.00,261.06,-3.44,-43.50,8.06,-9.12,1.50,4.98,4.14
26.00,2.00,4.50,-20.12,13.25,8.50,-9.19,-3.56,4.98,4.14
26.00,0.00,278.81,-2.25,-101.81,37.50,-6.19,22.56,5.71,4.16
26.00,1.00,261.06,-3.25,-43.69,6.62,-7.44,2.31,5.71,4.16
26.00,2.00,4.56,-19.88,13.12,5.94,-11.56,-2.44,5.71,4.16
26.00,0.00,278.62,-1.88,-102.62,44.38,-9.31,22.31,6.62,4.18
26.00,1.00,261.06,-3.12,-43.75,6.12,-7.25,2.56,6.62,4.18
26.00,2.00,4.56,-19.62,13.00,4.50,-13.19,-2.06,6.62,4.18
26.00,0.00,278.56,-1.50,-103.62,53.00,-16.50,23.31,7.72,4.20
26.00,1.00,261.06,-2.94,-43.88,6.88,-7.25,2.56,7.72,4.20
26.00,2.00,4.56,-19.44,12.94,4.88,-11.38,-0.62,7.72,4.20
26.00,0.00,278.62,-1.19,-104.69,56.44,-21.56,22.56,8.83,4.22
26.00,1.00,261.06,-2.81,-44.00,6.31,-8.69,2.75,8.83,4.22
26.00,2.00,4.56,-19.19,12.75,7.50,-10.94,-0.81,8.83,4.22
26.00,0.00,278.88,-0.88,-105.81,58.06,-25.62,21.56,9.95,4.24
26.00,1.00,261.06,-2.62,-44.12,6.19,-8.44,2.50,9.95,4.24
26.00,2.00,4.62,-19.12,12.69,9.38,-12.19,-0.94,9.95,4.24
26.00,0.00,279.12,-0.62,-106.94,60.12,-24.94,22.31,11.06,4.26
26.00,1.00,261.06,-2.50,-44.25,7.56,-6.38,3.56,11.06,4.26
26.00,2.00,4.62,-18.75,12.38,11.38,-12.81,-0.56,11.06,4.26
26.00,0.00,279.31,-0.38,-108.12,61.75,-22.38,22.81,12.20,4.28
26.00,1.00,261.06,-2.38,-44.38,8.50,-6.81,2.94,12.20,4.28
26.00,2.00,4.62,-18.62,12.25,12.06,-11.19,0.69,12.20,4.28
26.00,0.00,279.31,-0.06,-109.31,62.50,-19.69,22.88,13.37,4.30
26.00,1.00,261.12,-2.19,-44.56,8.06,-7.69,3.31,13.37,4.30
26.00,2.00,4.62,-18.31,11.88,11.06,-11.38,1.25,13.37,4.30
26.00,0.00,279.31,0.25,-110.56,63.38,-17.19,23.69,14.62,4.32
26.00,1.00,261.06,-2.00,-44.69,7.88,-7.00,4.38,14.62,4.32
26.00,2.00,4.56,-18.06,11.69,8.81,-13.50,2.75,14.62,4.32
26.00,0.00,279.19,0.56,-111.81,63.31,-13.44,25.44,15.89,4.34
26.00,1.00,261.06,-1.88,-44.81,7.75,-7.62,4.19,15.89,4.34
26.00,2.00,4.56,-17.94,11.56,7.56,-14.50,3.62,15.89,4.34
26.00,0.00,278.81,0.94,-113.06,64.38,-13.44,26.69,17.18,4.36
26.00,1.00,261.00,-1.69,-45.00,7.06,-6.50,4.44,17.18,4.36
26.00,2.00,4.44,-17.56,11.25,8.06,-14.44,3.38,17.18,4.36
26.00,0.00,278.69,1.31,-114.31,64.00,-13.81,28.12,18.46,4.38
26.00,1.00,261.00,-1.50,-45.12,7.25,-6.69,4.25,18.46,4.38
26.00,2.00,4.44,-17.44,11.19,7.75,-14.12,3.38,18.46,4.38
26.00,0.00,278.44,1.69,-115.50,62.00,-15.12,27.19,19.69,4.40
26.00,1.00,260.94,-1.31,-45.25,6.62,-7.38,4.19,19.69,4.40
26.00,2.00,4.31,-17.06,10.88,8.38,-13.44,2.44,19.69,4.40
26.00,0.00,278.38,2.00,-116.75,61.81,-16.81,26.31,20.90,4.42
26.00,1.00,260.88,-1.19,-45.38,6.75,-3.12,5.44,20.90,4.42
26.00,2.00,4.31,-16.81,10.69,8.62,-13.25,1.12,20.90,4.42
26.00,0.00,278.38,2.31,-117.94,62.19,-19.31,25.44,22.16,4.44
26.00,1.00,260.88,-1.06,-45.50,6.44,-6.50,3.81,22.16,4.44
26.00,2.00,4.31,-16.69,10.62,7.06,-13.62,0.81,22.16,4.44
26.00,0.00,278.44,2.50,-119.19,62.44,-22.12,24.31,23.44,4.46
26.00,1.00,260.88,-0.88,-45.62,5.62,-7.12,3.62,23.44,4.46
26.00,2.00,4.25,-16.25,10.38,6.44,-14.06,0.38,23.44,4.46
26.00,0.00,278.62,2.69,-120.38,60.12,-24.12,22.56,24.67,4.48
26.00,1.00,260.88,-0.75,-45.69,5.12,-7.94,2.75,24.67,4.48
26.00,2.00,4.25,-16.12,10.31,6.62,-13.81,-0.25,24.67,4.48
26.00,0.00,278.88,2.75,-121.56,58.81,-26.75,21.31,25.81,4.50
26.00,1.00,260.88,-0.62,-45.81,5.69,-7.06,2.19,25.81,4.50
26.00,2.00,4.31,-15.75,10.06,8.88,-10.88,-2.38,25.81,4.50
26.00,0.00,279.31,2.81,-122.69,57.06,-27.44,20.06,26.91,4.52
26.00,1.00,260.88,-0.44,-45.94,5.38,-8.56,1.50,26.91,4.52
26.00,2.00,4.38,-15.56,9.94,8.69,-9.44,-2.44,26.91,4.52
26.00,0.00,279.81,2.88,-123.81,54.19,-27.31,19.31,27.94,4.54
26.00,1.00,260.94,-0.31,-46.00,4.94,-8.31,1.25,27.94,4.54
26.00,2.00,4.38,-15.50,9.81,9.00,-9.06,-2.81,27.94,4.54
26.00,0.00,279.81,2.88,-124.38,52.62,-27.12,18.19,28.97,4.56
26.00,1.00,261.00,-0.19,-46.12,4.62,-7.94,0.94,28.97,4.56
26.00,2.00,4.50,-15.19,9.56,7.62,-9.06,-2.75,28.97,4.56
26.00,0.00,280.62,2.81,-125.94,52.56,-28.25,17.88,30.04,4.58
26.00,1.00,261.00,-0.06,-46.19,4.75,-7.00,1.62,30.04,4.58
26.00,2.00,4.50,-15.12,9.50,5.94,-8.88,-2.44,30.04,4.58
26.00,0.00,280.94,2.81,-126.94,50.19,-25.88,18.12,31.05,4.60
26.00,1.00,261.00,0.00,-46.31,4.44,-6.75,1.31,31.05,4.60
26.00,2.00,4.56,-14.81,9.38,5.94,-8.88,-1.88,31.05,4.60
26.00,0.00,281.44,2.81,-127.88,46.50,-23.88,17.31,31.95,4.62
26.00,1.00,261.06,0.12,-46.38,3.94,-6.44,1.75,31.95,4.62
26.00,2.00,4.62,-14.69,9.19,7.12,-8.62,-1.75,31.95,4.62
26.00,0.00,281.69,2.75,-128.31,44.31,-22.69,16.00,32.79,4.64
26.00,1.00,261.06,0.25,-46.44,3.31,-5.75,1.56,32.79,4.64
26.00,2.00,4.62,-14.56,9.12,7.38,-8.81,-1.06,32.79,4.64
26.00,0.00,281.81,2.75,-129.25,44.88,-20.69,17.19,33.67,4.66
26.00,1.00,261.06,0.38,-46.50,3.44,-5.38,2.00,33.67,4.66
26.00,2.00,4.69,-14.31,8.94,6.38,-9.56,-0.50,33.67,4.66
26.00,0.00,282.19,2.75,-130.12,42.25,-19.31,18.25,34.52,4.68
26.00,1.00,261.06,0.50,-46.62,3.62,-5.31,2.94,34.52,4.68
26.00,2.00,4.69,-14.19,8.88,5.31,-9.75,0.00,34.52,4.68
26.00,0.00,282.50,2.81,-130.94,37.50,-17.25,17.12,35.24,4.70
26.00,1.00,261.00,0.62,-46.69,4.00,-5.62,2.81,35.24,4.70
26.00,2.00,4.69,-13.94,8.69,5.62,-9.12,-0.06,35.24,4.70
26.00,0.00,282.62,2.88,-131.62,34.50,-15.12,14.94,35.89,4.72
26.00,1.00,261.00,0.75,-46.75,4.69,-6.25,2.50,35.89,4.72
26.00,2.00,4.69,-13.75,8.56,6.38,-8.56,-1.12,35.89,4.72
26.00,0.00,282.88,2.88,-132.31,32.75,-15.69,13.75,36.48,4.74
26.00,1.00,261.00,0.88,-46.88,4.81,-6.12,2.69,36.48,4.74
26.00,2.00,4.69,-13.56,8.44,6.81,-9.06,-1.62,36.48,4.74
26.00,0.00,283.00,2.88,-132.94,30.19,-15.44,13.31,37.01,4.76
26.00,1.00,261.00,1.00,-46.94,4.88,-6.12,2.56,37.01,4.76
26.00,2.00,4.75,-13.44,8.31,7.00,-9.12,-2.00,37.01,4.76
26.00,0.00,283.31,2.81,-133.56,28.06,-14.75,12.94,37.49,4.78
26.00,1.00,261.00,1.12,-47.06,4.94,-6.38,2.25,37.49,4.78
26.00,2.00,4.75,-13.31,8.25,7.12,-7.88,-2.19,37.49,4.78
26.00,0.00,283.62,2.81,-134.12,26.88,-15.00,12.81,37.96,4.80
26.00,1.00,261.00,1.25,-47.12,4.12,-5.69,2.06,37.96,4.80
26.00,2.00,4.81,-13.12,8.06,6.38,-7.00,-2.31,37.96,4.80
26.00,0.00,283.81,2.81,-134.62,21.75,-14.00,12.31,38.33,4.82
26.00,1.00,261.06,1.31,-47.25,3.94,-5.12,1.69,38.33,4.82
26.00,2.00,4.88,-12.94,7.94,5.50,-7.44,-2.69,38.33,4.82
26.00,0.00,284.12,2.81,-135.06,20.00,-14.31,11.25,38.66,4.84
26.00,1.00,261.06,1.44,-47.31,3.69,-5.19,1.44,38.66,4.84
26.00,2.00,4.94,-12.81,7.81,5.56,-7.06,-3.00,38.66,4.84
26.00,0.00,112.31,2.75,-135.44,20.44,-14.81,11.50,39.00,4.86
26.00,1.00,261.06,1.50,-47.38,3.19,-4.81,1.12,39.00,4.86
26.00,2.00,5.00,-12.69,7.75,5.25,-6.19,-3.19,39.00,4.86
26.00,0.00,112.69,2.69,-135.88,21.25,-16.62,13.38,39.39,4.88
26.00,1.00,261.06,1.62,-47.44,3.06,-4.88,0.75,39.39,4.88
26.00,2.00,5.06,-12.56,7.62,4.25,-5.44,-2.88,39.39,4.88
26.00,0.00,113.06,2.69,-136.31,21.31,-17.44,14.12,39.81,4.90
26.00,1.00,261.12,1.69,-47.50,2.44,-4.88,0.44,39.81,4.90
26.00,2.00,5.12,-12.50,7.62,3.25,-5.94,-3.06,39.81,4.90
26.00,0.00,113.12,2.62,-136.75,18.81,-18.50,11.88,40.18,4.92
26.00,1.00,261.19,1.75,-47.56,2.44,-5.00,-0.56,40.18,4.92
26.00,2.00,5.19,-12.31,7.56,2.50,-6.31,-3.56,40.18,4.92
26.00,0.00,113.44,2.44,-137.19,18.88,-20.06,10.31,40.53,4.94
26.00,1.00,261.25,1.81,-47.62,2.56,-5.56,-1.50,40.53,4.94
26.00,2.00,5.31,-12.19,7.50,3.50,-5.31,-4.62,40.53,4.94
26.00,0.00,113.75,2.25,-137.62,23.50,-26.62,10.50,40.97,4.96
26.00,1.00,261.31,1.88,-47.62,2.31,-5.75,-1.31,40.97,4.96
26.00,2.00,5.38,-12.06,7.44,4.38,-4.88,-5.19,40.97,4.96
26.00,0.00,114.19,2.00,-138.06,24.44,-28.06,11.44,41.43,4.98
26.00,1.00,261.38,1.94,-47.69,2.38,-5.50,-1.69,41.43,4.98
26.00,2.00,5.50,-11.94,7.38,4.19,-4.56,-4.94,41.43,4.98
26.00,0.00,114.62,1.69,-138.56,24.00,-31.69,9.62,41.86,5.00
26.00,1.00,261.44,2.00,-47.75,3.44,-6.06,-2.12,41.86,5.00
26.00,2.00,5.56,-11.94,7.38,4.94,-3.56,-3.88,41.86,5.00
26.00,0.00,114.94,1.31,-139.06,26.69,-35.50,8.62,42.36,5.02
26.00,1.00,261.56,2.06,-47.81,3.31,-5.25,-1.75,42.36,5.02
26.00,2.00,5.69,-11.81,7.25,5.12,-3.75,-3.75,42.36,5.02
26.00,0.00,115.44,0.81,-139.69,32.50,-41.00,11.12,42.99,5.04
26.00,1.00,261.62,2.06,-47.88,2.69,-4.44,-1.56,42.99,5.04
26.00,2.00,5.75,-11.69,7.12,4.75,-3.62,-4.00,42.99,5.04
26.00,0.00,115.94,0.38,-140.38,34.56,-42.69,12.88,43.69,5.06
26.00,1.00,261.69,2.12,-47.94,2.56,-4.19,-1.06,43.69,5.06
26.00,2.00,5.81,-11.62,7.06,4.06,-2.12,-2.12,43.69,5.06
26.00,0.00,116.44,-0.06,-141.06,34.25,-43.31,9.62,44.35,5.08
26.00,1.00,261.69,2.19,-48.00,2.75,-3.94,-0.94,44.35,5.08
26.00,2.00,5.81,-11.56,6.94,5.12,-3.69,-0.56,44.35,5.08
26.00,0.00,116.88,-0.62,-141.81,35.25,-42.62,6.19,45.01,5.10
26.00,1.00,261.75,2.25,-48.06,3.00,-3.38,-0.44,45.01,5.10
26.00,2.00,5.81,-11.56,6.88,6.31,-4.69,-0.19,45.01,5.10
26.00,0.00,117.31,-1.00,-142.69,37.25,-39.00,6.38,45.75,5.12
26.00,1.00,261.75,2.31,-48.06,2.75,-2.31,0.50,45.75,5.12
26.00,2.00,5.81,-11.38,6.69,5.19,-4.44,1.56,45.75,5.12
26.00,0.00,117.75,-1.38,-143.50,37.62,-33.69,7.50,46.49,5.14
26.00,1.00,261.75,2.38,-48.12,3.06,-2.38,0.69,46.49,5.14
26.00,2.00,5.75,-11.31,6.62,4.94,-4.81,2.06,46.49,5.14
26.00,0.00,118.06,-1.69,-144.25,35.81,-28.75,7.00,47.20,5.16
26.00,1.00,261.75,2.44,-48.19,3.25,-1.50,1.88,47.20,5.16
26.00,2.00,5.75,-11.25,6.56,5.12,-5.31,2.62,47.20,5.16
26.00,0.00,118.44,-1.94,-144.94,34.69,-25.44,6.44,47.86,5.18
26.00,1.00,261.69,2.44,-48.25,3.19,-1.75,1.75,47.86,5.18
26.00,2.00,5.69,-11.12,6.38,5.75,-4.56,3.00,47.86,5.18
26.00,0.00,118.75,-2.12,-145.62,34.12,-21.00,7.56,48.52,5.20
26.00,1.00,261.69,2.50,-48.31,3.25,-1.88,1.62,48.52,5.20
26.00,2.00,5.62,-11.06,6.31,5.31,-5.56,2.81,48.52,5.20
26.00,0.00,119.00,-2.19,-146.25,31.81,-15.12,7.62,49.13,5.22
26.00,1.00,261.69,2.56,-48.44,3.50,-1.69,1.94,49.13,5.22
26.00,2.00,5.56,-10.94,6.12,5.06,-6.00,2.12,49.13,5.22
26.00,0.00,119.25,-2.25,-146.81,28.25,-10.88,5.31,49.66,5.24
26.00,1.00,261.62,2.62,-48.50,3.62,-2.19,2.06,49.66,5.24
26.00,2.00,5.56,-10.81,6.00,4.94,-4.81,1.75,49.66,5.24
26.00,0.00,119.38,-2.31,-147.31,26.19,-7.31,2.25,50.15,5.26
26.00,1.00,261.62,2.69,-48.56,3.25,-1.81,1.50,50.15,5.26
26.00,2.00,5.50,-10.75,6.00,4.69,-5.19,1.12,50.15,5.26
26.00,0.00,119.50,-2.38,-147.81,25.69,-5.69,3.19,50.63,5.28
26.00,1.00,261.62,2.75,-48.62,2.81,-2.31,0.75,50.63,5.28
26.00,2.00,5.50,-10.62,5.81,4.88,-6.12,0.56,50.63,5.28
26.00,0.00,119.56,-2.44,-148.31,23.75,-3.19,3.75,51.03,5.30
26.00,1.00,261.62,2.75,-48.69,3.19,-3.00,0.50,51.03,5.30
26.00,2.00,5.50,-10.56,5.75,6.06,-4.88,-0.62,51.03,5.30
26.00,0.00,119.62,-2.44,-148.69,18.69,-1.38,1.06,51.32,5.32
26.00,1.00,261.62,2.81,-48.75,3.00,-2.81,-0.06,51.32,5.32
26.00,2.00,5.56,-10.44,5.62,6.00,-4.62,-1.56,51.32,5.32
26.00,0.00,119.62,-2.50,-149.00,17.56,-1.94,-1.81,51.63,5.34
26.00,1.00,261.69,2.81,-48.81,2.06,-2.44,-0.12,51.63,5.34
26.00,2.00,5.62,-10.38,5.50,4.06,-3.19,-1.69,51.63,5.34
26.00,0.00,119.56,-2.50,-149.38,17.19,-1.81,-0.94,51.94,5.36
26.00,1.00,261.69,2.88,-48.81,1.75,-2.38,-0.81,51.94,5.36
26.00,2.00,5.62,-10.31,5.50,3.50,-3.31,-1.19,51.94,5.36
26.00,0.00,119.56,-2.56,-149.69,14.94,-2.62,-0.56,52.19,5.38
26.00,1.00,261.75,2.88,-48.88,1.56,-2.56,-1.44,52.19,5.38
26.00,2.00,5.62,-10.25,5.38,4.12,-2.75,-1.56,52.19,5.38
26.00,0.00,119.56,-2.69,-149.94,12.81,-4.75,-2.06,52.40,5.40
26.00,1.00,261.81,2.88,-48.88,2.00,-2.88,-1.56,52.40,5.40
26.00,2.00,5.69,-10.19,5.31,3.62,-1.62,-2.12,52.40,5.40
26.00,0.00,119.56,-2.75,-150.19,11.12,-4.44,-3.44,52.58,5.42
26.00,1.00,261.88,2.94,-48.94,1.88,-2.31,-1.81,52.58,5.42
26.00,2.00,5.75,-10.19,5.25,3.12,-1.50,-2.12,52.58,5.42
26.00,0.00,119.50,-2.94,-150.38,8.69,-4.69,-5.00,52.74,5.44
26.00,1.00,261.88,2.94,-49.00,1.62,-2.25,-1.81,52.74,5.44
26.00,2.00,5.75,-10.12,5.25,1.75,-1.50,-2.00,52.74,5.44
26.00,0.00,119.38,-3.06,-150.56,4.88,-4.19,-7.31,52.78,5.46
26.00,1.00,261.94,2.94,-49.00,2.06,-2.19,-1.75,52.78,5.46
26.00,2.00,5.81,-10.12,5.19,2.94,-1.56,-2.38,52.78,5.46
26.00,0.00,119.25,-3.25,-150.69,6.38,-6.12,-7.62,52.86,5.48
26.00,1.00,262.00,2.94,-49.06,1.69,-2.00,-1.69,52.86,5.48
26.00,2.00,5.88,-10.06,5.12,2.88,-0.56,-2.00,52.86,5.48
26.00,0.00,119.19,-3.38,-150.88,8.56,-7.06,-4.88,53.05,5.50
26.00,1.00,262.00,2.94,-49.06,1.56,-1.38,-0.81,53.05,5.50
26.00,2.00,5.88,-10.06,5.12,0.38,1.06,-0.25,53.05,5.50
26.00,0.00,119.19,-3.56,-151.00,7.62,-7.00,-4.38,53.25,5.52
26.00,1.00,262.00,2.94,-49.12,1.00,-0.44,-0.31,53.25,5.52
26.00,2.00,5.88,-10.06,5.12,-0.94,1.31,0.50,53.25,5.52
26.00,0.00,119.06,-3.69,-151.19,4.00,-4.75,-6.38,53.33,5.54
26.00,1.00,262.00,3.00,-49.12,0.19,-0.06,-0.06,53.33,5.54
26.00,2.00,5.88,-10.12,5.12,0.25,0.69,0.81,53.33,5.54
26.00,0.00,119.00,-3.75,-151.25,0.94,-1.19,-6.81,53.34,5.56
26.00,1.00,262.00,3.00,-49.12,0.62,0.25,0.12,53.34,5.56
26.00,2.00,5.88,-10.12,5.12,0.75,0.31,2.50,53.34,5.56
26.00,0.00,118.88,-3.81,-151.25,-1.12,2.50,-4.69,53.32,5.58
26.00,1.00,262.00,3.00,-49.12,1.06,1.19,1.25,53.32,5.58
26.00,2.00,5.81,-10.12,5.06,-0.56,-0.69,3.88,53.32,5.58
26.00,0.00,118.75,-3.69,-151.19,-5.62,7.81,-3.75,53.21,5.60
26.00,1.00,261.94,3.00,-49.19,1.25,0.56,2.88,53.21,5.60
26.00,2.00,5.69,-10.12,5.06,-0.50,-1.00,4.88,53.21,5.60
26.00,0.00,118.62,-3.50,-151.00,-11.50,13.69,-4.31,52.95,5.62
26.00,1.00,261.88,3.06,-49.19,2.00,-0.50,2.62,52.95,5.62
26.00,2.00,5.62,-10.12,5.06,-0.19,-1.38,4.56,52.95,5.62
26.00,0.00,118.44,-3.25,-150.69,-18.25,20.25,-5.12,52.50,5.64
26.00,1.00,261.81,3.06,-49.25,0.94,1.50,2.56,52.50,5.64
26.00,2.00,5.50,-10.12,5.00,1.25,-0.44,3.38,52.50,5.64
26.00,0.00,118.12,-2.88,-150.31,-19.50,23.56,-2.12,52.04,5.66
26.00,1.00,261.75,3.12,-49.25,1.06,1.69,4.75,52.04,5.66
26.00,2.00,5.44,-10.12,4.94,0.81,-0.06,3.44,52.04,5.66
26.00,0.00,118.06,-2.38,-149.94,-21.00,26.81,2.62,51.60,5.68
26.00,1.00,261.62,3.19,-49.25,0.62,2.69,5.31,51.60,5.68
26.00,2.00,5.38,-10.06,4.88,-1.88,-0.69,4.06,51.60,5.68
26.00,0.00,117.94,-1.81,-149.50,-27.06,31.56,2.69,51.05,5.70
26.00,1.00,261.44,3.25,-49.25,0.88,2.19,7.00,51.05,5.70
26.00,2.00,5.31,-10.06,4.88,-2.81,0.19,3.94,51.05,5.70
26.00,0.00,117.75,-1.25,-148.88,-33.00,36.88,0.94,50.31,5.72
26.00,1.00,261.25,3.31,-49.25,0.38,3.06,7.62,50.31,5.72
26.00,2.00,5.25,-10.12,4.88,-0.88,1.44,2.81,50.31,5.72
26.00,0.00,117.56,-0.50,-148.19,-37.88,41.81,1.81,49.50,5.74
26.00,1.00,261.12,3.38,-49.25,-1.19,4.56,7.31,49.50,5.74
26.00,2.00,5.19,-10.12,4.88,-2.19,1.62,2.31,49.50,5.74
26.00,0.00,117.19,0.19,-147.44,-41.81,43.88,3.06,48.60,5.76
26.00,1.00,260.88,3.44,-49.25,-2.19,6.00,8.75,48.60,5.76
26.00,2.00,5.12,-10.19,4.88,-2.31,2.81,2.25,48.60,5.76
26.00,0.00,117.00,0.94,-146.62,-45.12,44.88,1.75,47.66,5.78
26.00,1.00,260.62,3.50,-49.19,-3.31,7.25,9.31,47.66,5.78
26.00,2.00,5.06,-10.25,4.94,-4.12,2.31,3.25,47.66,5.78
26.00,0.00,116.69,1.69,-145.69,-49.31,47.38,-3.06,46.69,5.80
26.00,1.00,260.38,3.56,-49.12,-4.00,8.69,8.81,46.69,5.80
26.00,2.00,4.94,-10.25,5.00,-7.12,2.19,4.62,46.69,5.80
26.00,0.00,116.19,2.31,-144.69,-50.31,47.19,-7.44,45.76,5.82
26.00,1.00,260.12,3.62,-49.06,-5.62,10.69,8.31,45.76,5.82
26.00,2.00,4.88,-10.31,5.06,-9.38,3.06,4.94,45.76,5.82
26.00,0.00,115.75,2.88,-143.75,-50.31,44.38,-8.44,44.88,5.84
26.00,1.00,259.81,3.62,-48.94,-7.06,11.00,9.06,44.88,5.84
26.00,2.00,4.75,-10.38,5.19,-11.69,5.69,5.06,44.88,5.84
26.00,0.00,115.12,3.38,-142.81,-48.31,40.50,-7.62,44.04,5.86
26.00,1.00,259.50,3.69,-48.75,-8.31,11.94,9.94,44.04,5.86
26.00,2.00,4.62,-10.50,5.31,-11.56,7.56,5.94,44.04,5.86
26.00,0.00,114.75,3.94,-141.88,-47.56,39.06,-8.00,43.30,5.88
26.00,1.00,259.19,3.69,-48.62,-8.56,13.31,9.25,43.30,5.88
26.00,2.00,4.44,-10.69,5.56,-15.31,5.12,8.12,43.30,5.88
26.00,0.00,114.38,4.38,-140.94,-42.50,35.00,-9.06,42.74,5.90
26.00,1.00,258.94,3.62,-48.44,-9.00,13.12,7.25,42.74,5.90
26.00,2.00,4.19,-10.75,5.88,-18.00,3.75,10.38,42.74,5.90
26.00,0.00,113.94,4.75,-140.12,-41.06,33.88,-8.56,42.19,5.92
26.00,1.00,258.69,3.56,-48.31,-8.38,13.50,7.94,42.19,5.92
26.00,2.00,4.00,-10.88,6.19,-17.12,6.56,8.88,42.19,5.92
26.00,0.00,113.56,5.06,-139.25,-41.75,29.56,-10.19,41.57,5.94
26.00,1.00,258.44,3.56,-48.12,-8.69,13.62,8.50,41.57,5.94
26.00,2.00,3.81,-11.06,6.44,-14.38,9.62,8.12,41.57,5.94
26.00,0.00,113.12,5.31,-138.44,-39.44,25.56,-13.06,41.02,5.96
26.00,1.00,258.12,3.50,-47.94,-9.62,14.00,7.75,41.02,5.96
26.00,2.00,3.62,-11.25,6.69,-15.38,7.75,8.62,41.02,5.96
26.00,0.00,112.69,5.50,-137.69,-34.75,23.44,-13.06,40.59,5.98
26.00,1.00,257.88,3.44,-47.75,-9.19,13.62,5.44,40.59,5.98
26.00,2.00,3.44,-11.38,7.00,-16.00,5.38,10.00,40.59,5.98
26.00,0.00,112.31,5.69,-137.00,-33.44,24.25,-12.62,40.13,6.00
26.00,1.00,257.81,3.38,-47.69,-8.50,13.56,5.81,40.13,6.00
26.00,2.00,3.25,-11.56,7.19,-13.38,6.62,9.56,40.13,6.00
26.00,0.00,111.69,5.81,-136.31,-32.06,23.25,-10.94,39.67,6.02
26.00,1.00,257.44,3.25,-47.38,-8.50,14.12,6.00,39.67,6.02
26.00,2.00,3.00,-11.69,7.38,-11.88,7.88,9.44,39.67,6.02
26.00,0.00,111.38,6.06,-135.69,-31.31,24.31,-9.88,39.27,6.04
26.00,1.00,257.31,3.19,-47.31,-9.50,14.12,5.38,39.27,6.04
26.00,2.00,2.81,-11.88,7.62,-13.62,5.50,9.88,39.27,6.04
26.00,0.00,273.12,6.25,-135.00,-30.00,25.50,-10.25,38.91,6.06
26.00,1.00,257.00,3.00,-47.06,-9.31,14.44,4.06,38.91,6.06
26.00,2.00,2.56,-11.94,7.88,-14.56,3.38,10.12,38.91,6.06
26.00,0.00,272.31,6.44,-134.44,-27.44,25.50,-8.81,38.57,6.08
26.00,1.00,256.94,3.00,-46.94,-9.00,14.94,4.81,38.57,6.08
26.00,2.00,2.38,-12.06,8.06,-12.44,3.81,9.50,38.57,6.08
26.00,0.00,271.44,6.75,-133.88,-25.38,26.56,-4.81,38.26,6.10
26.00,1.00,256.69,2.88,-46.75,-9.69,14.25,4.38,38.26,6.10
26.00,2.00,2.19,-12.12,8.25,-11.69,4.00,8.75,38.26,6.10
26.00,0.00,270.38,7.06,-133.38,-24.19,27.31,-2.56,37.99,6.12
26.00,1.00,256.50,2.75,-46.56,-10.00,13.81,3.94,37.99,6.12
26.00,2.00,2.00,-12.25,8.44,-12.62,3.56,8.69,37.99,6.12
26.00,0.00,269.44,7.38,-132.81,-23.69,27.06,-3.56,37.79,6.14
26.00,1.00,256.31,2.62,-46.38,-9.44,12.94,2.81,37.79,6.14
26.00,2.00,1.81,-12.31,8.69,-14.62,0.25,9.12,37.79,6.14
26.00,0.00,269.00,7.50,-132.56,-22.44,25.19,-4.81,37.52,6.16
26.00,1.00,256.19,2.44,-46.19,-8.88,12.06,1.19,37.52,6.16
26.00,2.00,1.62,-12.31,8.94,-10.69,2.50,6.38,37.52,6.16
26.00,0.00,268.12,7.75,-132.12,-21.25,22.31,-4.56,37.26,6.18
26.00,1.00,256.06,2.31,-46.00,-9.00,12.06,1.56,37.26,6.18
26.00,2.00,1.50,-12.38,9.12,-10.12,3.31,5.69,37.26,6.18
26.00,0.00,267.50,7.94,-131.75,-17.88,18.12,-3.12,37.08,6.20
26.00,1.00,255.94,2.19,-45.81,-8.88,11.12,1.00,37.08,6.20
26.00,2.00,1.38,-12.50,9.31,-9.81,3.50,5.44,37.08,6.20
26.00,0.00,267.00,8.12,-131.44,-15.06,14.75,-2.19,36.96,6.22
26.00,1.00,255.81,2.06,-45.62,-9.38,10.00,0.38,36.96,6.22
26.00,2.00,1.25,-12.56,9.50,-10.00,2.25,5.44,36.96,6.22
26.00,0.00,266.62,8.25,-131.12,-14.06,11.75,-2.62,36.87,6.24
26.00,1.00,255.75,1.94,-45.44,-8.94,9.62,-1.12,36.87,6.24
26.00,2.00,1.12,-12.56,9.69,-9.75,1.44,4.19,36.87,6.24
26.00,0.00,266.38,8.31,-130.88,-12.38,7.75,-3.12,36.76,6.26
26.00,1.00,255.69,1.75,-45.25,-8.56,9.00,-1.50,36.76,6.26
26.00,2.00,1.06,-12.62,9.88,-7.94,2.56,3.06,36.76,6.26
26.00,0.00,266.19,8.31,-130.62,-9.81,5.44,-2.19,36.72,6.28
26.00,1.00,255.62,1.62,-45.06,-8.69,9.06,-1.56,36.72,6.28
26.00,2.00,0.94,-12.69,10.00,-8.00,3.19,2.69,36.72,6.28
26.00,0.00,266.12,8.38,-130.44,-7.94,4.00,-0.81,36.74,6.30
26.00,1.00,255.62,1.50,-44.88,-9.31,8.88,-2.50,36.74,6.30
26.00,2.00,0.88,-12.75,10.19,-8.50,3.12,2.38,36.74,6.30
26.00,0.00,266.06,8.44,-130.25,-7.44,3.94,-0.44,36.75,6.32
26.00,1.00,255.62,1.31,-44.69,-8.75,8.94,-2.62,36.75,6.32
26.00,2.00,0.81,-12.81,10.31,-8.19,2.94,2.12,36.75,6.32
26.00,0.00,265.94,8.50,-130.12,-9.56,5.56,-0.19,36.73,6.34
26.00,1.00,255.56,1.19,-44.50,-8.38,8.19,-2.31,36.73,6.34
26.00,2.00,0.81,-12.88,10.50,-8.75,1.62,2.38,36.73,6.34
26.00,0.00,265.81,8.56,-129.94,-10.56,5.88,-1.38,36.69,6.36
26.00,1.00,255.56,1.06,-44.38,-7.88,6.75,-3.06,36.69,6.36
26.00,2.00,0.75,-12.88,10.69,-8.69,0.81,1.81,36.69,6.36
26.00,0.00,265.75,8.56,-129.69,-10.31,4.56,-2.75,36.65,6.38
26.00,1.00,255.56,0.88,-44.19,-8.94,4.31,-2.44,36.65,6.38
26.00,2.00,0.69,-12.94,10.81,-8.38,0.44,1.19,36.65,6.38
26.00,0.00,265.62,8.56,-129.44,-11.75,7.06,-1.94,36.57,6.40
26.00,1.00,255.62,0.81,-44.00,-10.25,1.81,-2.31,36.57,6.40
26.00,2.00,0.62,-12.94,11.00,-8.19,-1.62,-0.25,36.57,6.40
26.00,0.00,265.38,8.69,-129.19,-11.88,7.88,-1.44,36.47,6.42
26.00,1.00,255.62,0.75,-43.81,-11.38,-0.31,-3.69,36.47,6.42
26.00,2.00,0.62,-12.88,11.19,-7.81,-2.00,-0.62,36.47,6.42
26.00,0.00,265.12,8.81,-128.94,-14.12,13.44,-0.44,36.29,6.44
26.00,1.00,255.75,0.69,-43.62,-10.00,1.12,-4.38,36.29,6.44
26.00,2.00,0.62,-12.88,11.31,-6.00,-0.69,-2.62,36.29,6.44
26.00,0.00,264.62,9.00,-128.56,-15.38,14.94,-0.62,36.08,6.46
26.00,1.00,255.81,0.62,-43.44,-9.25,3.44,-4.62,36.08,6.46
26.00,2.00,0.69,-12.81,11.44,-6.38,0.38,-3.19,36.08,6.46
26.00,0.00,263.94,9.25,-128.12,-18.75,21.44,-1.38,35.80,6.48
26.00,1.00,255.88,0.50,-43.25,-7.94,5.69,-3.69,35.80,6.48
26.00,2.00,0.75,-12.81,11.56,-6.50,1.44,-2.94,35.80,6.48
26.00,0.00,263.19,9.56,-127.69,-20.38,23.94,-1.25,35.49,6.50
26.00,1.00,255.88,0.38,-43.06,-7.44,8.81,-2.12,35.49,6.50
26.00,2.00,0.75,-12.88,11.69,-6.69,2.75,-1.00,35.49,6.50
26.00,0.00,262.38,9.88,-127.12,-23.38,28.56,-1.31,35.12,6.52
26.00,1.00,255.81,0.25,-42.88,-7.38,10.50,-1.75,35.12,6.52
26.00,2.00,0.75,-12.94,11.81,-7.31,2.44,0.19,35.12,6.52
26.00,0.00,261.44,10.19,-126.56,-25.81,32.12,-1.25,34.75,6.54
26.00,1.00,255.75,0.06,-42.75,-7.12,12.50,-0.69,34.75,6.54
26.00,2.00,0.69,-12.94,12.00,-9.75,1.56,3.81,34.75,6.54
26.00,0.00,260.44,10.56,-125.94,-27.25,34.81,-2.31,34.35,6.56
26.00,1.00,255.62,-0.06,-42.56,-7.88,11.88,0.31,34.35,6.56
26.00,2.00,0.62,-13.00,12.19,-9.38,2.69,5.00,34.35,6.56
26.00,0.00,259.38,10.88,-125.31,-28.19,35.81,-4.81,33.91,6.58
26.00,1.00,255.56,-0.19,-42.38,-8.56,11.94,1.62,33.91,6.58
26.00,2.00,0.50,-13.06,12.31,-9.19,3.38,5.81,33.91,6.58
26.00,0.00,258.56,11.12,-124.62,-27.19,36.38,-6.88,33.53,6.60
26.00,1.00,255.44,-0.31,-42.19,-8.81,12.38,1.50,33.53,6.60
26.00,2.00,0.38,-13.19,12.50,-10.31,3.00,6.75,33.53,6.60
26.00,0.00,257.56,11.38,-124.06,-22.56,35.81,-7.38,33.25,6.62
26.00,1.00,255.31,-0.50,-42.00,-8.38,12.88,2.00,33.25,6.62
26.00,2.00,0.19,-13.25,12.69,-10.69,2.81,7.25,33.25,6.62
26.00,0.00,256.75,11.56,-123.56,-21.50,34.19,-8.31,33.03,6.64
26.00,1.00,255.12,-0.62,-41.81,-7.94,12.62,2.50,33.03,6.64
26.00,2.00,0.06,-13.38,12.88,-11.50,4.12,7.94,33.03,6.64
26.00,0.00,256.19,11.62,-123.06,-19.69,30.94,-10.31,32.85,6.66
26.00,1.00,255.00,-0.75,-41.62,-8.44,12.31,2.75,32.85,6.66
26.00,2.00,359.88,-13.50,13.06,-11.75,4.25,8.44,32.85,6.66
26.00,0.00,255.44,11.69,-122.62,-17.56,27.50,-11.81,32.71,6.68
26.00,1.00,254.88,-0.94,-41.44,-8.25,12.50,3.00,32.71,6.68
26.00,2.00,359.69,-13.56,13.25,-11.81,3.62,9.00,32.71,6.68
26.00,0.00,255.00,11.69,-122.19,-16.62,24.06,-13.00,32.58,6.70
26.00,1.00,254.69,-1.06,-41.25,-8.12,12.06,3.50,32.58,6.70
26.00,2.00,359.50,-13.69,13.50,-10.56,2.94,10.31,32.58,6.70
26.00,0.00,254.56,11.69,-121.75,-15.31,20.62,-13.69,32.44,6.72
26.00,1.00,254.56,-1.19,-41.12,-7.81,12.00,3.50,32.44,6.72
26.00,2.00,359.25,-13.81,13.62,-9.56,3.19,10.75,32.44,6.72
26.00,0.00,254.31,11.69,-121.44,-12.88,18.31,-12.19,32.35,6.74
26.00,1.00,254.38,-1.31,-40.94,-7.19,12.56,3.81,32.35,6.74
26.00,2.00,359.00,-13.94,13.75,-8.75,2.94,12.31,32.35,6.74
26.00,0.00,254.00,11.69,-121.06,-13.50,19.56,-11.06,32.25,6.76
26.00,1.00,254.19,-1.44,-40.81,-7.19,11.44,4.81,32.25,6.76
26.00,2.00,358.75,-14.00,13.88,-9.00,1.88,12.56,32.25,6.76
26.00,0.00,253.44,11.69,-120.75,-13.25,18.94,-11.75,32.15,6.78
26.00,1.00,254.00,-1.56,-40.69,-6.44,11.69,4.88,32.15,6.78
26.00,2.00,358.50,-14.12,14.00,-8.81,0.31,12.31,32.15,6.78
26.00,0.00,253.12,11.75,-120.44,-10.62,18.81,-10.06,32.04,6.80
26.00,1.00,253.81,-1.62,-40.56,-6.06,11.31,5.19,32.04,6.80
26.00,2.00,358.25,-14.19,14.12,-6.19,0.88,11.50,32.04,6.80
26.00,0.00,252.44,11.81,-120.19,-8.94,20.38,-7.31,31.96,6.82
26.00,1.00,253.62,-1.75,-40.44,-5.38,10.81,5.88,31.96,6.82
26.00,2.00,358.00,-14.25,14.19,-5.06,1.31,11.69,31.96,6.82
26.00,0.00,251.94,11.94,-119.94,-8.56,21.00,-5.69,31.88,6.84
26.00,1.00,253.44,-1.81,-40.31,-5.25,10.38,5.94,31.88,6.84
26.00,2.00,357.75,-14.38,14.19,-5.19,-0.19,12.88,31.88,6.84
26.00,0.00,251.38,12.06,-119.75,-7.19,22.12,-3.44,31.90,6.86
26.00,1.00,253.25,-1.88,-40.25,-4.88,10.81,5.62,31.90,6.86
26.00,2.00,357.50,-14.44,14.31,-8.06,-4.12,13.44,31.90,6.86
26.00,0.00,250.62,12.25,-119.50,-6.19,22.62,-1.62,31.91,6.88
26.00,1.00,253.12,-2.00,-40.12,-4.12,10.19,4.50,31.91,6.88
26.00,2.00,357.19,-14.38,14.38,-6.56,-3.88,12.56,31.91,6.88
26.00,0.00,250.00,12.44,-119.31,-4.75,20.62,-0.50,31.84,6.90
26.00,1.00,252.94,-2.12,-40.06,-3.69,9.44,4.19,31.84,6.90
26.00,2.00,357.00,-14.44,14.44,-1.75,-0.25,9.81,31.84,6.90
26.00,0.00,249.38,12.62,-119.19,-4.06,18.62,0.81,31.78,6.92
26.00,1.00,252.81,-2.19,-40.00,-3.62,10.00,4.00,31.78,6.92
26.00,2.00,356.81,-14.44,14.38,-1.56,-0.12,9.38,31.78,6.92
26.00,0.00,248.81,12.88,-119.06,-3.81,17.75,1.50,31.80,6.94
26.00,1.00,252.62,-2.31,-39.94,-5.62,9.56,4.44,31.80,6.94
26.00,2.00,356.62,-14.50,14.44,-4.81,-2.88,10.19,31.80,6.94
26.00,0.00,248.31,13.00,-118.88,-3.25,16.44,1.69,31.85,6.96
26.00,1.00,252.50,-2.38,-39.81,-5.56,9.38,4.81,31.85,6.96
26.00,2.00,356.38,-14.50,14.44,-5.25,-3.62,10.38,31.85,6.96
26.00,0.00,247.75,13.19,-118.75,-3.62,15.00,1.88,31.86,6.98
26.00,1.00,252.31,-2.44,-39.75,-4.25,8.44,3.50,31.86,6.98
26.00,2.00,356.19,-14.50,14.50,-4.19,-2.38,9.75,31.86,6.98
26.00,0.00,247.38,13.31,-118.56,-3.81,13.19,2.00,31.84,7.00
26.00,1.00,252.19,-2.56,-39.69,-3.62,8.75,3.19,31.84,7.00
26.00,2.00,356.00,-14.50,14.56,-2.62,-0.38,8.38,31.84,7.00
26.00,0.00,247.06,13.38,-118.44,-3.69,11.75,1.38,31.85,7.02
26.00,1.00,252.06,-2.62,-39.62,-3.69,8.94,3.38,31.85,7.02
26.00,2.00,355.81,-14.50,14.56,-4.44,-0.88,8.38,31.85,7.02
26.00,0.00,246.88,13.44,-118.25,-3.75,9.00,0.06,31.88,7.04
26.00,1.00,251.94,-2.69,-39.50,-5.06,7.94,3.38,31.88,7.04
26.00,2.00,355.69,-14.50,14.62,-4.81,-0.88,7.88,31.88,7.04
26.00,0.00,246.81,13.44,-118.12,-3.81,6.44,-0.75,31.87,7.06
26.00,1.00,251.81,-2.75,-39.44,-4.19,7.44,3.75,31.87,7.06
26.00,2.00,355.50,-14.56,14.69,-3.38,1.31,6.75,31.87,7.06
26.00,0.00,246.69,13.44,-118.00,-4.38,4.06,-1.12,31.84,7.08
26.00,1.00,251.69,-2.88,-39.38,-3.69,8.00,3.31,31.84,7.08
26.00,2.00,355.38,-14.62,14.75,-3.06,1.75,6.44,31.84,7.08
26.00,0.00,246.75,13.44,-117.88,-4.81,2.56,-1.56,31.82,7.10
26.00,1.00,251.56,-2.94,-39.31,-4.19,8.00,3.31,31.82,7.10
26.00,2.00,355.25,-14.69,14.75,-3.88,1.31,6.56,31.82,7.10
26.00,0.00,246.75,13.38,-117.75,-4.50,0.88,-2.31,31.84,7.12
26.00,1.00,251.44,-3.00,-39.19,-4.75,8.19,3.94,31.84,7.12
26.00,2.00,355.12,-14.75,14.88,-5.69,1.06,6.75,31.84,7.12
26.00,0.00,246.88,13.31,-117.62,-4.69,0.19,-2.31,31.87,7.14
26.00,1.00,251.31,-3.06,-39.12,-4.38,7.81,2.88,31.87,7.14
26.00,2.00,355.00,-14.81,14.94,-6.00,1.38,5.94,31.87,7.14
26.00,0.00,246.94,13.31,-117.56,-4.56,0.00,-2.31,31.89,7.16
26.00,1.00,251.19,-3.19,-39.06,-4.25,7.50,2.94,31.89,7.16
26.00,2.00,354.88,-14.88,15.00,-5.19,1.94,5.88,31.89,7.16
26.00,0.00,247.00,13.25,-117.44,-4.56,-0.06,-1.94,31.90,7.18
26.00,1.00,251.12,-3.25,-38.94,-4.06,7.06,3.56,31.90,7.18
26.00,2.00,354.75,-14.94,15.06,-5.31,1.69,5.75,31.90,7.18
26.00,0.00,247.12,13.25,-117.31,-4.38,0.12,-2.12,31.95,7.20
26.00,1.00,251.00,-3.31,-38.88,-4.25,7.69,2.75,31.95,7.20
26.00,2.00,354.62,-15.00,15.19,-6.50,1.31,5.38,31.95,7.20
26.00,0.00,247.12,13.19,-117.25,-4.19,-0.38,-2.31,32.03,7.22
26.00,1.00,250.88,-3.38,-38.81,-4.31,7.56,2.44,32.03,7.22
26.00,2.00,354.50,-15.06,15.31,-7.62,1.38,5.31,32.03,7.22
26.00,0.00,247.25,13.12,-117.19,-3.50,-0.94,-2.31,32.09,7.24
26.00,1.00,250.81,-3.44,-38.75,-3.94,6.62,1.81,32.09,7.24
26.00,2.00,354.38,-15.12,15.44,-5.94,2.75,4.62,32.09,7.24
26.00,0.00,247.31,13.06,-117.12,-2.94,-1.50,-2.06,32.12,7.26
26.00,1.00,250.69,-3.50,-38.69,-3.69,6.19,2.06,32.12,7.26
26.00,2.00,354.31,-15.19,15.50,-4.56,3.38,4.31,32.12,7.26
26.00,0.00,247.44,13.06,-117.06,-3.06,-0.88,-1.88,32.16,7.28
26.00,1.00,250.62,-3.56,-38.56,-3.69,5.88,1.56,32.16,7.28
26.00,2.00,354.25,-15.25,15.56,-4.62,2.25,4.06,32.16,7.28
26.00,0.00,247.50,13.00,-117.00,-3.06,-0.75,-2.06,32.20,7.30
26.00,1.00,250.56,-3.69,-38.50,-2.81,5.69,1.19,32.20,7.30
26.00,2.00,354.12,-15.31,15.69,-4.81,1.25,4.06,32.20,7.30
26.00,0.00,247.62,13.00,-116.88,-3.06,-0.50,-2.06,32.22,7.32
26.00,1.00,250.50,-3.75,-38.50,-2.56,5.00,1.06,32.22,7.32
26.00,2.00,354.06,-15.38,15.75,-4.06,1.75,4.06,32.22,7.32
26.00,0.00,247.69,12.94,-116.88,-2.81,-0.56,-1.81,32.23,7.34
26.00,1.00,250.44,-3.81,-38.44,-1.75,4.38,0.38,32.23,7.34
26.00,2.00,354.00,-15.44,15.81,-3.19,3.12,3.81,32.23,7.34
26.00,0.00,247.75,12.94,-116.81,-2.38,-0.69,-1.50,32.26,7.36
26.00,1.00,250.44,-3.88,-38.38,-2.19,4.38,0.19,32.26,7.36
26.00,2.00,353.88,-15.50,15.81,-3.56,2.56,3.50,32.26,7.36
26.00,0.00,247.75,12.88,-116.75,-2.19,-0.44,-0.81,32.29,7.38
26.00,1.00,250.38,-3.94,-38.38,-2.50,4.69,0.00,32.29,7.38
26.00,2.00,353.81,-15.56,15.88,-3.69,2.06,3.31,32.29,7.38
26.00,0.00,247.81,12.88,-116.69,-1.69,-0.81,-0.44,32.34,7.40
26.00,1.00,250.38,-4.00,-38.31,-1.62,5.44,-0.12,32.34,7.40
26.00,2.00,353.75,-15.62,15.94,-3.88,2.19,3.19,32.34,7.40
26.00,0.00,247.88,12.88,-116.69,-1.12,-1.44,0.38,32.40,7.42
26.00,1.00,250.31,-4.06,-38.31,-2.50,5.19,0.38,32.40,7.42
26.00,2.00,353.69,-15.69,16.00,-3.50,1.81,2.88,32.40,7.42
26.00,0.00,247.94,12.88,-116.69,-1.31,-2.50,0.25,32.44,7.44
26.00,1.00,250.31,-4.12,-38.25,-3.12,4.19,0.38,32.44,7.44
26.00,2.00,353.62,-15.69,16.06,-3.38,1.31,2.50,32.44,7.44
26.00,0.00,248.06,12.81,-116.62,-1.25,-2.88,0.44,32.50,7.46
26.00,1.00,250.25,-4.25,-38.12,-3.56,4.69,-0.31,32.50,7.46
26.00,2.00,353.56,-15.75,16.12,-3.56,0.75,2.44,32.50,7.46
26.00,0.00,248.19,12.81,-116.62,-1.25,-2.62,0.12,32.55,7.48
26.00,1.00,250.19,-4.25,-38.06,-3.62,3.94,-0.12,32.55,7.48
26.00,2.00,353.56,-15.75,16.19,-3.44,0.69,2.38,32.55,7.48
26.00,0.00,248.25,12.75,-116.62,-1.00,-3.25,0.00,32.58,7.50
26.00,1.00,250.19,-4.31,-38.00,-3.25,4.38,-0.12,32.58,7.50
26.00,2.00,353.50,-15.81,16.25,-2.56,1.50,2.25,32.58,7.50
26.00,0.00,248.38,12.75,-116.62,-0.75,-2.62,0.31,32.63,7.52
26.00,1.00,250.12,-4.38,-37.94,-2.88,4.12,-0.19,32.63,7.52
26.00,2.00,353.44,-15.81,16.31,-2.62,0.19,2.88,32.63,7.52
26.00,0.00,248.38,12.75,-116.62,-0.56,-2.50,0.75,32.66,7.54
26.00,1.00,250.12,-4.44,-37.88,-1.88,3.94,0.25,32.66,7.54
26.00,2.00,353.38,-15.81,16.31,-1.88,0.19,2.50,32.66,7.54
26.00,0.00,248.44,12.75,-116.62,-0.56,-2.31,1.25,32.68,7.56
26.00,1.00,250.06,-4.50,-37.88,-1.94,4.00,0.88,32.68,7.56
26.00,2.00,353.31,-15.88,16.31,-1.50,0.81,1.94,32.68,7.56
26.00,0.00,248.44,12.75,-116.62,-0.69,-1.56,1.38,32.74,7.58
26.00,1.00,250.06,-4.56,-37.81,-1.69,3.62,-0.38,32.74,7.58
26.00,2.00,353.31,-15.88,16.38,-3.25,0.19,1.62,32.74,7.58
26.00,0.00,248.50,12.75,-116.62,1.62,-3.12,1.75,32.86,7.60
26.00,1.00,250.06,-4.62,-37.81,-1.19,3.75,-0.44,32.86,7.60
26.00,2.00,353.25,-15.88,16.44,-4.00,-0.75,2.06,32.86,7.60
26.00,0.00,248.56,12.81,-116.62,2.25,-1.69,2.50,32.98,7.62
26.00,1.00,250.00,-4.69,-37.75,-1.00,3.00,0.31,32.98,7.62
26.00,2.00,353.19,-15.88,16.56,-2.81,0.56,1.12,32.98,7.62
26.00,0.00,248.56,12.81,-116.69,1.69,-2.12,1.62,33.06,7.64
26.00,1.00,250.00,-4.75,-37.75,-0.94,2.44,-0.94,33.06,7.64
26.00,2.00,353.19,-15.88,16.62,-1.69,1.75,0.50,33.06,7.64
26.00,0.00,248.62,12.81,-116.69,0.62,-1.69,1.06,33.10,7.66
26.00,1.00,250.06,-4.81,-37.69,-1.06,1.75,-1.56,33.10,7.66
26.00,2.00,353.19,-15.94,16.62,-1.12,1.44,-0.31,33.10,7.66
26.00,0.00,248.75,12.81,-116.69,0.38,-1.38,1.19,33.14,7.68
26.00,1.00,250.06,-4.81,-37.69,-0.50,0.69,-0.94,33.14,7.68
26.00,2.00,353.19,-15.94,16.69,-1.31,0.12,-0.44,33.14,7.68
26.00,0.00,248.81,12.81,-116.62,0.12,-1.38,0.44,33.17,7.70
26.00,1.00,250.06,-4.81,-37.62,-1.06,0.12,-0.56,33.17,7.70
26.00,2.00,353.19,-15.94,16.75,-1.38,0.06,-0.50,33.17,7.70
26.00,0.00,248.88,12.81,-116.62,-0.25,-0.69,-0.25,33.21,7.72
26.00,1.00,250.12,-4.81,-37.56,-2.38,-6.19,-1.19,33.21,7.72
26.00,2.00,353.19,-15.94,16.81,-2.25,-1.38,-1.00,33.21,7.72
26.00,0.00,248.88,12.81,-116.62,0.25,-0.19,-1.19,33.24,7.74
26.00,1.00,250.25,-4.69,-37.50,-4.94,-11.00,-4.19,33.24,7.74
26.00,2.00,353.25,-15.88,16.88,-0.94,-0.75,-3.38,33.24,7.74
26.00,0.00,248.88,12.75,-116.56,1.12,0.94,-1.31,33.27,7.76
26.00,1.00,250.38,-4.56,-37.38,-4.44,-11.38,-3.69,33.27,7.76
26.00,2.00,353.38,-15.81,16.88,-0.19,-1.25,-5.75,33.27,7.76
26.00,0.00,248.88,12.75,-116.56,1.25,1.94,-0.94,33.33,7.78
26.00,1.00,250.56,-4.44,-37.25,-5.31,-13.00,-4.88,33.33,7.78
26.00,2.00,353.50,-15.75,16.94,-1.31,-2.69,-8.38,33.33,7.78
26.00,0.00,248.81,12.81,-116.56,0.81,1.94,-0.25,33.40,7.80
26.00,1.00,250.75,-4.31,-37.19,-2.12,-8.94,-6.88,33.40,7.80
26.00,2.00,353.69,-15.69,17.00,-2.06,-2.38,-10.19,33.40,7.80
26.00,0.00,248.75,12.81,-116.56,-0.94,-0.06,-0.44,33.43,7.82
26.00,1.00,250.88,-4.38,-37.19,0.75,-1.88,-6.31,33.43,7.82
26.00,2.00,353.88,-15.56,17.12,-2.31,-0.50,-9.94,33.43,7.82
26.00,0.00,248.81,12.81,-116.56,-3.00,-2.19,-0.12,33.43,7.84
26.00,1.00,251.00,-4.44,-37.25,1.88,1.81,-4.31,33.43,7.84
26.00,2.00,354.00,-15.56,17.19,-3.00,2.69,-8.12,33.43,7.84
26.00,0.00,248.94,12.75,-116.50,-4.12,-3.19,0.06,33.40,7.86
26.00,1.00,251.06,-4.50,-37.25,1.31,0.81,-4.25,33.40,7.86
26.00,2.00,354.12,-15.56,17.31,-2.81,3.12,-4.88,33.40,7.86
26.00,0.00,249.06,12.75,-116.44,-4.12,-3.56,-0.12,33.36,7.88
26.00,1.00,251.12,-4.50,-37.25,0.31,-1.31,-3.19,33.36,7.88
26.00,2.00,354.19,-15.62,17.38,-2.38,2.62,-2.38,33.36,7.88
26.00,0.00,249.25,12.69,-116.38,-2.81,-4.44,-2.06,33.32,7.90
26.00,1.00,251.19,-4.50,-37.25,0.56,-1.62,-2.50,33.32,7.90
26.00,2.00,354.25,-15.62,17.38,-1.12,2.50,-2.19,33.32,7.90
26.00,0.00,249.44,12.62,-116.38,-1.88,-3.94,-2.50,33.32,7.92
26.00,1.00,251.25,-4.56,-37.25,1.44,-0.12,-2.50,33.32,7.92
26.00,2.00,354.25,-15.69,17.44,-1.94,0.00,-1.50,33.32,7.92
26.00,0.00,249.56,12.56,-116.38,1.50,-1.25,-2.31,33.44,7.94
26.00,1.00,251.25,-4.56,-37.25,1.12,1.19,-2.56,33.44,7.94
26.00,2.00,354.31,-15.62,17.50,-3.62,-1.12,-1.31,33.44,7.94
26.00,0.00,249.62,12.50,-116.38,3.62,-2.06,-3.81,33.58,7.96
26.00,1.00,251.31,-4.62,-37.25,-0.62,0.75,-2.00,33.58,7.96
26.00,2.00,354.31,-15.62,17.56,-2.56,1.12,-1.00,33.58,7.96
26.00,0.00,249.75,12.38,-116.50,4.25,-2.88,-4.75,33.79,7.98
26.00,1.00,251.31,-4.62,-37.25,-1.38,0.62,-2.00,33.79,7.98
26.00,2.00,354.31,-15.62,17.69,-5.12,-0.62,1.06,33.79,7.98
26.00,0.00,249.94,12.25,-116.56,5.62,-2.75,-6.00,34.03,8.00
26.00,1.00,251.38,-4.69,-37.19,-0.12,1.69,-1.75,34.03,8.00
26.00,2.00,354.25,-15.62,17.75,-4.56,-0.81,1.81,34.03,8.00
26.00,0.00,250.06,12.12,-116.69,5.94,-2.31,-6.19,34.23,8.02
26.00,1.00,251.38,-4.69,-37.12,0.38,1.25,-1.38,34.23,8.02
26.00,2.00,354.19,-15.62,17.81,-2.88,0.69,1.69,34.23,8.02
26.00,0.00,250.25,12.00,-116.81,4.81,-3.75,-7.12,34.40,8.04
26.00,1.00,251.38,-4.75,-37.12,0.31,0.94,-0.88,34.40,8.04
26.00,2.00,354.19,-15.69,17.88,-2.88,1.25,1.31,34.40,8.04
26.00,0.00,250.50,11.81,-116.88,4.38,-4.00,-7.75,34.57,8.06
26.00,1.00,251.44,-4.75,-37.12,0.56,0.12,-0.69,34.57,8.06
26.00,2.00,354.12,-15.69,17.94,-2.94,1.31,1.19,34.57,8.06
