Iteration,IMUNo,OrientationX (deg),OrientationY,OrientationZ,GyroX (20rad/sec),GyroY,GyroZ,Elbow_Pos (rad),Time (sec)
42.00,0.00,280.00,-5.50,-100.50,-2.19,-2.50,2.81,-0.08,0.00
42.00,1.00,262.62,0.06,-46.88,6.69,3.25,-2.50,-0.08,0.00
42.00,2.00,35.19,-22.50,6.75,0.38,0.19,0.31,-0.08,0.00
42.00,0.00,280.06,-5.50,-100.12,-6.88,17.06,3.12,-0.13,1.02
42.00,1.00,262.00,0.00,-48.38,1.31,14.88,9.94,-0.13,1.02
42.00,2.00,34.62,-22.69,6.19,-5.06,-2.88,13.38,-0.13,1.02
42.00,0.00,279.31,-5.31,-100.06,-3.50,16.94,3.50,-0.15,1.04
42.00,1.00,261.75,0.00,-48.38,3.00,10.19,6.88,-0.15,1.04
42.00,2.00,34.38,-22.62,6.19,-2.88,-2.56,8.75,-0.15,1.04
42.00,0.00,278.88,-5.19,-100.06,0.19,14.69,4.62,-0.14,1.06
42.00,1.00,261.62,0.00,-48.50,4.00,5.31,2.88,-0.14,1.06
42.00,2.00,34.19,-22.56,6.31,-0.19,0.44,2.56,-0.14,1.06
42.00,0.00,278.50,-5.06,-100.12,2.69,12.12,3.56,-0.14,1.08
42.00,1.00,261.62,-0.06,-48.50,3.62,0.69,-1.69,-0.14,1.08
42.00,2.00,34.31,-22.50,6.56,2.62,2.62,-3.19,-0.14,1.08
42.00,0.00,278.31,-5.00,-100.25,5.12,5.81,1.50,-0.16,1.10
42.00,1.00,261.75,-0.19,-48.56,4.31,-2.75,-6.38,-0.16,1.10
42.00,2.00,34.38,-22.50,6.62,5.69,3.88,-8.38,-0.16,1.10
42.00,0.00,278.31,-5.00,-100.31,6.12,-2.00,-0.38,-0.22,1.12
42.00,1.00,262.00,-0.31,-48.62,4.38,-7.44,-10.69,-0.22,1.12
42.00,2.00,34.75,-22.62,6.56,8.06,4.19,-11.88,-0.22,1.12
42.00,0.00,278.50,-5.06,-100.44,4.62,-7.19,-3.38,-0.33,1.14
42.00,1.00,262.31,-0.38,-48.75,4.75,-9.75,-12.06,-0.33,1.14
42.00,2.00,34.88,-22.62,6.50,8.31,5.00,-13.12,-0.33,1.14
42.00,0.00,279.00,-5.31,-100.44,4.31,-14.12,-5.31,-0.45,1.16
42.00,1.00,262.69,-0.44,-48.81,5.50,-10.19,-12.31,-0.45,1.16
42.00,2.00,35.38,-22.75,6.44,8.31,6.62,-13.62,-0.45,1.16
42.00,0.00,279.50,-5.44,-100.50,4.75,-19.56,-5.56,-0.56,1.18
42.00,1.00,263.00,-0.50,-48.88,3.44,-9.62,-11.88,-0.56,1.18
42.00,2.00,35.69,-22.88,6.44,8.25,7.50,-13.88,-0.56,1.18
42.00,0.00,280.12,-5.62,-100.56,3.38,-19.69,-5.94,-0.64,1.20
42.00,1.00,263.25,-0.50,-48.88,2.81,-7.31,-9.19,-0.64,1.20
42.00,2.00,35.81,-22.94,6.38,5.94,5.38,-10.00,-0.64,1.20
42.00,0.00,280.69,-5.81,-100.56,2.31,-19.19,-4.88,-0.70,1.22
42.00,1.00,263.44,-0.50,-48.94,3.62,-5.44,-5.38,-0.70,1.22
42.00,2.00,36.06,-23.00,6.38,4.12,3.50,-5.12,-0.70,1.22
42.00,0.00,281.12,-5.94,-100.56,1.62,-16.44,-2.62,-0.74,1.24
42.00,1.00,263.50,-0.50,-49.00,3.75,-4.06,-1.69,-0.74,1.24
42.00,2.00,36.06,-23.06,6.31,2.88,0.88,-1.88,-0.74,1.24
42.00,0.00,281.44,-6.00,-100.56,0.25,-9.12,-0.75,-0.78,1.26
42.00,1.00,263.56,-0.44,-49.00,3.12,-2.62,0.56,-0.78,1.26
42.00,2.00,36.12,-23.06,6.19,1.81,-0.94,0.88,-0.78,1.26
42.00,0.00,281.50,-6.00,-100.56,0.00,-2.75,1.38,-0.83,1.28
42.00,1.00,263.50,-0.44,-49.06,2.69,-1.44,2.19,-0.83,1.28
42.00,2.00,36.06,-23.06,6.12,1.38,-2.06,2.62,-0.83,1.28
42.00,0.00,281.31,-5.88,-100.56,0.31,3.12,3.94,-0.83,1.30
42.00,1.00,263.44,-0.31,-49.12,2.31,-0.88,3.38,-0.83,1.30
42.00,2.00,36.00,-23.00,6.06,0.38,-3.19,4.31,-0.83,1.30
42.00,0.00,280.94,-5.62,-100.56,-0.31,9.31,5.62,-0.84,1.32
42.00,1.00,263.38,-0.25,-49.19,2.19,-0.12,4.00,-0.84,1.32
42.00,2.00,35.88,-22.88,6.00,0.06,-4.19,5.06,-0.84,1.32
42.00,0.00,280.75,-5.56,-100.62,0.38,10.88,5.75,-0.83,1.34
42.00,1.00,263.31,-0.19,-49.19,2.12,0.81,3.94,-0.83,1.34
42.00,2.00,35.75,-22.88,5.94,0.19,-2.94,5.00,-0.83,1.34
42.00,0.00,280.38,-5.38,-100.62,1.25,9.12,5.69,-0.79,1.36
42.00,1.00,263.19,-0.12,-49.25,2.19,1.88,3.06,-0.79,1.36
42.00,2.00,35.69,-22.81,5.88,-0.25,-1.38,4.31,-0.79,1.36
42.00,0.00,280.06,-5.25,-100.69,0.62,8.94,4.31,-0.76,1.38
42.00,1.00,263.12,-0.06,-49.31,2.81,2.44,2.38,-0.76,1.38
42.00,2.00,35.62,-22.81,5.81,-0.38,0.12,4.25,-0.76,1.38
42.00,0.00,279.81,-5.19,-100.69,0.31,5.62,2.25,-0.74,1.40
42.00,1.00,263.06,-0.06,-49.38,3.19,2.06,2.25,-0.74,1.40
42.00,2.00,35.56,-22.81,5.81,-0.19,0.38,3.88,-0.74,1.40
42.00,0.00,279.62,-5.12,-100.69,1.56,0.81,1.38,-0.70,1.42
42.00,1.00,263.00,-0.06,-49.44,3.25,1.38,1.56,-0.70,1.42
42.00,2.00,35.50,-22.81,5.81,0.31,0.56,1.38,-0.70,1.42
42.00,0.00,279.62,-5.06,-100.75,1.00,-0.88,-0.12,-0.69,1.44
42.00,1.00,262.94,-0.06,-49.50,2.88,1.12,1.19,-0.69,1.44
42.00,2.00,35.50,-22.81,5.81,0.56,0.44,0.69,-0.69,1.44
42.00,0.00,279.69,-5.12,-100.75,0.75,-1.44,-0.88,-0.68,1.46
42.00,1.00,262.94,-0.06,-49.56,2.19,1.38,1.19,-0.68,1.46
42.00,2.00,35.50,-22.81,5.75,0.44,1.00,0.31,-0.68,1.46
42.00,0.00,279.81,-5.19,-100.75,1.31,-5.50,-1.69,-0.64,1.48
42.00,1.00,262.88,-0.06,-49.56,2.19,1.75,0.75,-0.64,1.48
42.00,2.00,35.50,-22.88,5.75,0.12,1.81,-0.31,-0.64,1.48
42.00,0.00,280.00,-5.25,-100.75,0.88,-5.19,-1.56,-0.58,1.50
42.00,1.00,262.88,-0.12,-49.62,1.31,3.25,1.00,-0.58,1.50
42.00,2.00,35.50,-22.94,5.75,-1.06,2.06,-0.12,-0.58,1.50
42.00,0.00,280.12,-5.25,-100.75,-0.50,-4.31,-0.94,-0.55,1.52
42.00,1.00,262.81,-0.12,-49.62,0.81,3.81,1.62,-0.55,1.52
42.00,2.00,35.44,-23.00,5.75,-1.50,1.75,0.56,-0.55,1.52
42.00,0.00,280.25,-5.31,-100.75,0.00,-6.00,-0.12,-0.50,1.54
42.00,1.00,262.75,-0.19,-49.62,-0.50,4.31,1.69,-0.50,1.54
42.00,2.00,35.44,-23.06,5.75,-1.69,2.06,1.19,-0.50,1.54
42.00,0.00,280.38,-5.31,-100.75,-0.56,-5.06,0.19,-0.42,1.56
42.00,1.00,262.62,-0.19,-49.62,-0.69,5.12,2.44,-0.42,1.56
42.00,2.00,35.38,-23.06,5.75,-3.06,1.00,2.06,-0.42,1.56
42.00,0.00,280.44,-5.31,-100.69,-2.12,-3.56,-0.81,-0.38,1.58
42.00,1.00,262.56,-0.25,-49.62,-1.12,5.69,3.25,-0.38,1.58
42.00,2.00,35.31,-23.12,5.75,-3.50,0.75,3.12,-0.38,1.58
42.00,0.00,280.56,-5.38,-100.69,-1.69,-4.81,-0.62,-0.32,1.60
42.00,1.00,262.44,-0.25,-49.56,-1.56,6.00,4.12,-0.32,1.60
42.00,2.00,35.25,-23.12,5.75,-3.81,0.69,3.56,-0.32,1.60
42.00,0.00,280.69,-5.38,-100.62,-1.88,-3.81,0.00,-0.24,1.62
42.00,1.00,262.25,-0.25,-49.56,-1.62,6.25,5.06,-0.24,1.62
42.00,2.00,35.12,-23.12,5.81,-4.25,0.38,3.69,-0.24,1.62
42.00,0.00,280.75,-5.38,-100.56,-2.94,-3.44,-0.69,-0.20,1.64
42.00,1.00,262.06,-0.25,-49.56,-1.69,7.12,5.75,-0.20,1.64
42.00,2.00,35.00,-23.12,5.81,-4.31,0.38,3.75,-0.20,1.64
42.00,0.00,280.81,-5.38,-100.50,-2.25,-4.44,-0.81,-0.12,1.66
42.00,1.00,261.88,-0.25,-49.50,-2.38,5.81,6.31,-0.12,1.66
42.00,2.00,35.00,-23.12,5.81,-4.75,-0.25,3.88,-0.12,1.66
42.00,0.00,280.94,-5.44,-100.50,-2.31,-4.38,-0.56,-0.05,1.68
42.00,1.00,261.75,-0.19,-49.44,-2.06,4.75,5.88,-0.05,1.68
42.00,2.00,34.81,-23.06,5.94,-4.62,-1.25,3.75,-0.05,1.68
42.00,0.00,280.94,-5.44,-100.44,-3.44,-2.31,-0.94,-0.04,1.70
42.00,1.00,261.56,-0.19,-49.44,-1.44,3.94,5.56,-0.04,1.70
42.00,2.00,34.81,-23.06,5.94,-3.94,-1.12,3.50,-0.04,1.70
42.00,0.00,281.00,-5.44,-100.38,-2.44,-2.38,-0.62,-0.03,1.72
42.00,1.00,261.44,-0.12,-49.38,-1.50,2.62,5.62,-0.03,1.72
42.00,2.00,34.69,-23.06,6.00,-2.81,-1.56,2.38,-0.03,1.72
42.00,0.00,281.00,-5.44,-100.31,-2.38,-1.12,0.56,-0.03,1.74
42.00,1.00,261.31,-0.06,-49.38,-1.31,1.69,5.62,-0.03,1.74
42.00,2.00,34.62,-23.00,6.06,-2.12,-2.56,1.38,-0.03,1.74
42.00,0.00,280.94,-5.38,-100.25,-2.81,1.88,2.00,-0.06,1.76
42.00,1.00,261.25,0.00,-49.31,-1.06,1.88,5.06,-0.06,1.76
42.00,2.00,34.62,-23.00,6.06,-1.81,-2.75,1.25,-0.06,1.76
42.00,0.00,280.81,-5.31,-100.19,-2.94,2.81,2.62,-0.08,1.78
42.00,1.00,261.12,0.00,-49.31,-1.19,1.75,5.12,-0.08,1.78
42.00,2.00,34.56,-22.94,6.06,-2.31,-2.62,2.12,-0.08,1.78
42.00,0.00,280.62,-5.19,-100.12,-2.44,3.44,4.06,-0.06,1.80
42.00,1.00,260.94,0.00,-49.25,-1.62,3.50,6.62,-0.06,1.80
42.00,2.00,34.50,-22.88,6.12,-3.19,-2.62,2.62,-0.06,1.80
42.00,0.00,280.38,-5.06,-100.06,-3.88,7.19,4.88,0.00,1.82
42.00,1.00,260.75,0.06,-49.25,-2.44,3.81,7.25,0.00,1.82
42.00,2.00,34.38,-22.81,6.19,-5.69,-3.25,4.19,0.00,1.82
42.00,0.00,280.12,-4.94,-100.00,-3.94,8.25,5.25,0.08,1.84
42.00,1.00,260.62,0.12,-49.19,-3.12,4.19,6.69,0.08,1.84
42.00,2.00,34.25,-22.75,6.25,-6.50,-3.44,4.00,0.08,1.84
42.00,0.00,279.81,-4.81,-99.94,-3.19,6.50,6.00,0.19,1.86
42.00,1.00,260.44,0.19,-49.06,-3.75,4.44,7.00,0.19,1.86
42.00,2.00,34.19,-22.75,6.31,-6.88,-3.00,4.19,0.19,1.86
42.00,0.00,279.56,-4.69,-99.88,-4.25,7.81,5.69,0.28,1.88
42.00,1.00,260.25,0.19,-49.00,-3.88,5.25,7.00,0.28,1.88
42.00,2.00,34.06,-22.69,6.44,-7.06,-2.06,4.56,0.28,1.88
42.00,0.00,279.31,-4.62,-99.81,-4.38,6.31,4.00,0.34,1.90
42.00,1.00,260.06,0.25,-48.94,-3.19,5.50,7.06,0.34,1.90
42.00,2.00,34.00,-22.69,6.50,-6.56,-1.94,4.75,0.34,1.90
42.00,0.00,279.25,-4.56,-99.75,-3.25,2.50,2.62,0.45,1.92
42.00,1.00,259.88,0.25,-48.88,-3.50,6.31,7.50,0.45,1.92
42.00,2.00,33.81,-22.69,6.62,-6.75,-1.06,5.69,0.45,1.92
42.00,0.00,279.19,-4.56,-99.69,-2.88,-0.12,1.88,0.60,1.94
42.00,1.00,259.62,0.31,-48.75,-3.06,7.12,8.44,0.60,1.94
42.00,2.00,33.62,-22.62,6.69,-7.62,-1.88,6.50,0.60,1.94
42.00,0.00,279.25,-4.56,-99.62,-3.50,-2.44,0.31,0.72,1.96
42.00,1.00,259.44,0.31,-48.69,-2.94,7.56,9.00,0.72,1.96
42.00,2.00,33.56,-22.62,6.75,-7.56,-2.00,6.31,0.72,1.96
42.00,0.00,279.31,-4.62,-99.56,-3.44,-4.00,-0.56,0.82,1.98
42.00,1.00,259.19,0.38,-48.62,-3.12,7.31,9.12,0.82,1.98
42.00,2.00,33.31,-22.56,6.88,-6.56,-1.81,6.38,0.82,1.98
42.00,0.00,279.44,-4.62,-99.50,-3.12,-4.38,-0.44,0.93,2.00
42.00,1.00,258.94,0.38,-48.56,-3.69,7.06,8.62,0.93,2.00
42.00,2.00,33.25,-22.56,6.94,-6.75,-1.81,6.62,0.93,2.00
42.00,0.00,279.50,-4.62,-99.44,-3.19,-3.50,-0.12,1.03,2.02
42.00,1.00,258.69,0.44,-48.50,-4.00,7.25,8.81,1.03,2.02
42.00,2.00,33.00,-22.50,7.00,-6.56,-2.31,6.31,1.03,2.02
42.00,0.00,279.50,-4.62,-99.38,-2.81,-1.88,0.69,1.17,2.04
42.00,1.00,258.50,0.50,-48.38,-4.19,7.06,8.69,1.17,2.04
42.00,2.00,32.88,-22.50,7.12,-7.12,-2.19,5.88,1.17,2.04
42.00,0.00,279.50,-4.56,-99.31,-2.56,-0.56,1.25,1.32,2.06
42.00,1.00,258.25,0.50,-48.31,-4.31,6.00,8.50,1.32,2.06
42.00,2.00,32.81,-22.44,7.19,-7.62,-2.38,6.06,1.32,2.06
42.00,0.00,279.44,-4.56,-99.25,-1.62,-0.50,1.50,1.47,2.08
42.00,1.00,258.06,0.56,-48.19,-4.50,3.75,7.06,1.47,2.08
42.00,2.00,32.62,-22.44,7.31,-6.25,-2.50,4.00,1.47,2.08
42.00,0.00,279.44,-4.50,-99.19,-1.50,0.25,1.12,1.59,2.10
42.00,1.00,257.94,0.62,-48.12,-4.50,1.69,6.06,1.59,2.10
42.00,2.00,32.56,-22.38,7.31,-5.50,-2.44,2.88,1.59,2.10
42.00,0.00,279.38,-4.50,-99.19,-1.25,1.00,1.56,1.60,2.12
42.00,1.00,257.81,0.69,-48.06,-3.06,-0.25,4.75,1.60,2.12
42.00,2.00,32.50,-22.31,7.44,-1.50,-2.31,0.31,1.60,2.12
42.00,0.00,279.25,-4.44,-99.12,-0.81,1.75,2.19,1.58,2.14
42.00,1.00,257.75,0.75,-48.00,-2.00,-1.50,3.81,1.58,2.14
42.00,2.00,32.50,-22.25,7.44,-0.25,-2.50,-1.19,1.58,2.14
42.00,0.00,279.19,-4.38,-99.12,-0.06,2.19,3.06,1.58,2.16
42.00,1.00,257.75,0.81,-47.94,-2.12,-1.94,3.62,1.58,2.16
42.00,2.00,32.56,-22.25,7.44,0.00,-2.50,-1.50,1.58,2.16
42.00,0.00,279.06,-4.25,-99.12,0.31,0.88,3.62,1.59,2.18
42.00,1.00,257.69,0.88,-47.94,-1.44,-1.81,3.12,1.59,2.18
42.00,2.00,32.56,-22.12,7.44,0.00,-3.69,-1.44,1.59,2.18
42.00,0.00,279.00,-4.19,-99.12,-0.19,-0.69,3.62,1.57,2.20
42.00,1.00,257.62,0.94,-47.88,-1.25,-1.69,3.56,1.57,2.20
42.00,2.00,32.56,-22.06,7.44,0.38,-3.31,-1.31,1.57,2.20
42.00,0.00,278.94,-4.12,-99.12,-0.75,-1.69,3.69,1.55,2.22
42.00,1.00,257.56,1.06,-47.88,-1.25,-1.50,3.88,1.55,2.22
42.00,2.00,32.62,-22.06,7.44,-0.19,-3.31,0.00,1.55,2.22
42.00,0.00,278.94,-4.06,-99.12,-0.62,-1.81,3.69,1.54,2.24
42.00,1.00,257.50,1.12,-47.81,-0.88,-1.19,4.06,1.54,2.24
42.00,2.00,32.62,-21.94,7.44,-0.12,-3.62,0.38,1.54,2.24
42.00,0.00,278.88,-4.00,-99.12,-0.06,-1.69,4.00,1.54,2.26
42.00,1.00,257.44,1.19,-47.81,-0.81,-1.50,4.19,1.54,2.26
42.00,2.00,32.56,-21.88,7.44,-0.31,-3.75,0.19,1.54,2.26
42.00,0.00,278.88,-3.94,-99.12,0.50,-1.44,4.00,1.60,2.28
42.00,1.00,257.38,1.25,-47.81,-0.81,-1.56,4.38,1.60,2.28
42.00,2.00,32.56,-21.81,7.44,-1.31,-2.50,-0.50,1.60,2.28
42.00,0.00,278.75,-3.88,-99.12,2.06,-0.56,4.12,1.72,2.30
42.00,1.00,257.31,1.38,-47.75,-1.38,-1.50,4.19,1.72,2.30
42.00,2.00,32.56,-21.81,7.50,-1.81,-2.62,-0.69,1.72,2.30
42.00,0.00,278.75,-3.75,-99.19,3.75,-1.88,4.00,1.88,2.32
42.00,1.00,257.19,1.44,-47.75,-1.12,-0.56,4.00,1.88,2.32
42.00,2.00,32.62,-21.75,7.56,-1.38,-2.81,-1.19,1.88,2.32
42.00,0.00,278.75,-3.75,-99.25,4.44,-4.12,3.62,2.04,2.34
42.00,1.00,257.12,1.50,-47.69,-0.06,-0.88,3.44,2.04,2.34
42.00,2.00,32.62,-21.69,7.56,-0.69,-2.19,-1.62,2.04,2.34
42.00,0.00,278.81,-3.69,-99.38,4.94,-5.19,3.06,2.21,2.36
42.00,1.00,257.06,1.56,-47.69,0.38,-1.19,2.69,2.21,2.36
42.00,2.00,32.62,-21.62,7.62,-0.81,-1.19,-1.69,2.21,2.36
42.00,0.00,278.88,-3.62,-99.44,6.44,-5.38,2.69,2.42,2.38
42.00,1.00,257.06,1.62,-47.69,0.75,-0.69,3.12,2.42,2.38
42.00,2.00,32.69,-21.56,7.62,-0.12,-0.62,-1.12,2.42,2.38
42.00,0.00,279.00,-3.62,-99.62,8.19,-7.38,1.69,2.64,2.40
42.00,1.00,257.00,1.69,-47.69,0.69,0.75,2.44,2.64,2.40
42.00,2.00,32.69,-21.56,7.62,0.81,-0.81,-0.69,2.64,2.40
42.00,0.00,279.25,-3.62,-99.75,9.88,-10.06,1.31,2.92,2.42
42.00,1.00,256.94,1.69,-47.69,1.06,1.44,2.75,2.92,2.42
42.00,2.00,32.69,-21.56,7.62,0.81,1.12,-1.19,2.92,2.42
42.00,0.00,279.50,-3.62,-100.00,12.69,-12.00,1.94,3.33,2.44
42.00,1.00,256.75,1.75,-47.69,0.62,4.06,6.62,3.33,2.44
42.00,2.00,32.75,-21.56,7.62,-0.44,1.19,-1.56,3.33,2.44
42.00,0.00,279.75,-3.62,-100.25,14.25,-13.31,2.00,3.87,2.46
42.00,1.00,256.62,1.75,-47.69,0.44,2.38,3.94,3.87,2.46
42.00,2.00,32.75,-21.56,7.69,-3.25,-1.88,-1.38,3.87,2.46
42.00,0.00,280.12,-3.69,-100.56,16.56,-16.88,0.25,4.44,2.48
42.00,1.00,256.62,1.75,-47.69,0.19,-0.06,1.56,4.44,2.48
42.00,2.00,32.75,-21.50,7.75,-2.19,-1.56,-1.19,4.44,2.48
42.00,0.00,280.62,-3.75,-100.88,21.69,-22.25,1.81,5.08,2.50
42.00,1.00,256.56,1.81,-47.69,0.19,0.31,1.88,5.08,2.50
42.00,2.00,32.81,-21.50,7.75,0.88,1.25,-2.94,5.08,2.50
42.00,0.00,281.19,-3.81,-101.31,24.31,-23.88,2.50,5.90,2.52
42.00,1.00,256.50,1.81,-47.62,-2.00,2.50,4.44,5.90,2.52
42.00,2.00,32.88,-21.56,7.81,-2.06,1.06,-4.31,5.90,2.52
42.00,0.00,281.81,-3.88,-101.81,29.56,-26.00,-1.44,6.98,2.54
42.00,1.00,256.44,1.88,-47.56,-3.38,-0.75,2.56,6.98,2.54
42.00,2.00,32.94,-21.50,7.94,-5.50,-4.62,-2.56,6.98,2.54
42.00,0.00,282.69,-4.12,-102.50,36.25,-27.75,-8.12,8.23,2.56
42.00,1.00,256.44,1.94,-47.56,-1.12,-3.88,0.75,8.23,2.56
42.00,2.00,33.00,-21.38,8.06,-4.38,-4.81,-2.88,8.23,2.56
42.00,0.00,283.69,-4.44,-103.25,46.06,-28.50,-11.75,9.59,2.58
42.00,1.00,256.50,2.00,-47.56,0.31,-6.88,-1.44,9.59,2.58
42.00,2.00,33.06,-21.31,8.06,1.81,-3.12,-6.12,9.59,2.58
42.00,0.00,284.75,-4.81,-104.31,60.12,-31.94,-10.56,11.27,2.60
42.00,1.00,256.56,2.06,-47.56,0.62,-8.88,-4.19,11.27,2.60
42.00,2.00,33.25,-21.25,8.06,5.81,-2.31,-10.69,11.27,2.60
42.00,0.00,285.88,-5.12,-105.56,66.62,-29.88,-8.31,13.10,2.62
42.00,1.00,256.81,2.12,-47.56,1.00,-9.50,-5.75,13.10,2.62
42.00,2.00,33.56,-21.19,8.00,7.31,-0.38,-12.44,13.10,2.62
42.00,0.00,286.94,-5.44,-106.88,71.12,-28.00,-8.19,15.02,2.64
42.00,1.00,257.00,2.19,-47.56,2.94,-8.75,-5.81,15.02,2.64
42.00,2.00,33.81,-21.12,7.94,8.81,0.19,-11.62,15.02,2.64
42.00,0.00,288.06,-5.69,-108.25,73.88,-22.75,-6.88,17.02,2.66
42.00,1.00,257.06,2.19,-47.62,3.69,-8.94,-5.62,17.02,2.66
42.00,2.00,34.06,-21.12,7.88,8.88,0.00,-10.38,17.02,2.66
42.00,0.00,288.94,-5.94,-109.69,78.31,-18.81,-3.69,19.18,2.68
42.00,1.00,257.25,2.25,-47.62,5.12,-9.25,-4.94,19.18,2.68
42.00,2.00,34.25,-21.06,7.75,8.19,-4.19,-5.69,19.18,2.68
42.00,0.00,289.56,-6.06,-111.25,81.06,-13.50,0.38,21.42,2.70
42.00,1.00,257.44,2.25,-47.75,6.38,-8.94,-4.50,21.42,2.70
42.00,2.00,34.38,-20.94,7.62,8.50,-5.19,-4.50,21.42,2.70
42.00,0.00,290.25,-6.06,-112.81,81.00,-8.06,3.94,23.65,2.72
42.00,1.00,257.56,2.31,-47.88,6.81,-7.50,-3.56,23.65,2.72
42.00,2.00,34.44,-20.88,7.50,8.38,-4.81,-3.94,23.65,2.72
42.00,0.00,290.62,-6.00,-114.38,82.19,-6.56,5.50,26.05,2.74
42.00,1.00,257.69,2.38,-48.00,4.62,-6.44,-1.50,26.05,2.74
42.00,2.00,34.56,-20.75,7.38,4.56,-8.12,-3.38,26.05,2.74
42.00,0.00,291.00,-5.94,-115.94,82.75,-5.88,6.88,28.53,2.76
42.00,1.00,257.81,2.44,-48.12,4.69,-7.88,-1.31,28.53,2.76
42.00,2.00,34.62,-20.56,7.31,2.06,-11.00,-2.88,28.53,2.76
42.00,0.00,291.38,-5.88,-117.50,82.44,-6.81,7.69,30.96,2.78
42.00,1.00,257.88,2.50,-48.19,5.81,-10.00,-2.38,30.96,2.78
42.00,2.00,34.69,-20.31,7.31,3.75,-13.69,-4.25,30.96,2.78
42.00,0.00,291.81,-5.81,-119.12,83.00,-9.00,7.12,33.33,2.80
42.00,1.00,258.06,2.62,-48.31,5.81,-10.12,-3.19,33.33,2.80
42.00,2.00,34.75,-20.00,7.19,6.19,-12.75,-5.62,33.33,2.80
42.00,0.00,292.38,-5.81,-120.69,84.56,-11.56,4.69,35.69,2.82
42.00,1.00,258.19,2.69,-48.44,6.69,-9.88,-5.06,35.69,2.82
42.00,2.00,34.94,-19.81,7.12,7.88,-9.38,-6.44,35.69,2.82
42.00,0.00,293.19,-5.94,-122.31,85.50,-14.88,1.69,38.19,2.84
42.00,1.00,258.38,2.75,-48.62,6.50,-10.44,-5.31,38.19,2.84
42.00,2.00,35.06,-19.62,7.00,4.31,-9.31,-4.75,38.19,2.84
42.00,0.00,293.62,-6.00,-123.12,84.69,-15.69,0.50,40.63,2.86
42.00,1.00,258.56,2.81,-48.75,6.62,-10.69,-5.50,40.63,2.86
42.00,2.00,35.12,-19.44,6.94,5.50,-9.12,-4.94,40.63,2.86
42.00,0.00,295.06,-6.25,-125.50,80.94,-16.44,0.56,42.92,2.88
42.00,1.00,258.81,2.81,-48.88,5.88,-8.88,-6.44,42.92,2.88
42.00,2.00,35.25,-19.19,6.81,6.56,-9.75,-5.38,42.92,2.88
42.00,0.00,296.12,-6.44,-127.00,78.19,-18.38,1.06,45.09,2.90
42.00,1.00,259.00,2.88,-49.00,6.44,-8.75,-6.19,45.09,2.90
42.00,2.00,35.38,-19.00,6.69,7.81,-9.44,-4.56,45.09,2.90
42.00,0.00,297.19,-6.69,-128.44,74.25,-18.12,0.75,47.06,2.92
42.00,1.00,259.19,2.88,-49.19,7.75,-8.19,-5.50,47.06,2.92
42.00,2.00,35.44,-18.88,6.56,10.50,-7.00,-2.06,47.06,2.92
42.00,0.00,298.31,-6.88,-129.81,71.50,-18.75,2.56,48.94,2.94
42.00,1.00,259.31,2.88,-49.31,7.31,-6.31,-4.75,48.94,2.94
42.00,2.00,35.50,-18.69,6.31,10.31,-9.06,-1.44,48.94,2.94
42.00,0.00,298.88,-6.94,-130.44,65.94,-18.06,3.94,50.74,2.96
42.00,1.00,259.50,2.88,-49.50,6.81,-5.44,-4.00,50.74,2.96
42.00,2.00,35.56,-18.50,6.19,7.50,-9.38,-1.38,50.74,2.96
42.00,0.00,299.81,-7.12,-131.62,58.81,-16.12,2.19,52.36,2.98
42.00,1.00,259.56,2.94,-49.62,5.69,-5.69,-1.25,52.36,2.98
42.00,2.00,35.56,-18.31,6.06,6.44,-11.38,0.25,52.36,2.98
42.00,0.00,300.81,-7.31,-132.69,53.69,-16.06,1.19,53.81,3.00
42.00,1.00,259.62,3.00,-49.69,5.75,-5.38,-0.69,53.81,3.00
42.00,2.00,35.56,-18.12,5.94,6.56,-10.94,0.38,53.81,3.00
42.00,0.00,301.75,-7.44,-133.62,49.00,-15.94,2.25,55.20,3.02
42.00,1.00,259.69,3.06,-49.81,4.19,-4.62,0.62,55.20,3.02
42.00,2.00,35.56,-17.94,5.81,4.00,-10.06,-1.25,55.20,3.02
42.00,0.00,302.81,-7.62,-134.50,46.50,-15.06,4.69,56.47,3.04
42.00,1.00,259.69,3.12,-49.94,4.19,-5.00,0.69,56.47,3.04
42.00,2.00,35.62,-17.69,5.69,5.19,-10.56,-1.56,56.47,3.04
42.00,0.00,303.75,-7.75,-135.38,40.81,-10.81,5.50,57.53,3.06
42.00,1.00,259.75,3.19,-50.00,4.38,-4.94,0.75,57.53,3.06
42.00,2.00,35.69,-17.50,5.62,6.31,-9.81,-1.75,57.53,3.06
42.00,0.00,102.00,-7.81,-136.06,33.38,-8.12,4.06,58.30,3.08
42.00,1.00,259.75,3.25,-50.06,4.31,-6.25,0.44,58.30,3.08
42.00,2.00,35.75,-17.31,5.44,8.56,-9.94,-3.06,58.30,3.08
42.00,0.00,102.12,-7.88,-136.69,27.81,-1.81,2.88,58.87,3.10
42.00,1.00,259.81,3.31,-50.19,4.50,-6.06,0.56,58.87,3.10
42.00,2.00,35.81,-17.12,5.31,9.31,-8.12,-3.88,58.87,3.10
42.00,0.00,102.25,-7.81,-137.19,25.50,1.19,2.75,59.32,3.12
42.00,1.00,259.88,3.44,-50.25,3.44,-6.19,0.81,59.32,3.12
42.00,2.00,35.94,-17.00,5.12,10.69,-8.00,-5.19,59.32,3.12
42.00,0.00,102.31,-7.75,-137.62,20.50,2.62,2.56,59.62,3.14
42.00,1.00,259.94,3.50,-50.31,4.25,-8.38,-1.94,59.62,3.14
42.00,2.00,36.06,-16.81,4.94,11.06,-7.50,-6.19,59.62,3.14
42.00,0.00,102.38,-7.69,-138.00,18.81,3.38,2.75,59.85,3.16
42.00,1.00,260.06,3.56,-50.44,4.31,-9.25,-2.19,59.85,3.16
42.00,2.00,36.19,-16.69,4.75,11.31,-6.88,-6.56,59.85,3.16
42.00,0.00,102.25,-7.62,-138.25,9.38,1.44,-0.50,59.80,3.18
42.00,1.00,260.19,3.69,-50.56,5.25,-9.00,-1.94,59.80,3.18
42.00,2.00,36.38,-16.56,4.56,11.00,-4.44,-6.75,59.80,3.18
42.00,0.00,102.25,-7.62,-138.44,7.38,-1.00,-2.19,59.69,3.20
42.00,1.00,260.25,3.75,-50.62,4.94,-8.56,-1.81,59.69,3.20
42.00,2.00,36.50,-16.44,4.38,10.75,-3.94,-6.62,59.69,3.20
42.00,0.00,102.00,-7.69,-138.56,6.31,-0.62,-1.75,59.67,3.22
42.00,1.00,260.38,3.81,-50.75,4.12,-7.56,-1.19,59.67,3.22
42.00,2.00,36.69,-16.38,4.25,7.00,-2.50,-4.62,59.67,3.22
42.00,0.00,102.00,-7.69,-138.62,1.56,-0.81,-2.69,59.57,3.24
42.00,1.00,260.44,3.88,-50.81,3.56,-6.12,-0.44,59.57,3.24
42.00,2.00,36.75,-16.31,4.12,4.69,-1.44,-2.19,59.57,3.24
42.00,0.00,101.94,-7.69,-138.81,0.19,-0.62,-3.31,59.45,3.26
42.00,1.00,260.50,3.94,-50.88,3.19,-5.50,0.00,59.45,3.26
42.00,2.00,36.81,-16.31,4.00,4.31,-0.88,-1.81,59.45,3.26
42.00,0.00,101.81,-7.69,-138.94,-2.06,0.75,-3.25,59.30,3.28
42.00,1.00,260.50,4.00,-50.94,1.62,-3.00,0.94,59.30,3.28
42.00,2.00,36.81,-16.31,3.88,2.81,1.25,-0.12,59.30,3.28
42.00,0.00,101.75,-7.62,-139.00,-4.44,1.62,-2.06,59.09,3.30
42.00,1.00,260.50,4.06,-51.00,1.44,-2.25,1.75,59.09,3.30
42.00,2.00,36.81,-16.31,3.69,2.31,1.56,1.06,59.09,3.30
42.00,0.00,101.69,-7.62,-138.94,-7.00,2.12,-1.94,58.92,3.32
42.00,1.00,260.50,4.12,-51.06,0.94,-0.81,2.62,58.92,3.32
42.00,2.00,36.75,-16.38,3.56,-1.50,0.56,3.31,58.92,3.32
42.00,0.00,101.62,-7.56,-138.88,-9.31,2.31,-1.88,58.68,3.34
42.00,1.00,260.38,4.19,-51.06,0.25,1.62,4.00,58.68,3.34
42.00,2.00,36.69,-16.38,3.50,-1.50,0.38,3.31,58.68,3.34
42.00,0.00,101.56,-7.50,-138.69,-10.94,3.12,-1.25,58.40,3.36
42.00,1.00,260.31,4.25,-51.06,-0.56,2.81,4.38,58.40,3.36
42.00,2.00,36.56,-16.38,3.50,-1.81,0.44,3.25,58.40,3.36
42.00,0.00,101.31,-7.38,-138.56,-11.31,4.00,-0.94,58.11,3.38
42.00,1.00,260.19,4.25,-51.12,-0.25,3.25,3.19,58.11,3.38
42.00,2.00,36.50,-16.38,3.50,-1.94,0.06,4.12,58.11,3.38
42.00,0.00,101.25,-7.31,-138.50,-11.12,4.75,-0.88,57.82,3.40
42.00,1.00,260.12,4.31,-51.12,-0.50,2.88,3.12,57.82,3.40
42.00,2.00,36.44,-16.31,3.44,-1.81,0.50,3.50,57.82,3.40
42.00,0.00,101.19,-7.19,-138.50,-9.75,4.81,-0.50,57.61,3.42
42.00,1.00,260.00,4.31,-51.12,-1.81,2.88,2.44,57.61,3.42
42.00,2.00,36.38,-16.38,3.44,-2.81,2.25,3.62,57.61,3.42
42.00,0.00,101.12,-7.00,-138.50,-8.75,6.25,0.81,57.45,3.44
42.00,1.00,259.94,4.31,-51.12,-2.19,3.25,1.94,57.45,3.44
42.00,2.00,36.19,-16.38,3.44,-3.56,0.81,4.88,57.45,3.44
42.00,0.00,101.12,-6.81,-138.38,-12.56,7.12,0.00,57.16,3.46
42.00,1.00,259.88,4.31,-51.06,-2.00,3.56,2.44,57.16,3.46
42.00,2.00,36.12,-16.44,3.44,-3.19,0.12,5.25,57.16,3.46
42.00,0.00,100.75,-6.69,-138.25,-14.25,7.25,-2.06,56.78,3.48
42.00,1.00,259.75,4.31,-51.06,-2.06,4.44,3.06,56.78,3.48
42.00,2.00,36.06,-16.44,3.44,-1.88,0.06,6.12,56.78,3.48
42.00,0.00,100.62,-6.56,-138.06,-16.94,9.50,-2.62,56.31,3.50
42.00,1.00,259.69,4.31,-51.00,-1.62,3.88,3.75,56.31,3.50
42.00,2.00,35.88,-16.44,3.38,-1.62,-0.19,6.75,56.31,3.50
42.00,0.00,100.31,-6.31,-137.88,-15.25,10.31,-0.44,55.89,3.52
42.00,1.00,259.56,4.31,-51.00,-1.62,3.94,5.12,55.89,3.52
42.00,2.00,35.75,-16.44,3.31,-1.81,-0.69,7.81,55.89,3.52
42.00,0.00,100.25,-6.06,-137.69,-13.69,12.62,3.69,55.60,3.54
42.00,1.00,259.38,4.38,-50.94,-3.12,5.94,5.94,55.60,3.54
42.00,2.00,35.44,-16.38,3.25,-4.25,-2.44,9.38,55.60,3.54
42.00,0.00,100.25,-5.81,-137.50,-14.56,13.81,4.81,55.29,3.56
42.00,1.00,259.19,4.38,-50.88,-4.00,5.75,6.69,55.29,3.56
42.00,2.00,35.38,-16.38,3.25,-4.56,-2.31,9.94,55.29,3.56
42.00,0.00,100.06,-5.56,-137.25,-15.25,12.56,2.44,55.03,3.58
42.00,1.00,259.00,4.44,-50.81,-4.50,6.19,7.50,55.03,3.58
42.00,2.00,35.12,-16.38,3.25,-6.75,-2.94,11.19,55.03,3.58
42.00,0.00,100.00,-5.38,-137.00,-15.25,12.25,2.19,54.73,3.60
42.00,1.00,258.81,4.44,-50.69,-5.75,7.25,7.12,54.73,3.60
42.00,2.00,34.88,-16.31,3.31,-5.56,-3.06,10.88,54.73,3.60
42.00,0.00,99.69,-5.12,-136.69,-15.88,14.44,3.38,54.46,3.62
42.00,1.00,258.56,4.50,-50.56,-6.38,8.19,7.38,54.46,3.62
42.00,2.00,34.69,-16.25,3.31,-7.19,-2.75,10.94,54.46,3.62
42.00,0.00,99.62,-4.88,-136.38,-15.69,15.94,2.62,54.22,3.64
42.00,1.00,258.38,4.50,-50.44,-7.06,9.44,7.88,54.22,3.64
42.00,2.00,34.31,-16.19,3.44,-7.81,-2.38,11.62,54.22,3.64
42.00,0.00,99.50,-4.56,-136.12,-13.25,17.38,1.44,54.11,3.66
42.00,1.00,258.12,4.50,-50.25,-7.94,10.38,8.00,54.11,3.66
42.00,2.00,34.19,-16.19,3.44,-9.62,-3.00,12.00,54.11,3.66
42.00,0.00,99.00,-4.31,-135.94,-12.69,20.19,-0.88,54.06,3.68
42.00,1.00,257.88,4.50,-50.06,-8.06,9.44,7.56,54.06,3.68
42.00,2.00,33.75,-16.12,3.69,-10.94,-1.31,11.75,54.06,3.68
42.00,0.00,98.81,-4.06,-135.69,-11.81,21.06,-3.75,54.00,3.70
42.00,1.00,257.62,4.50,-49.94,-7.56,9.25,7.12,54.00,3.70
42.00,2.00,33.62,-16.12,3.75,-9.88,-0.12,11.38,54.00,3.70
42.00,0.00,98.38,-3.88,-135.56,-7.94,19.88,-4.50,54.01,3.72
42.00,1.00,257.44,4.50,-49.75,-6.88,8.56,6.44,54.01,3.72
42.00,2.00,33.38,-16.19,3.88,-8.25,1.31,11.38,54.01,3.72
42.00,0.00,98.12,-3.69,-135.44,-7.31,19.38,-4.06,54.11,3.74
42.00,1.00,257.25,4.50,-49.62,-6.62,8.94,7.12,54.11,3.74
42.00,2.00,33.00,-16.19,4.06,-10.75,-0.25,13.38,54.11,3.74
42.00,0.00,97.88,-3.44,-135.38,-4.00,19.38,-3.88,54.31,3.76
42.00,1.00,257.06,4.44,-49.44,-7.19,8.44,5.12,54.31,3.76
42.00,2.00,32.81,-16.19,4.12,-10.56,-1.56,13.44,54.31,3.76
42.00,0.00,97.50,-3.25,-135.25,-6.81,20.75,-7.25,54.25,3.78
42.00,1.00,256.94,4.44,-49.31,-6.81,8.50,3.75,54.25,3.78
42.00,2.00,32.50,-16.25,4.19,-4.81,1.31,10.56,54.25,3.78
42.00,0.00,97.19,-3.12,-135.19,-5.56,18.31,-9.75,54.21,3.80
42.00,1.00,256.75,4.31,-49.19,-7.75,9.31,2.75,54.21,3.80
42.00,2.00,32.38,-16.25,4.19,-4.19,1.56,10.12,54.21,3.80
42.00,0.00,96.75,-3.00,-135.12,-3.44,18.12,-7.38,54.27,3.82
42.00,1.00,256.62,4.25,-49.00,-8.38,9.19,3.00,54.27,3.82
42.00,2.00,32.12,-16.31,4.25,-5.31,0.75,10.88,54.27,3.82
42.00,0.00,96.50,-2.75,-135.06,-2.88,20.75,-3.62,54.42,3.84
42.00,1.00,256.50,4.19,-48.81,-7.94,9.94,3.31,54.42,3.84
42.00,2.00,31.88,-16.31,4.31,-7.88,-0.31,12.06,54.42,3.84
42.00,0.00,96.31,-2.50,-135.06,-1.81,21.06,-0.94,54.61,3.86
42.00,1.00,256.38,4.12,-48.69,-7.19,9.69,3.56,54.61,3.86
42.00,2.00,31.62,-16.31,4.38,-7.81,-0.62,12.25,54.61,3.86
42.00,0.00,95.88,-2.19,-135.00,-2.31,20.69,-0.06,54.79,3.88
42.00,1.00,256.19,4.06,-48.50,-7.69,10.44,3.75,54.79,3.88
42.00,2.00,31.38,-16.31,4.50,-8.31,-0.31,12.62,54.79,3.88
42.00,0.00,281.25,-1.94,-134.94,-3.62,19.56,-0.31,54.91,3.90
42.00,1.00,256.06,3.94,-48.31,-8.06,10.56,3.56,54.91,3.90
42.00,2.00,31.12,-16.38,4.56,-7.38,0.50,11.81,54.91,3.90
42.00,0.00,280.38,-1.69,-134.88,-5.00,17.75,-1.19,54.96,3.92
42.00,1.00,255.88,3.88,-48.19,-8.25,11.25,2.94,54.96,3.92
42.00,2.00,30.88,-16.38,4.62,-6.75,1.38,10.62,54.96,3.92
42.00,0.00,279.69,-1.50,-134.75,-5.00,14.62,-1.56,55.01,3.94
42.00,1.00,255.75,3.75,-48.00,-8.19,11.25,3.19,55.01,3.94
42.00,2.00,30.69,-16.44,4.75,-6.69,1.50,10.06,55.01,3.94
42.00,0.00,279.12,-1.38,-134.56,-4.69,12.19,-1.44,55.09,3.96
42.00,1.00,255.56,3.69,-47.81,-8.56,11.56,3.62,55.09,3.96
42.00,2.00,30.44,-16.44,4.81,-7.25,1.12,10.38,55.09,3.96
42.00,0.00,278.56,-1.25,-134.44,-4.75,11.25,-1.06,55.19,3.98
42.00,1.00,255.44,3.56,-47.62,-8.25,11.06,3.62,55.19,3.98
42.00,2.00,30.25,-16.50,4.88,-7.88,0.19,9.44,55.19,3.98
42.00,0.00,278.19,-1.12,-134.25,-4.62,9.38,-0.56,55.30,4.00
42.00,1.00,255.25,3.50,-47.44,-7.94,10.81,3.19,55.30,4.00
42.00,2.00,30.06,-16.50,5.00,-8.12,0.00,8.38,55.30,4.00
42.00,0.00,277.75,-1.06,-134.12,-5.00,8.25,-1.00,55.37,4.02
42.00,1.00,255.12,3.38,-47.25,-9.19,10.44,2.50,55.37,4.02
42.00,2.00,29.88,-16.50,5.12,-7.50,0.25,6.75,55.37,4.02
42.00,0.00,277.50,-1.00,-133.94,-4.50,6.50,-1.56,55.45,4.04
42.00,1.00,255.00,3.25,-47.12,-9.00,9.44,1.31,55.45,4.04
42.00,2.00,29.75,-16.50,5.25,-7.00,0.81,5.56,55.45,4.04
42.00,0.00,277.38,-1.00,-133.81,-3.31,4.81,-2.06,55.53,4.06
42.00,1.00,254.94,3.19,-46.94,-7.75,8.69,1.62,55.53,4.06
42.00,2.00,29.62,-16.50,5.38,-5.88,0.88,4.88,55.53,4.06
42.00,0.00,277.25,-1.00,-133.75,-3.81,3.19,-1.94,55.59,4.08
42.00,1.00,254.81,3.06,-46.75,-7.06,8.00,1.56,55.59,4.08
42.00,2.00,29.56,-16.56,5.44,-5.75,0.69,4.62,55.59,4.08
42.00,0.00,277.19,-1.00,-133.62,-4.75,2.94,-1.94,55.64,4.10
42.00,1.00,254.75,3.00,-46.62,-7.38,7.94,0.56,55.64,4.10
42.00,2.00,29.44,-16.56,5.56,-6.50,-0.25,4.38,55.64,4.10
42.00,0.00,277.06,-1.00,-133.50,-4.50,3.75,-2.69,55.69,4.12
42.00,1.00,254.69,2.88,-46.50,-7.12,6.88,-0.50,55.69,4.12
42.00,2.00,29.38,-16.56,5.69,-6.06,0.88,4.25,55.69,4.12
42.00,0.00,276.94,-1.00,-133.44,-3.69,3.94,-3.56,55.74,4.14
42.00,1.00,254.69,2.75,-46.31,-6.38,6.25,-0.56,55.74,4.14
42.00,2.00,29.25,-16.62,5.75,-5.31,2.12,3.56,55.74,4.14
42.00,0.00,276.81,-0.94,-133.31,-3.12,5.12,-3.00,55.82,4.16
42.00,1.00,254.62,2.69,-46.19,-6.38,5.75,-0.56,55.82,4.16
42.00,2.00,29.19,-16.69,5.88,-5.50,1.69,3.31,55.82,4.16
42.00,0.00,276.56,-0.94,-133.25,-2.06,6.44,-2.00,55.91,4.18
42.00,1.00,254.62,2.56,-46.06,-5.81,5.88,-1.31,55.91,4.18
42.00,2.00,29.12,-16.69,6.00,-5.00,0.88,3.19,55.91,4.18
42.00,0.00,276.31,-0.88,-133.19,-1.25,6.31,-2.12,56.01,4.20
42.00,1.00,254.56,2.50,-45.94,-5.19,5.38,-1.31,56.01,4.20
42.00,2.00,29.06,-16.69,6.12,-4.56,1.31,2.81,56.01,4.20
42.00,0.00,276.19,-0.88,-133.12,-1.25,5.06,-3.38,56.14,4.22
42.00,1.00,254.56,2.38,-45.81,-5.44,5.38,-1.25,56.14,4.22
42.00,2.00,29.00,-16.75,6.25,-5.44,1.69,2.69,56.14,4.22
42.00,0.00,276.12,-0.88,-133.06,-1.00,4.88,-4.69,56.28,4.24
42.00,1.00,254.56,2.31,-45.69,-6.31,4.31,-1.12,56.28,4.24
42.00,2.00,28.94,-16.81,6.38,-5.56,2.56,1.75,56.28,4.24
42.00,0.00,276.06,-0.94,-133.00,-0.69,3.94,-4.94,56.40,4.26
42.00,1.00,254.56,2.19,-45.50,-5.69,3.31,-0.56,56.40,4.26
42.00,2.00,28.88,-16.81,6.44,-4.81,1.44,1.44,56.40,4.26
42.00,0.00,276.12,-0.94,-132.88,-1.38,3.94,-3.75,56.53,4.28
42.00,1.00,254.56,2.12,-45.38,-5.25,3.38,0.06,56.53,4.28
42.00,2.00,28.88,-16.81,6.56,-5.38,0.25,1.94,56.53,4.28
42.00,0.00,276.00,-0.94,-132.81,-2.38,5.06,-2.75,56.62,4.30
42.00,1.00,254.50,2.06,-45.25,-4.75,3.88,0.19,56.62,4.30
42.00,2.00,28.81,-16.88,6.62,-5.38,-0.31,2.44,56.62,4.30
42.00,0.00,275.75,-0.94,-132.69,-3.44,6.56,-2.94,56.67,4.32
42.00,1.00,254.50,2.00,-45.12,-4.12,3.94,0.31,56.67,4.32
42.00,2.00,28.75,-16.88,6.75,-5.12,-1.12,2.88,56.67,4.32
42.00,0.00,275.56,-0.88,-132.62,-3.19,6.69,-3.62,56.76,4.34
42.00,1.00,254.44,1.94,-45.00,-5.19,3.62,0.56,56.76,4.34
42.00,2.00,28.69,-16.88,6.94,-6.06,-2.06,2.69,56.76,4.34
42.00,0.00,275.31,-0.88,-132.56,-1.62,6.88,-3.75,56.86,4.36
42.00,1.00,254.44,1.88,-44.88,-3.75,3.00,-0.06,56.86,4.36
42.00,2.00,28.62,-16.81,7.12,-4.88,-0.81,2.56,56.86,4.36
42.00,0.00,275.12,-0.81,-132.50,-0.25,6.75,-3.25,56.97,4.38
42.00,1.00,254.44,1.81,-44.75,-3.31,3.06,-0.38,56.97,4.38
42.00,2.00,28.56,-16.81,7.19,-3.69,0.69,2.00,56.97,4.38
42.00,0.00,274.94,-0.75,-132.50,0.19,5.69,-2.38,57.10,4.40
42.00,1.00,254.38,1.81,-44.69,-3.50,2.62,0.00,57.10,4.40
42.00,2.00,28.50,-16.81,7.31,-4.06,0.44,1.94,57.10,4.40
42.00,0.00,274.75,-0.75,-132.44,0.06,4.81,-2.31,57.24,4.42
42.00,1.00,254.38,1.75,-44.62,-3.25,2.69,-0.12,57.24,4.42
42.00,2.00,28.44,-16.88,7.38,-4.44,-0.88,2.19,57.24,4.42
42.00,0.00,274.62,-0.75,-132.44,0.31,3.56,-1.88,57.33,4.44
42.00,1.00,254.38,1.69,-44.56,-2.81,2.94,0.06,57.33,4.44
42.00,2.00,28.44,-16.81,7.44,-2.62,-0.81,2.00,57.33,4.44
42.00,0.00,274.56,-0.75,-132.44,0.38,2.62,-1.31,57.43,4.46
42.00,1.00,254.31,1.69,-44.50,-2.56,3.06,0.31,57.43,4.46
42.00,2.00,28.38,-16.81,7.50,-2.94,-0.31,1.69,57.43,4.46
42.00,0.00,274.50,-0.75,-132.44,0.56,2.38,-1.38,57.55,4.48
42.00,1.00,254.31,1.62,-44.44,-2.38,2.75,0.31,57.55,4.48
42.00,2.00,28.31,-16.81,7.56,-3.31,-0.19,1.81,57.55,4.48
42.00,0.00,274.50,-0.75,-132.44,0.94,0.31,-1.44,57.66,4.50
42.00,1.00,254.31,1.56,-44.38,-2.38,2.75,0.19,57.66,4.50
42.00,2.00,28.31,-16.81,7.62,-2.56,0.25,1.88,57.66,4.50
42.00,0.00,274.50,-0.75,-132.44,1.25,-1.00,-0.69,57.76,4.52
42.00,1.00,254.25,1.56,-44.31,-2.19,3.00,0.50,57.76,4.52
42.00,2.00,28.25,-16.88,7.69,-2.12,1.44,1.56,57.76,4.52
42.00,0.00,274.56,-0.75,-132.44,0.81,-0.56,-0.19,57.84,4.54
42.00,1.00,254.25,1.50,-44.25,-1.44,2.50,1.12,57.84,4.54
42.00,2.00,28.19,-16.88,7.69,-1.69,0.88,1.81,57.84,4.54
42.00,0.00,274.56,-0.75,-132.44,-0.19,-2.06,-0.19,57.89,4.56
42.00,1.00,254.19,1.50,-44.25,-1.69,2.56,1.69,57.89,4.56
42.00,2.00,28.19,-16.88,7.75,-2.00,-0.75,2.31,57.89,4.56
42.00,0.00,274.69,-0.81,-132.44,-0.31,-1.62,0.06,57.95,4.58
42.00,1.00,254.12,1.50,-44.19,-1.31,2.69,1.94,57.95,4.58
42.00,2.00,28.12,-16.88,7.75,-2.00,-0.81,2.69,57.95,4.58
42.00,0.00,274.69,-0.81,-132.38,-1.38,0.69,-0.12,57.95,4.60
42.00,1.00,254.06,1.50,-44.12,-1.06,2.50,2.38,57.95,4.60
42.00,2.00,28.06,-16.88,7.75,-1.44,-0.88,3.12,57.95,4.60
42.00,0.00,274.56,-0.75,-132.38,-1.25,1.06,-0.31,57.95,4.62
42.00,1.00,254.00,1.50,-44.12,-0.56,2.25,2.88,57.95,4.62
42.00,2.00,28.00,-16.88,7.81,-1.19,-1.19,3.12,57.95,4.62
42.00,0.00,274.50,-0.75,-132.31,0.38,2.25,0.12,57.98,4.64
42.00,1.00,253.94,1.50,-44.12,-0.38,1.44,2.38,57.98,4.64
42.00,2.00,27.94,-16.81,7.81,-0.62,-0.88,2.88,57.98,4.64
42.00,0.00,274.38,-0.69,-132.31,1.25,3.12,1.44,58.02,4.66
42.00,1.00,253.88,1.50,-44.12,-0.06,1.44,2.19,58.02,4.66
42.00,2.00,27.88,-16.81,7.75,-0.12,-0.94,2.25,58.02,4.66
42.00,0.00,274.19,-0.62,-132.38,1.62,3.06,1.88,58.09,4.68
42.00,1.00,253.81,1.50,-44.12,-0.69,1.44,2.00,58.09,4.68
42.00,2.00,27.81,-16.81,7.75,-0.56,-1.81,1.94,58.09,4.68
42.00,0.00,274.06,-0.56,-132.38,1.38,2.00,2.06,58.13,4.70
42.00,1.00,253.75,1.50,-44.12,-0.69,1.31,1.81,58.13,4.70
42.00,2.00,27.81,-16.75,7.75,0.00,-2.38,2.19,58.13,4.70
42.00,0.00,273.94,-0.50,-132.44,1.31,2.06,1.88,58.17,4.72
42.00,1.00,253.75,1.50,-44.06,-1.12,0.62,1.69,58.17,4.72
42.00,2.00,27.75,-16.69,7.75,0.06,-2.31,1.94,58.17,4.72
42.00,0.00,273.88,-0.44,-132.44,2.50,1.50,1.06,58.25,4.74
42.00,1.00,253.69,1.56,-44.06,-0.69,-0.50,0.62,58.25,4.74
42.00,2.00,27.69,-16.69,7.75,-0.31,-1.94,1.94,58.25,4.74
42.00,0.00,273.81,-0.44,-132.50,2.81,1.06,1.25,58.34,4.76
42.00,1.00,253.69,1.56,-44.06,-0.88,-0.31,0.00,58.34,4.76
42.00,2.00,27.69,-16.69,7.75,0.12,-1.12,1.38,58.34,4.76
42.00,0.00,273.81,-0.38,-132.56,2.81,1.44,1.31,58.42,4.78
42.00,1.00,253.69,1.56,-44.06,-0.81,0.00,-0.25,58.42,4.78
42.00,2.00,27.62,-16.62,7.69,0.06,-1.00,0.88,58.42,4.78
42.00,0.00,273.69,-0.38,-132.62,3.31,1.00,1.94,58.50,4.80
42.00,1.00,253.69,1.56,-44.00,-0.75,0.94,-0.44,58.50,4.80
42.00,2.00,27.62,-16.62,7.69,0.69,-0.62,0.88,58.50,4.80
42.00,0.00,273.62,-0.31,-132.69,3.06,0.75,1.81,58.57,4.82
42.00,1.00,253.69,1.56,-44.00,-0.50,1.31,-0.12,58.57,4.82
42.00,2.00,27.62,-16.62,7.69,0.75,-0.31,1.06,58.57,4.82
42.00,0.00,273.62,-0.31,-132.69,1.56,0.25,0.56,58.61,4.84
42.00,1.00,253.69,1.50,-44.00,-1.06,1.75,0.12,58.61,4.84
42.00,2.00,27.56,-16.62,7.69,0.44,0.12,1.44,58.61,4.84
42.00,0.00,273.62,-0.31,-132.69,0.81,0.44,0.31,58.66,4.86
42.00,1.00,253.69,1.50,-44.00,-1.44,2.06,0.31,58.66,4.86
42.00,2.00,27.56,-16.62,7.69,-0.81,-0.69,2.06,58.66,4.86
42.00,0.00,273.62,-0.31,-132.69,-0.56,0.81,-0.25,58.68,4.88
42.00,1.00,253.69,1.44,-43.94,-1.69,2.50,0.44,58.68,4.88
42.00,2.00,27.50,-16.62,7.69,-1.25,-0.88,2.25,58.68,4.88
42.00,0.00,273.69,-0.38,-132.69,-0.38,-2.44,-1.06,58.73,4.90
42.00,1.00,253.62,1.44,-43.94,-2.19,2.81,0.56,58.73,4.90
42.00,2.00,27.44,-16.62,7.69,-2.06,0.06,2.31,58.73,4.90
42.00,0.00,273.88,-0.44,-132.69,-0.69,-2.81,-1.06,58.80,4.92
42.00,1.00,253.62,1.38,-43.88,-2.25,3.25,0.56,58.80,4.92
42.00,2.00,27.38,-16.62,7.75,-2.94,1.00,2.25,58.80,4.92
42.00,0.00,274.19,-0.44,-132.62,-0.69,-2.00,-1.19,58.88,4.94
42.00,1.00,253.56,1.31,-43.81,-1.81,3.25,0.88,58.88,4.94
42.00,2.00,27.38,-16.69,7.75,-3.12,1.44,2.25,58.88,4.94
42.00,0.00,274.31,-0.50,-132.56,-1.12,-1.94,-2.31,58.95,4.96
42.00,1.00,253.50,1.31,-43.81,-1.88,2.56,0.81,58.95,4.96
42.00,2.00,27.31,-16.69,7.81,-3.56,1.44,1.75,58.95,4.96
42.00,0.00,274.50,-0.62,-132.56,-1.31,-2.38,-2.94,59.00,4.98
42.00,1.00,253.50,1.31,-43.75,-2.06,2.19,0.38,59.00,4.98
42.00,2.00,27.25,-16.75,7.88,-3.00,2.06,1.94,59.00,4.98
42.00,0.00,274.69,-0.69,-132.56,-1.19,-2.50,-3.31,59.03,5.00
42.00,1.00,253.50,1.25,-43.69,-1.81,1.62,0.56,59.03,5.00
42.00,2.00,27.19,-16.75,7.94,-2.06,1.88,2.00,59.03,5.00
42.00,0.00,274.88,-0.75,-132.50,-1.62,-3.12,-3.38,59.01,5.02
42.00,1.00,253.50,1.25,-43.69,-1.19,1.75,0.94,59.01,5.02
42.00,2.00,27.19,-16.81,7.94,-1.06,0.88,2.12,59.01,5.02
42.00,0.00,275.06,-0.88,-132.44,-2.00,-2.50,-3.38,58.99,5.04
42.00,1.00,253.44,1.19,-43.62,-0.69,1.75,0.81,58.99,5.04
42.00,2.00,27.12,-16.81,8.00,-1.25,0.19,2.31,58.99,5.04
42.00,0.00,275.25,-0.94,-132.44,-1.88,-2.25,-3.44,58.95,5.06
42.00,1.00,253.44,1.19,-43.62,-0.44,1.12,0.44,58.95,5.06
42.00,2.00,27.06,-16.81,8.00,-0.69,-0.06,1.69,58.95,5.06
42.00,0.00,275.38,-1.00,-132.38,-0.62,-2.62,-2.88,58.94,5.08
42.00,1.00,253.44,1.19,-43.62,-0.44,0.62,0.19,58.94,5.08
42.00,2.00,27.06,-16.81,8.00,-0.06,0.69,0.81,58.94,5.08
42.00,0.00,275.50,-1.06,-132.38,0.19,-2.00,-2.19,58.97,5.10
42.00,1.00,253.44,1.19,-43.62,-0.12,0.44,0.50,58.97,5.10
42.00,2.00,27.06,-16.81,8.00,-1.00,-0.06,0.88,58.97,5.10
42.00,0.00,275.62,-1.12,-132.38,0.81,-2.06,-1.12,59.02,5.12
42.00,1.00,253.44,1.19,-43.62,-0.31,0.00,0.31,59.02,5.12
42.00,2.00,27.06,-16.81,8.06,-0.69,-0.25,0.69,59.02,5.12
42.00,0.00,275.69,-1.12,-132.38,1.00,-0.94,-0.38,59.06,5.14
42.00,1.00,253.44,1.19,-43.62,-0.62,-0.19,-0.06,59.06,5.14
42.00,2.00,27.06,-16.81,8.06,-0.50,0.62,-0.38,59.06,5.14
42.00,0.00,275.69,-1.12,-132.38,0.94,-0.75,0.25,59.12,5.16
42.00,1.00,253.44,1.19,-43.62,-0.06,0.19,0.38,59.12,5.16
42.00,2.00,27.06,-16.81,8.06,-0.75,0.50,-0.56,59.12,5.16
42.00,0.00,275.69,-1.12,-132.38,0.62,-1.12,0.38,59.17,5.18
42.00,1.00,253.44,1.19,-43.62,0.19,-0.06,0.19,59.17,5.18
42.00,2.00,27.06,-16.81,8.06,-1.06,-0.19,0.06,59.17,5.18
42.00,0.00,275.75,-1.12,-132.38,0.00,-0.69,0.94,59.19,5.20
42.00,1.00,253.44,1.19,-43.62,0.25,0.19,0.31,59.19,5.20
42.00,2.00,27.06,-16.81,8.12,-0.62,-0.19,-0.12,59.19,5.20
42.00,0.00,275.69,-1.06,-132.38,-0.38,-0.38,1.56,59.20,5.22
42.00,1.00,253.44,1.19,-43.62,0.06,0.12,0.25,59.20,5.22
42.00,2.00,27.06,-16.81,8.12,-0.69,0.00,0.12,59.20,5.22
42.00,0.00,275.62,-1.06,-132.38,-0.38,-0.12,2.06,59.21,5.24
42.00,1.00,253.44,1.19,-43.56,0.56,0.31,0.19,59.21,5.24
42.00,2.00,27.06,-16.81,8.12,-0.94,-0.56,0.31,59.21,5.24
42.00,0.00,275.56,-1.00,-132.38,0.44,0.00,1.69,59.23,5.26
42.00,1.00,253.44,1.19,-43.56,1.00,0.12,0.12,59.23,5.26
42.00,2.00,27.06,-16.81,8.12,0.00,-0.12,0.06,59.23,5.26
42.00,0.00,275.56,-1.00,-132.38,0.50,0.06,1.19,59.24,5.28
42.00,1.00,253.44,1.19,-43.62,1.06,-0.38,-0.62,59.24,5.28
42.00,2.00,27.06,-16.81,8.12,0.06,0.31,-0.19,59.24,5.28
42.00,0.00,275.50,-1.00,-132.38,1.44,-0.56,1.38,59.28,5.30
42.00,1.00,253.44,1.19,-43.62,1.62,-0.81,-1.06,59.28,5.30
42.00,2.00,27.06,-16.81,8.19,0.06,-0.12,-0.75,59.28,5.30
42.00,0.00,275.56,-1.00,-132.44,3.25,-1.56,1.44,59.36,5.32
42.00,1.00,253.44,1.19,-43.62,2.00,-1.25,-1.19,59.36,5.32
42.00,2.00,27.06,-16.81,8.19,0.62,-0.88,-1.25,59.36,5.32
42.00,0.00,275.62,-1.00,-132.50,3.81,-1.50,1.00,59.41,5.34
42.00,1.00,253.50,1.19,-43.69,2.44,-1.88,-2.06,59.41,5.34
42.00,2.00,27.12,-16.75,8.19,2.25,-0.62,-2.25,59.41,5.34
42.00,0.00,275.62,-0.94,-132.56,4.06,-0.38,0.75,59.43,5.36
42.00,1.00,253.56,1.19,-43.75,3.25,-2.50,-2.44,59.43,5.36
42.00,2.00,27.19,-16.75,8.19,3.56,0.56,-3.06,59.43,5.36
42.00,0.00,275.62,-0.94,-132.62,3.81,-0.81,0.75,59.44,5.38
42.00,1.00,253.62,1.19,-43.81,3.25,-2.62,-2.25,59.44,5.38
42.00,2.00,27.25,-16.75,8.12,3.38,0.00,-2.88,59.44,5.38
