Iteration,IMUNo,OrientationX (deg),OrientationY,OrientationZ,GyroX (20rad/sec),GyroY,GyroZ,Elbow_Pos (rad),Time (sec)
45.00,0.00,284.88,-7.06,-100.06,-1.25,2.25,-4.44,0.32,1.00
45.00,1.00,267.19,-0.88,-40.38,-12.44,17.06,0.25,0.32,1.02
45.00,2.00,41.44,-20.31,13.44,-11.50,1.88,0.94,0.32,1.02
45.00,0.00,284.88,-7.12,-100.06,-1.06,-1.50,-4.25,0.70,1.02
45.00,1.00,267.12,-1.06,-40.25,-10.88,19.00,-2.44,0.70,1.02
45.00,2.00,41.31,-20.38,13.69,-13.00,1.56,6.31,0.70,1.04
45.00,0.00,285.00,-7.19,-100.00,0.19,-2.88,-4.31,1.08,1.04
45.00,1.00,267.06,-1.38,-40.12,-7.38,20.00,-0.50,1.08,1.04
45.00,2.00,41.06,-20.44,13.88,-12.12,3.88,10.25,1.08,1.06
45.00,0.00,285.25,-7.38,-100.06,1.44,-4.50,-5.44,1.51,1.06
45.00,1.00,266.75,-1.62,-39.81,-6.56,22.81,7.69,1.51,1.06
45.00,2.00,40.94,-20.56,13.94,-12.19,5.81,11.50,1.51,1.06
45.00,0.00,285.50,-7.50,-100.06,1.88,-5.12,-6.75,1.96,1.08
45.00,1.00,266.44,-1.81,-39.75,-4.56,18.44,8.75,1.96,1.08
45.00,2.00,40.69,-20.69,14.12,-12.50,3.56,13.19,1.96,1.08
45.00,0.00,285.75,-7.62,-100.12,2.56,-3.50,-7.38,2.33,1.10
45.00,1.00,266.19,-1.94,-39.75,0.75,14.50,7.81,2.33,1.10
45.00,2.00,40.38,-20.81,14.25,-9.25,2.56,12.69,2.33,1.10
45.00,0.00,285.94,-7.75,-100.19,3.94,-0.50,-6.12,2.52,1.12
45.00,1.00,266.00,-2.00,-39.81,5.44,11.50,4.25,2.52,1.12
45.00,2.00,40.19,-20.94,14.25,-2.06,3.69,8.94,2.52,1.12
45.00,0.00,286.00,-7.88,-100.31,6.69,2.62,-4.94,2.58,1.14
45.00,1.00,265.94,-2.12,-39.69,6.56,5.56,-0.94,2.58,1.14
45.00,2.00,40.12,-21.06,14.19,4.75,7.44,4.12,2.58,1.14
45.00,0.00,285.94,-7.88,-100.44,8.56,5.12,-3.44,2.57,1.16
45.00,1.00,266.00,-2.25,-39.88,10.81,3.62,-4.69,2.57,1.16
45.00,2.00,40.12,-21.25,14.00,9.00,8.62,0.94,2.57,1.16
45.00,0.00,285.88,-7.94,-100.56,8.06,4.00,-3.62,2.39,1.18
45.00,1.00,266.12,-2.38,-40.12,11.94,-0.88,-7.31,2.39,1.18
45.00,2.00,40.25,-21.31,14.00,13.75,9.75,-2.38,2.39,1.18
45.00,0.00,285.88,-7.88,-100.62,7.12,2.88,-2.75,2.07,1.20
45.00,1.00,266.44,-2.38,-40.31,11.25,-10.38,-13.31,2.07,1.20
45.00,2.00,40.44,-21.50,13.75,17.19,9.81,-5.31,2.07,1.20
45.00,0.00,285.75,-7.88,-100.69,7.00,3.44,0.31,1.70,1.22
45.00,1.00,266.75,-2.38,-40.50,9.50,-11.25,-12.81,1.70,1.22
45.00,2.00,40.69,-21.56,13.50,19.00,5.88,-11.75,1.70,1.22
45.00,0.00,285.69,-7.81,-100.81,7.88,1.62,2.94,1.37,1.24
45.00,1.00,267.19,-2.38,-40.62,6.12,-13.12,-17.38,1.37,1.24
45.00,2.00,41.00,-21.62,13.19,18.25,5.69,-13.38,1.37,1.24
45.00,0.00,285.69,-7.75,-101.00,9.00,-3.75,4.38,1.21,1.26
45.00,1.00,267.56,-2.44,-40.69,2.81,-9.38,-16.44,1.21,1.26
45.00,2.00,41.38,-21.69,13.06,14.19,6.31,-15.06,1.21,1.26
45.00,0.00,285.81,-7.69,-101.12,7.25,-8.12,2.50,1.34,1.28
45.00,1.00,267.88,-2.50,-40.69,-0.12,-4.94,-10.94,1.34,1.28
45.00,2.00,41.69,-21.81,13.06,3.06,10.38,-11.12,1.34,1.28
45.00,0.00,286.06,-7.75,-101.19,4.56,-11.69,-0.81,1.52,1.30
45.00,1.00,268.06,-2.56,-40.62,-0.94,-2.44,-8.00,1.52,1.30
45.00,2.00,41.81,-22.00,13.19,-1.25,10.75,-7.50,1.52,1.30
45.00,0.00,286.50,-7.81,-101.25,3.25,-18.06,-2.25,1.68,1.32
45.00,1.00,268.12,-2.69,-40.62,0.38,2.38,-5.25,1.68,1.32
45.00,2.00,42.00,-22.19,13.25,-1.69,11.00,-5.75,1.68,1.32
45.00,0.00,287.06,-8.00,-101.25,3.12,-22.81,-3.38,1.74,1.34
45.00,1.00,268.25,-2.81,-40.69,1.38,3.56,-6.44,1.74,1.34
45.00,2.00,42.12,-22.38,13.31,1.06,11.62,-4.19,1.74,1.34
45.00,0.00,287.69,-8.12,-101.25,1.50,-21.69,-4.94,1.72,1.36
45.00,1.00,268.25,-2.94,-40.75,5.25,8.88,-3.06,1.72,1.36
45.00,2.00,42.19,-22.56,13.31,2.06,10.56,-1.25,1.72,1.36
45.00,0.00,288.25,-8.38,-101.19,0.06,-18.25,-6.62,1.67,1.38
45.00,1.00,268.25,-3.19,-40.94,8.81,12.50,-1.44,1.67,1.38
45.00,2.00,42.19,-22.75,13.31,1.69,10.44,2.75,1.67,1.38
45.00,0.00,288.69,-8.50,-101.12,-1.88,-9.44,-7.12,1.59,1.40
45.00,1.00,268.19,-3.38,-41.12,9.81,12.69,-1.50,1.59,1.40
45.00,2.00,42.06,-22.94,13.19,0.62,8.69,6.75,1.59,1.40
45.00,0.00,288.88,-8.62,-101.12,-0.56,-0.25,-5.75,1.56,1.42
45.00,1.00,268.06,-3.50,-41.31,10.44,12.81,-0.44,1.56,1.42
45.00,2.00,41.94,-23.12,13.12,0.50,8.25,9.38,1.56,1.42
45.00,0.00,288.81,-8.75,-101.12,0.62,7.06,-4.44,1.62,1.44
45.00,1.00,267.94,-3.62,-41.50,9.44,15.06,1.31,1.62,1.44
45.00,2.00,41.75,-23.31,13.06,-1.31,7.69,10.25,1.62,1.44
45.00,0.00,288.62,-8.75,-101.19,0.38,13.38,-3.56,1.70,1.46
45.00,1.00,267.81,-3.88,-41.69,9.44,14.44,1.06,1.70,1.46
45.00,2.00,41.56,-23.50,13.00,-2.19,5.44,10.44,1.70,1.46
45.00,0.00,288.31,-8.75,-101.19,-0.62,16.38,-3.62,1.78,1.48
45.00,1.00,267.69,-4.06,-41.88,9.44,14.56,1.19,1.78,1.48
45.00,2.00,41.31,-23.56,13.00,-3.19,2.88,10.62,1.78,1.48
45.00,0.00,288.06,-8.75,-101.25,-1.00,13.75,-4.00,1.91,1.50
45.00,1.00,267.50,-4.19,-42.00,4.50,14.56,4.31,1.91,1.50
45.00,2.00,41.12,-23.69,13.00,-4.94,2.50,10.81,1.91,1.50
45.00,0.00,287.88,-8.81,-101.25,-0.56,11.50,-3.94,2.12,1.52
45.00,1.00,267.31,-4.38,-42.06,-0.12,14.50,5.75,2.12,1.52
45.00,2.00,40.88,-23.81,13.06,-7.31,2.94,11.06,2.12,1.52
45.00,0.00,287.69,-8.88,-101.31,0.12,8.50,-4.12,2.42,1.54
45.00,1.00,267.12,-4.50,-42.00,-2.31,12.44,4.88,2.42,1.54
45.00,2.00,40.62,-23.94,13.12,-9.56,3.38,11.38,2.42,1.54
45.00,0.00,287.75,-8.94,-101.31,1.00,4.62,-4.31,2.78,1.56
45.00,1.00,266.94,-4.62,-41.88,-3.56,12.00,4.38,2.78,1.56
45.00,2.00,40.38,-24.00,13.25,-10.44,2.75,10.81,2.78,1.56
45.00,0.00,287.81,-9.06,-101.31,2.19,1.38,-3.81,3.10,1.58
45.00,1.00,266.81,-4.81,-41.81,-3.62,9.31,2.94,3.10,1.58
45.00,2.00,40.19,-24.12,13.31,-7.88,3.69,8.25,3.10,1.58
45.00,0.00,287.94,-9.19,-101.38,2.38,-1.12,-3.50,3.37,1.60
45.00,1.00,266.69,-4.81,-41.75,-4.50,6.75,4.00,3.37,1.60
45.00,2.00,40.00,-24.25,13.44,-6.44,3.69,6.44,3.37,1.60
45.00,0.00,288.12,-9.25,-101.38,1.94,-3.44,-3.38,3.60,1.62
45.00,1.00,266.56,-4.88,-41.69,-2.88,4.25,4.44,3.60,1.62
45.00,2.00,39.88,-24.31,13.56,-5.19,2.38,5.31,3.60,1.62
45.00,0.00,288.31,-9.31,-101.44,2.81,-5.56,-2.00,3.81,1.64
45.00,1.00,266.56,-4.94,-41.62,-4.19,-0.94,3.31,3.81,1.64
45.00,2.00,39.81,-24.38,13.69,-3.94,-0.19,2.75,3.81,1.64
45.00,0.00,288.44,-9.38,-101.44,1.31,-2.69,-1.50,3.91,1.66
45.00,1.00,266.50,-4.88,-41.50,-2.69,-2.25,3.25,3.91,1.66
45.00,2.00,39.81,-24.38,13.81,-2.06,-1.62,0.44,3.91,1.66
45.00,0.00,288.44,-9.38,-101.44,0.88,-0.31,0.62,3.89,1.68
45.00,1.00,266.50,-4.81,-41.50,2.75,-3.88,1.12,3.89,1.68
45.00,2.00,39.81,-24.38,13.81,1.56,-1.50,-1.81,3.89,1.68
45.00,0.00,288.38,-9.31,-101.50,1.12,1.50,2.56,3.83,1.70
45.00,1.00,266.56,-4.69,-41.56,1.44,-10.50,-1.69,3.83,1.70
45.00,2.00,39.94,-24.31,13.81,3.25,-0.88,-5.62,3.83,1.70
45.00,0.00,288.25,-9.25,-101.50,2.25,2.12,4.88,3.80,1.72
45.00,1.00,266.75,-4.56,-41.50,-2.06,-14.94,-2.62,3.80,1.72
45.00,2.00,40.12,-24.25,13.81,3.12,-3.06,-9.06,3.80,1.72
45.00,0.00,288.06,-9.12,-101.56,1.50,0.69,6.06,3.69,1.74
45.00,1.00,266.88,-4.38,-41.44,-1.00,-14.75,-2.81,3.69,1.74
45.00,2.00,40.31,-24.12,13.81,4.94,-5.19,-9.81,3.69,1.74
45.00,0.00,288.06,-9.06,-101.56,-1.50,-2.38,5.88,3.45,1.76
45.00,1.00,266.94,-4.25,-41.44,1.88,-10.25,-1.19,3.45,1.76
45.00,2.00,40.50,-24.00,13.75,6.06,-3.62,-7.25,3.45,1.76
45.00,0.00,288.00,-8.94,-101.44,-3.56,-6.19,5.44,3.23,1.78
45.00,1.00,267.00,-4.12,-41.50,4.06,-4.81,2.06,3.23,1.78
45.00,2.00,40.56,-23.94,13.69,3.62,-2.00,-0.81,3.23,1.78
45.00,0.00,288.06,-8.81,-101.31,-5.00,-8.00,5.50,3.14,1.80
45.00,1.00,266.94,-4.00,-41.62,5.62,1.25,7.75,3.14,1.80
45.00,2.00,40.44,-23.94,13.69,-2.06,-1.88,6.12,3.14,1.80
45.00,0.00,288.06,-8.75,-101.31,-4.88,-6.88,5.75,3.18,1.82
45.00,1.00,266.75,-3.94,-41.69,6.94,5.25,13.81,3.18,1.82
45.00,2.00,40.19,-23.94,13.69,-6.25,-3.00,12.88,3.18,1.82
45.00,0.00,288.06,-8.62,-101.19,-3.44,-4.06,6.81,3.29,1.84
45.00,1.00,266.44,-3.88,-41.88,7.12,5.44,16.31,3.29,1.84
45.00,2.00,39.88,-23.94,13.69,-7.00,-3.69,15.94,3.29,1.84
45.00,0.00,288.00,-8.56,-101.19,-0.69,-1.19,8.44,3.52,1.86
45.00,1.00,266.06,-3.69,-42.00,6.81,7.44,19.62,3.52,1.86
45.00,2.00,39.50,-23.94,13.69,-7.88,-4.81,16.38,3.52,1.86
45.00,0.00,287.88,-8.38,-101.19,2.31,2.56,9.81,3.75,1.88
45.00,1.00,265.62,-3.56,-42.19,5.44,4.69,19.19,3.75,1.88
45.00,2.00,39.19,-23.88,13.62,-5.06,-9.69,14.69,3.75,1.88
45.00,0.00,287.56,-8.19,-101.25,5.06,6.38,10.38,3.92,1.90
45.00,1.00,265.25,-3.38,-42.25,4.19,0.44,17.81,3.92,1.90
45.00,2.00,38.88,-23.69,13.56,-0.44,-12.75,11.56,3.92,1.90
45.00,0.00,287.25,-8.00,-101.38,7.69,5.75,11.12,4.13,1.92
45.00,1.00,264.94,-3.12,-42.38,3.75,-6.00,12.81,4.13,1.92
45.00,2.00,38.75,-23.50,13.44,1.00,-11.19,6.25,4.13,1.92
45.00,0.00,286.94,-7.75,-101.56,12.00,3.88,13.31,4.38,1.94
45.00,1.00,264.75,-2.88,-42.44,3.62,-9.06,11.38,4.38,1.94
45.00,2.00,38.69,-23.31,13.31,4.06,-10.31,1.81,4.38,1.94
45.00,0.00,286.62,-7.44,-101.81,15.69,0.50,15.00,4.57,1.96
45.00,1.00,264.62,-2.56,-42.50,3.31,-11.50,9.12,4.57,1.96
45.00,2.00,38.69,-23.12,13.19,9.69,-8.69,-1.81,4.57,1.96
45.00,0.00,286.44,-7.19,-102.06,18.31,-5.56,15.19,4.78,1.98
45.00,1.00,264.56,-2.31,-42.56,3.81,-14.44,5.38,4.78,1.98
45.00,2.00,38.81,-22.94,13.00,11.44,-8.00,-5.06,4.78,1.98
45.00,0.00,286.44,-7.00,-102.38,22.06,-14.00,14.88,5.13,2.00
45.00,1.00,264.62,-2.06,-42.62,4.50,-15.88,3.00,5.13,2.00
45.00,2.00,38.94,-22.75,12.81,10.88,-8.88,-7.31,5.13,2.00
45.00,0.00,286.69,-6.81,-102.81,27.44,-22.69,15.00,5.63,2.02
45.00,1.00,264.69,-1.75,-42.75,5.19,-14.00,0.75,5.63,2.02
45.00,2.00,39.19,-22.56,12.62,11.56,-7.31,-10.00,5.63,2.02
45.00,0.00,287.06,-6.69,-103.25,28.88,-25.50,12.94,6.15,2.04
45.00,1.00,264.75,-1.56,-42.81,6.69,-7.88,-1.25,6.15,2.04
45.00,2.00,39.44,-22.44,12.50,12.56,-1.94,-11.00,6.15,2.04
45.00,0.00,287.56,-6.56,-103.75,29.62,-27.06,10.75,6.68,2.06
45.00,1.00,264.81,-1.50,-42.94,7.88,-4.31,-0.81,6.68,2.06
45.00,2.00,39.62,-22.44,12.31,12.44,1.56,-7.56,6.68,2.06
45.00,0.00,288.25,-6.56,-104.31,33.25,-33.69,6.62,7.39,2.08
45.00,1.00,264.81,-1.50,-43.12,10.06,2.00,3.75,7.39,2.08
45.00,2.00,39.75,-22.50,12.12,10.62,3.50,-1.44,7.39,2.08
45.00,0.00,289.06,-6.62,-104.88,30.50,-31.12,3.88,8.19,2.10
45.00,1.00,264.69,-1.44,-43.31,7.94,1.62,8.19,8.19,2.10
45.00,2.00,39.75,-22.50,11.94,5.25,-0.44,2.75,8.19,2.10
45.00,0.00,289.88,-6.69,-105.44,30.19,-30.31,2.00,9.06,2.12
45.00,1.00,264.56,-1.38,-43.50,6.56,0.19,9.25,9.06,2.12
45.00,2.00,39.69,-22.44,11.88,2.25,-6.88,3.88,9.06,2.12
45.00,0.00,290.69,-6.88,-105.94,31.12,-24.00,-3.00,9.88,2.14
45.00,1.00,264.19,-1.19,-43.62,9.12,-2.12,9.81,9.88,2.14
45.00,2.00,39.62,-22.25,11.75,5.00,-7.56,3.00,9.88,2.14
45.00,0.00,291.44,-7.06,-106.50,33.94,-22.62,-3.31,10.64,2.16
45.00,1.00,264.06,-1.06,-43.81,7.38,-5.38,6.50,10.64,2.16
45.00,2.00,39.62,-22.19,11.56,9.69,-5.25,0.50,10.64,2.16
45.00,0.00,292.12,-7.19,-107.19,40.19,-15.81,-3.50,11.57,2.18
45.00,1.00,264.00,-0.88,-43.94,6.44,-4.94,5.69,11.57,2.18
45.00,2.00,39.62,-22.12,11.38,10.56,-2.06,-0.38,11.57,2.18
45.00,0.00,292.69,-7.38,-107.94,42.56,-14.56,-2.69,12.64,2.20
45.00,1.00,263.94,-0.75,-44.06,6.19,-2.75,6.81,12.64,2.20
45.00,2.00,39.69,-22.12,11.19,8.62,-0.94,1.06,12.64,2.20
45.00,0.00,293.19,-7.44,-108.75,44.12,-10.44,-1.00,13.84,2.22
45.00,1.00,263.81,-0.62,-44.19,6.19,-2.06,8.06,13.84,2.22
45.00,2.00,39.62,-22.06,11.00,5.75,-4.69,3.81,13.84,2.22
45.00,0.00,293.50,-7.50,-109.56,42.06,-3.75,0.31,15.02,2.24
45.00,1.00,263.56,-0.44,-44.25,5.50,-0.06,10.75,15.02,2.24
45.00,2.00,39.50,-21.94,10.88,4.44,-8.19,6.62,15.02,2.24
45.00,0.00,293.62,-7.44,-110.38,40.12,2.44,1.56,16.12,2.26
45.00,1.00,263.38,-0.19,-44.31,6.19,0.38,11.38,16.12,2.26
45.00,2.00,39.38,-21.75,10.69,5.25,-8.81,8.75,16.12,2.26
45.00,0.00,293.62,-7.38,-111.19,42.44,6.12,2.81,17.30,2.28
45.00,1.00,263.12,0.00,-44.44,4.88,1.12,12.94,17.30,2.28
45.00,2.00,39.19,-21.62,10.50,4.81,-9.69,9.88,17.30,2.28
45.00,0.00,293.50,-7.25,-112.06,47.12,6.44,5.69,18.63,2.30
45.00,1.00,262.81,0.12,-44.50,5.81,1.31,14.88,18.63,2.30
45.00,2.00,39.00,-21.44,10.31,4.81,-10.69,9.38,18.63,2.30
45.00,0.00,293.31,-7.06,-113.06,50.31,9.62,8.56,19.98,2.32
45.00,1.00,262.44,0.31,-44.62,6.81,5.31,18.94,19.98,2.32
45.00,2.00,38.81,-21.25,10.12,7.25,-11.00,7.25,19.98,2.32
45.00,0.00,293.00,-6.81,-114.06,51.94,10.12,9.50,21.29,2.34
45.00,1.00,262.25,0.50,-44.75,7.19,-3.06,6.44,21.29,2.34
45.00,2.00,38.75,-21.06,9.88,10.12,-10.19,5.19,21.29,2.34
45.00,0.00,292.75,-6.56,-115.12,53.56,8.44,8.19,22.56,2.36
45.00,1.00,262.12,0.62,-44.88,8.12,-3.00,5.25,22.56,2.36
45.00,2.00,38.75,-20.94,9.62,13.12,-8.50,1.62,22.56,2.36
45.00,0.00,292.62,-6.38,-116.19,57.06,6.00,5.25,23.84,2.38
45.00,1.00,262.12,0.75,-45.06,8.44,-3.06,4.50,23.84,2.38
45.00,2.00,38.81,-20.81,9.31,16.25,-4.94,-2.62,23.84,2.38
45.00,0.00,292.62,-6.25,-117.38,61.50,2.56,4.00,25.32,2.40
45.00,1.00,262.00,0.81,-45.19,8.12,-2.31,4.31,25.32,2.40
45.00,2.00,38.94,-20.69,9.00,14.50,-6.81,-3.88,25.32,2.40
45.00,0.00,292.81,-6.19,-118.56,63.62,-2.31,5.75,26.98,2.42
45.00,1.00,262.00,0.94,-45.38,6.31,-8.19,0.88,26.98,2.42
45.00,2.00,39.00,-20.50,8.81,10.69,-8.62,-3.56,26.98,2.42
45.00,0.00,293.19,-6.12,-119.81,63.12,-7.81,8.19,28.65,2.44
45.00,1.00,262.00,1.06,-45.44,6.31,-7.81,3.19,28.65,2.44
45.00,2.00,39.12,-20.31,8.62,9.94,-11.75,-3.06,28.65,2.44
45.00,0.00,293.69,-6.12,-121.00,63.62,-12.88,8.12,30.40,2.46
45.00,1.00,262.00,1.19,-45.56,6.88,-8.50,3.06,30.40,2.46
45.00,2.00,39.19,-20.00,8.50,7.88,-15.88,-3.00,30.40,2.46
45.00,0.00,294.38,-6.12,-122.19,65.38,-18.12,9.88,32.20,2.48
45.00,1.00,262.06,1.38,-45.75,6.19,-9.38,1.81,32.20,2.48
45.00,2.00,39.25,-19.62,8.38,7.88,-17.75,-5.31,32.20,2.48
45.00,0.00,295.25,-6.19,-123.44,66.50,-23.25,10.62,33.95,2.50
45.00,1.00,262.06,1.50,-45.81,4.56,-9.50,4.31,33.95,2.50
45.00,2.00,39.44,-19.31,8.19,10.69,-16.94,-7.75,33.95,2.52
45.00,0.00,296.38,-6.31,-124.69,69.44,-28.06,9.94,35.69,2.52
45.00,1.00,262.06,1.69,-45.94,6.00,-11.44,2.69,35.69,2.52
45.00,2.00,39.62,-19.00,8.00,14.12,-14.38,-8.88,35.69,2.52
45.00,0.00,297.56,-6.50,-126.00,68.62,-26.56,7.88,37.31,2.54
45.00,1.00,262.12,1.88,-46.06,6.69,-9.69,3.56,37.31,2.54
45.00,2.00,39.88,-18.69,7.75,16.81,-13.75,-11.38,37.31,2.54
45.00,0.00,298.88,-6.69,-127.31,70.44,-27.88,4.62,38.93,2.56
45.00,1.00,262.12,2.06,-46.19,5.69,-9.31,3.44,38.93,2.56
45.00,2.00,40.12,-18.31,7.44,18.81,-16.38,-12.31,38.93,2.56
45.00,0.00,300.31,-7.06,-128.62,72.12,-31.38,1.94,40.48,2.58
45.00,1.00,262.19,2.25,-46.31,6.19,-12.94,-0.56,40.48,2.58
45.00,2.00,40.44,-18.00,7.12,22.81,-16.06,-12.19,40.48,2.58
45.00,0.00,302.06,-7.44,-129.94,72.25,-31.62,0.31,41.84,2.60
45.00,1.00,262.31,2.44,-46.44,7.44,-11.06,1.50,41.84,2.60
45.00,2.00,40.75,-17.75,6.69,29.00,-9.44,-14.12,41.84,2.62
45.00,0.00,303.88,-7.81,-131.31,73.81,-29.44,0.06,43.20,2.62
45.00,1.00,262.38,2.62,-46.56,6.94,-10.81,2.25,43.20,2.62
45.00,2.00,41.06,-17.56,6.12,30.38,-9.94,-12.12,43.20,2.62
45.00,0.00,305.56,-8.12,-132.69,72.62,-24.62,2.06,44.59,2.64
45.00,1.00,262.44,2.75,-46.69,5.44,-10.94,0.50,44.59,2.64
45.00,2.00,41.31,-17.25,5.62,28.50,-15.12,-9.00,44.59,2.66
45.00,0.00,307.00,-8.31,-134.00,70.62,-18.88,5.25,46.02,2.66
45.00,1.00,262.50,2.94,-46.81,6.38,-10.19,0.12,46.02,2.66
45.00,2.00,41.56,-16.94,5.19,25.06,-16.12,-8.31,46.02,2.66
45.00,0.00,308.06,-8.38,-135.31,68.31,-10.38,8.75,47.41,2.68
45.00,1.00,262.56,3.06,-46.94,5.25,-12.00,0.25,47.41,2.68
45.00,2.00,41.75,-16.62,4.75,23.88,-14.19,-7.81,47.41,2.70
45.00,0.00,104.56,-8.31,-136.50,62.44,-2.50,11.62,48.48,2.70
45.00,1.00,262.69,3.25,-47.06,8.88,-13.31,2.19,48.48,2.70
45.00,2.00,42.00,-16.38,4.25,28.44,-13.75,-9.06,48.48,2.72
45.00,0.00,104.88,-8.06,-137.56,51.50,5.56,14.56,49.24,2.72
45.00,1.00,262.69,3.44,-47.25,8.69,-13.69,4.31,49.24,2.72
45.00,2.00,42.25,-15.94,3.75,27.38,-22.56,-7.06,49.24,2.72
45.00,0.00,105.19,-7.81,-138.50,45.44,9.94,14.00,49.83,2.74
45.00,1.00,262.75,3.69,-47.38,5.69,-11.00,4.25,49.83,2.74
45.00,2.00,42.38,-15.44,3.25,26.62,-27.81,-3.75,49.83,2.76
45.00,0.00,105.44,-7.50,-139.25,40.94,10.19,11.62,50.32,2.76
45.00,1.00,262.75,3.88,-47.44,5.00,-12.12,4.25,50.32,2.76
45.00,2.00,42.50,-14.94,2.75,25.31,-26.62,-3.75,50.32,2.76
45.00,0.00,105.56,-7.25,-140.00,36.25,8.81,7.94,50.64,2.78
45.00,1.00,262.81,4.12,-47.56,5.12,-13.56,2.44,50.64,2.78
45.00,2.00,42.69,-14.44,2.31,26.06,-22.25,-7.38,50.64,2.80
45.00,0.00,105.69,-7.06,-140.62,32.12,6.38,4.31,50.86,2.80
45.00,1.00,262.88,4.31,-47.69,1.31,-12.12,1.88,50.86,2.80
45.00,2.00,42.88,-14.06,1.88,25.06,-19.38,-9.62,50.86,2.82
45.00,0.00,105.75,-6.94,-141.19,28.44,5.50,2.56,51.01,2.82
45.00,1.00,262.94,4.50,-47.69,0.25,-12.00,1.31,51.01,2.82
45.00,2.00,43.12,-13.75,1.44,23.50,-15.75,-9.12,51.01,2.82
45.00,0.00,105.81,-6.81,-141.69,24.31,6.50,4.31,51.21,2.84
45.00,1.00,263.00,4.69,-47.69,-1.00,-12.31,1.31,51.21,2.84
45.00,2.00,43.31,-13.44,1.06,17.88,-17.00,-6.75,51.21,2.84
45.00,0.00,105.88,-6.62,-142.12,21.62,8.06,4.69,51.45,2.86
45.00,1.00,263.06,4.88,-47.69,-3.69,-9.25,2.44,51.45,2.86
45.00,2.00,43.44,-13.06,0.81,14.12,-18.62,-3.31,51.45,2.86
45.00,0.00,105.88,-6.44,-142.56,19.00,8.94,2.75,51.74,2.88
45.00,1.00,263.12,5.00,-47.62,-1.06,-8.62,1.00,51.74,2.88
45.00,2.00,43.50,-12.75,0.62,9.75,-14.75,-3.88,51.74,2.88
45.00,0.00,105.88,-6.31,-142.88,15.69,8.25,1.50,52.08,2.90
45.00,1.00,263.19,5.12,-47.69,1.56,-9.31,-1.25,52.08,2.90
45.00,2.00,43.62,-12.50,0.50,4.94,-9.12,-5.69,52.08,2.92
45.00,0.00,105.88,-6.12,-143.12,10.81,8.31,3.19,52.36,2.92
45.00,1.00,263.31,5.25,-47.75,1.00,-9.00,-1.00,52.36,2.92
45.00,2.00,43.75,-12.44,0.50,1.81,-6.00,-6.44,52.36,2.92
45.00,0.00,105.94,-6.00,-143.25,7.12,6.75,4.19,52.55,2.94
45.00,1.00,263.31,5.31,-47.75,0.75,-5.44,0.88,52.55,2.94
45.00,2.00,43.81,-12.25,0.50,0.94,-9.94,-3.00,52.55,2.94
45.00,0.00,106.00,-5.81,-143.38,4.19,5.44,5.25,52.55,2.96
45.00,1.00,263.38,5.44,-47.88,4.88,-7.00,0.38,52.55,2.96
45.00,2.00,43.88,-12.06,0.44,4.25,-7.88,-3.38,52.55,2.96
45.00,0.00,106.12,-5.69,-143.44,3.81,2.62,8.12,52.66,2.98
45.00,1.00,263.38,5.50,-47.94,4.88,-5.06,0.94,52.66,2.98
45.00,2.00,43.94,-12.00,0.44,0.25,-2.62,-1.94,52.66,2.98
45.00,0.00,106.38,-5.50,-143.50,5.25,3.56,15.25,52.83,3.00
45.00,1.00,263.44,5.56,-48.06,4.81,-3.44,1.19,52.83,3.00
45.00,2.00,43.94,-11.94,0.38,0.00,-4.62,0.25,52.83,3.00
45.00,0.00,106.69,-5.19,-143.56,4.75,6.12,19.69,52.96,3.02
45.00,1.00,263.38,5.62,-48.19,5.81,-0.81,1.88,52.96,3.02
45.00,2.00,44.00,-11.81,0.38,0.56,-6.56,-1.56,52.96,3.02
45.00,0.00,107.06,-4.88,-143.62,2.62,6.00,19.56,52.89,3.04
45.00,1.00,263.31,5.69,-48.31,6.31,-0.50,2.25,52.89,3.04
45.00,2.00,44.00,-11.69,0.31,4.88,-6.38,-3.00,52.89,3.04
45.00,0.00,107.38,-4.56,-143.69,3.25,5.31,18.12,52.82,3.06
45.00,1.00,263.25,5.75,-48.44,5.50,-0.88,3.56,52.82,3.06
45.00,2.00,44.06,-11.56,0.25,5.31,-6.44,-1.06,52.82,3.06
45.00,0.00,107.44,-4.31,-143.69,3.38,2.88,16.75,52.93,3.08
45.00,1.00,263.19,5.88,-48.50,4.38,-1.38,5.31,52.93,3.08
45.00,2.00,44.06,-11.44,0.19,0.00,-6.19,3.31,52.93,3.08
45.00,0.00,107.69,-4.12,-143.75,1.81,0.44,12.19,53.12,3.10
45.00,1.00,263.06,6.00,-48.56,3.69,-1.44,4.06,53.12,3.10
45.00,2.00,43.94,-11.31,0.25,-4.38,-4.75,5.44,53.12,3.10
45.00,0.00,107.88,-4.06,-143.75,1.62,-1.56,7.56,53.36,3.12
45.00,1.00,263.00,6.06,-48.56,1.00,-0.44,2.19,53.36,3.12
45.00,2.00,43.81,-11.25,0.31,-5.81,-2.81,4.38,53.36,3.12
45.00,0.00,108.00,-4.00,-143.81,1.50,-1.31,6.12,53.58,3.14
45.00,1.00,262.94,6.19,-48.56,0.44,0.06,1.81,53.58,3.14
45.00,2.00,43.75,-11.25,0.44,-5.62,-0.50,4.81,53.58,3.14
45.00,0.00,108.06,-3.94,-143.75,-1.94,-0.31,4.38,53.72,3.16
45.00,1.00,262.88,6.25,-48.56,0.12,1.81,2.38,53.72,3.16
45.00,2.00,43.62,-11.25,0.50,-6.19,1.75,6.00,53.72,3.16
45.00,0.00,108.00,-3.94,-143.69,-5.12,1.00,3.12,53.86,3.18
45.00,1.00,262.75,6.25,-48.50,0.44,3.69,3.38,53.86,3.18
45.00,2.00,43.44,-11.31,0.62,-9.69,1.19,8.06,53.86,3.18
45.00,0.00,108.00,-3.81,-143.50,-7.94,3.75,3.25,53.97,3.20
45.00,1.00,262.69,6.25,-48.50,0.62,3.06,2.25,53.97,3.20
45.00,2.00,43.25,-11.25,0.75,-11.44,-0.62,9.31,53.97,3.20
45.00,0.00,108.06,-3.75,-143.31,-10.19,1.31,2.50,54.00,3.22
45.00,1.00,262.56,6.25,-48.50,0.38,3.94,3.19,54.00,3.22
45.00,2.00,43.06,-11.25,0.94,-11.06,-0.56,8.06,54.00,3.22
45.00,0.00,108.06,-3.75,-143.12,-11.25,-0.88,-0.06,53.95,3.24
45.00,1.00,262.50,6.31,-48.50,0.69,4.50,2.44,53.95,3.24
45.00,2.00,42.88,-11.31,1.12,-9.81,2.44,7.50,53.95,3.24
45.00,0.00,108.06,-3.81,-142.94,-11.38,-5.44,-1.56,53.91,3.26
45.00,1.00,262.38,6.25,-48.44,-1.88,4.50,0.56,53.91,3.26
45.00,2.00,42.69,-11.38,1.31,-9.94,6.31,8.12,53.91,3.26
45.00,0.00,108.06,-3.94,-142.81,-10.81,-8.50,-1.19,53.95,3.28
45.00,1.00,262.38,6.19,-48.38,-5.06,6.44,-2.31,53.95,3.28
45.00,2.00,42.56,-11.50,1.50,-12.31,8.00,6.38,53.95,3.28
45.00,0.00,108.12,-4.12,-142.62,-8.25,-9.50,0.56,54.05,3.30
45.00,1.00,262.31,6.12,-48.25,-5.75,7.88,-1.06,54.05,3.30
45.00,2.00,42.44,-11.62,1.69,-11.50,6.81,4.50,54.05,3.30
45.00,0.00,108.25,-4.25,-142.50,-4.75,-11.50,3.56,54.16,3.32
45.00,1.00,262.31,6.06,-48.12,-3.88,7.38,-2.25,54.16,3.32
45.00,2.00,42.31,-11.75,1.88,-8.25,7.50,4.12,54.16,3.32
45.00,0.00,108.50,-4.31,-142.56,-1.50,-13.06,7.00,54.31,3.34
45.00,1.00,262.25,5.94,-48.06,-3.31,8.31,-2.12,54.31,3.34
45.00,2.00,42.25,-11.94,1.94,-6.25,7.81,3.31,54.31,3.34
45.00,0.00,108.75,-4.31,-142.69,2.31,-12.81,7.00,54.60,3.36
45.00,1.00,262.25,5.81,-47.94,-5.25,8.06,-1.50,54.60,3.36
45.00,2.00,42.19,-12.00,2.06,-6.75,5.75,2.19,54.60,3.36
45.00,0.00,108.94,-4.44,-142.81,7.12,-15.19,4.81,55.11,3.38
45.00,1.00,262.19,5.69,-47.81,-4.31,6.00,-2.62,55.11,3.38
45.00,2.00,42.12,-12.12,2.25,-9.31,3.12,2.00,55.11,3.38
45.00,0.00,109.19,-4.69,-142.94,11.12,-17.88,5.25,55.67,3.40
45.00,1.00,262.25,5.62,-47.75,-1.56,3.81,-3.12,55.67,3.40
45.00,2.00,42.12,-12.12,2.38,-6.62,3.44,0.25,55.67,3.40
45.00,0.00,109.31,-4.75,-143.06,12.06,-19.12,7.69,56.07,3.42
45.00,1.00,262.25,5.50,-47.75,-0.38,2.25,-4.00,56.07,3.42
45.00,2.00,42.12,-12.25,2.44,-0.81,4.88,-1.50,56.07,3.42
45.00,0.00,109.75,-5.00,-143.50,12.81,-19.19,8.62,56.36,3.44
45.00,1.00,262.31,5.44,-47.75,0.12,3.44,-4.50,56.36,3.44
45.00,2.00,42.19,-12.31,2.38,3.69,4.31,-1.88,56.36,3.44
45.00,0.00,110.00,-5.19,-143.75,14.38,-17.62,7.38,56.78,3.46
45.00,1.00,262.38,5.38,-47.75,-0.50,3.88,-2.75,56.78,3.46
45.00,2.00,42.19,-12.38,2.38,0.94,-0.38,-1.56,56.78,3.46
45.00,0.00,110.12,-5.31,-143.88,15.25,-18.25,3.69,57.39,3.48
45.00,1.00,262.38,5.31,-47.75,-1.50,4.31,-2.19,57.39,3.48
45.00,2.00,42.25,-12.31,2.44,-4.06,-1.50,-1.06,57.39,3.48
45.00,0.00,110.31,-5.56,-144.12,14.69,-21.62,0.12,57.99,3.50
45.00,1.00,262.38,5.19,-47.69,-1.94,3.38,-3.50,57.99,3.50
45.00,2.00,42.25,-12.31,2.50,-4.38,0.44,-1.94,57.99,3.50
45.00,0.00,110.44,-5.94,-144.38,13.38,-22.88,-1.75,58.45,3.52
45.00,1.00,262.44,5.12,-47.62,-2.25,2.56,-4.50,58.45,3.52
45.00,2.00,42.31,-12.38,2.56,-1.50,3.50,-3.62,58.45,3.52
45.00,0.00,110.44,-6.25,-144.69,14.00,-20.44,-0.06,58.82,3.54
45.00,1.00,262.50,5.00,-47.62,-1.06,1.94,-4.94,58.82,3.54
45.00,2.00,42.38,-12.44,2.56,2.31,3.50,-3.56,58.82,3.54
45.00,0.00,110.62,-6.50,-145.00,9.81,-13.75,0.62,59.02,3.56
45.00,1.00,262.56,4.94,-47.62,-0.81,2.81,-4.44,59.02,3.56
45.00,2.00,42.44,-12.50,2.50,3.50,2.94,-2.25,59.02,3.56
45.00,0.00,110.88,-6.62,-145.19,7.38,-11.25,-1.19,59.25,3.58
45.00,1.00,262.62,4.81,-47.56,-1.81,3.75,-3.56,59.25,3.58
45.00,2.00,42.50,-12.56,2.50,0.06,1.44,-1.94,59.25,3.58
45.00,0.00,110.88,-6.81,-145.31,3.12,-6.12,-7.50,59.44,3.60
45.00,1.00,262.69,4.75,-47.50,-2.19,2.62,-3.50,59.44,3.60
45.00,2.00,42.50,-12.56,2.56,-3.06,1.12,-2.81,59.44,3.60
45.00,0.00,110.75,-6.94,-145.38,1.88,-5.00,-8.44,59.55,3.62
45.00,1.00,262.75,4.62,-47.50,-1.81,1.38,-4.62,59.55,3.62
45.00,2.00,42.56,-12.62,2.62,-1.62,3.88,-3.12,59.55,3.62
45.00,0.00,110.56,-7.12,-145.38,-2.12,-0.44,-8.25,59.51,3.64
45.00,1.00,262.81,4.56,-47.44,-1.81,1.25,-4.62,59.51,3.64
45.00,2.00,42.62,-12.69,2.62,-0.75,4.81,-2.25,59.51,3.64
45.00,0.00,110.44,-7.19,-145.31,-5.69,4.06,-7.56,59.44,3.66
45.00,1.00,262.88,4.50,-47.44,-2.19,1.19,-3.94,59.44,3.66
45.00,2.00,42.69,-12.75,2.69,-3.56,3.69,-1.00,59.44,3.66
45.00,0.00,110.25,-7.19,-145.31,-8.75,5.56,-8.31,59.31,3.68
45.00,1.00,262.94,4.44,-47.38,-2.38,1.25,-4.19,59.31,3.68
45.00,2.00,42.62,-12.88,2.75,-4.62,3.25,0.38,59.31,3.68
45.00,0.00,110.00,-7.06,-145.25,-17.56,9.38,-10.25,58.87,3.70
45.00,1.00,263.00,4.38,-47.31,-1.62,2.56,-2.19,58.87,3.70
45.00,2.00,42.62,-12.94,2.75,-3.31,5.50,1.62,58.87,3.70
45.00,0.00,109.75,-7.00,-145.06,-19.50,9.56,-9.25,58.35,3.72
45.00,1.00,263.00,4.31,-47.31,-1.75,4.81,-0.62,58.35,3.72
45.00,2.00,42.56,-13.12,2.81,-3.19,7.50,3.62,58.35,3.72
45.00,0.00,109.56,-6.88,-144.75,-22.56,8.75,-7.56,57.88,3.74
45.00,1.00,262.94,4.19,-47.25,-3.88,6.94,0.19,57.88,3.74
45.00,2.00,42.44,-13.25,2.94,-7.38,5.44,4.31,57.88,3.74
45.00,0.00,109.31,-6.81,-144.44,-24.56,8.25,-8.62,57.41,3.76
45.00,1.00,262.88,4.12,-47.12,-4.50,6.00,-0.12,57.41,3.76
45.00,2.00,42.38,-13.31,3.06,-9.69,4.38,3.81,57.41,3.76
45.00,0.00,108.81,-6.75,-144.00,-25.12,7.69,-8.56,56.83,3.78
45.00,1.00,262.88,4.06,-47.06,-4.38,4.56,-1.38,56.83,3.78
45.00,2.00,42.31,-13.44,3.25,-6.62,6.44,2.38,56.83,3.78
45.00,0.00,108.56,-6.75,-143.50,-26.56,9.31,-7.25,56.11,3.80
45.00,1.00,262.88,3.94,-46.94,-4.56,3.62,-1.88,56.11,3.80
45.00,2.00,42.25,-13.62,3.31,-3.50,9.25,1.38,56.11,3.80
45.00,0.00,108.31,-6.56,-142.94,-33.31,18.25,-7.38,55.12,3.82
45.00,1.00,262.88,3.88,-46.88,-4.56,3.81,-2.19,55.12,3.82
45.00,2.00,42.19,-13.75,3.31,-1.81,7.75,2.81,55.12,3.82
45.00,0.00,107.94,-6.31,-142.25,-39.06,27.06,-8.75,53.93,3.84
45.00,1.00,262.88,3.81,-46.81,-5.62,4.75,-1.12,53.93,3.84
45.00,2.00,42.12,-13.94,3.31,-1.12,7.69,3.81,53.93,3.84
45.00,0.00,107.44,-5.94,-141.50,-43.00,33.50,-11.75,52.76,3.86
45.00,1.00,262.81,3.81,-46.69,-8.25,6.94,0.00,52.76,3.86
45.00,2.00,42.00,-14.06,3.38,-5.81,5.19,5.81,52.76,3.86
45.00,0.00,106.75,-5.56,-140.75,-43.88,35.81,-15.75,51.70,3.88
45.00,1.00,262.75,3.75,-46.62,-8.25,8.06,-0.12,51.70,3.88
45.00,2.00,41.88,-14.12,3.56,-10.00,3.19,8.44,51.70,3.88
45.00,0.00,106.12,-5.25,-139.94,-44.69,36.44,-15.56,50.55,3.90
45.00,1.00,262.62,3.69,-46.44,-8.81,9.88,-0.56,50.55,3.90
45.00,2.00,41.62,-14.19,3.50,-8.25,6.00,8.94,50.55,3.90
45.00,0.00,105.56,-4.81,-139.12,-45.00,39.94,-13.94,49.43,3.92
45.00,1.00,262.56,3.69,-46.38,-10.94,12.06,-0.44,49.43,3.92
45.00,2.00,41.44,-14.25,3.44,-9.06,9.88,9.81,49.43,3.92
45.00,0.00,104.88,-4.38,-138.38,-42.75,42.94,-14.69,48.46,3.94
45.00,1.00,262.38,3.56,-46.12,-11.56,14.19,0.12,48.46,3.94
45.00,2.00,41.19,-14.44,3.44,-12.06,10.12,11.94,48.46,3.94
45.00,0.00,104.25,-4.06,-137.69,-35.81,38.94,-18.12,47.89,3.96
45.00,1.00,262.19,3.44,-46.00,-10.94,15.25,1.06,47.89,3.96
45.00,2.00,40.88,-14.56,3.56,-17.69,9.19,13.50,47.89,3.96
45.00,0.00,103.50,-3.75,-137.12,-29.50,37.31,-18.50,47.58,3.98
45.00,1.00,262.06,3.25,-45.75,-12.19,15.00,1.19,47.58,3.98
45.00,2.00,40.56,-14.75,3.88,-19.56,9.50,14.44,47.58,3.98
45.00,0.00,102.88,-3.44,-136.69,-25.12,36.56,-16.19,47.35,4.00
45.00,1.00,261.94,3.06,-45.50,-10.69,15.25,1.38,47.35,4.00
45.00,2.00,40.25,-15.00,4.19,-17.62,9.31,14.81,47.35,4.00
45.00,0.00,102.31,-3.19,-136.25,-21.19,33.94,-15.75,47.27,4.02
45.00,1.00,261.81,2.94,-45.38,-11.50,15.25,0.88,47.27,4.02
45.00,2.00,39.94,-15.12,4.44,-18.81,6.88,14.06,47.27,4.02
45.00,0.00,101.56,-3.00,-135.94,-20.31,30.38,-19.88,47.25,4.04
45.00,1.00,261.62,2.69,-45.06,-9.94,15.38,1.62,47.25,4.04
45.00,2.00,39.62,-15.25,4.75,-19.69,5.12,13.62,47.25,4.04
45.00,0.00,100.88,-2.94,-135.62,-17.56,25.81,-22.81,47.24,4.06
45.00,1.00,261.56,2.50,-44.88,-8.19,13.56,-1.06,47.24,4.06
45.00,2.00,39.31,-15.38,5.06,-17.19,5.31,12.06,47.24,4.06
45.00,0.00,100.19,-2.88,-135.31,-17.69,24.56,-23.00,47.08,4.08
45.00,1.00,261.50,2.38,-44.81,-8.81,14.19,-1.81,47.08,4.08
45.00,2.00,39.06,-15.50,5.25,-12.44,5.62,11.06,47.08,4.08
45.00,0.00,287.75,-2.88,-134.94,-18.75,22.12,-21.56,46.85,4.10
45.00,1.00,261.31,2.06,-44.56,-8.19,16.44,1.62,46.85,4.10
45.00,2.00,38.81,-15.69,5.44,-11.69,6.69,9.69,46.85,4.10
45.00,0.00,286.94,-2.81,-134.62,-17.12,24.50,-16.56,46.52,4.12
45.00,1.00,261.25,1.94,-44.44,-8.62,16.69,2.56,46.52,4.12
45.00,2.00,38.62,-15.81,5.56,-6.50,8.94,10.19,46.52,4.12
45.00,0.00,285.94,-2.62,-134.38,-16.56,26.62,-12.50,46.44,4.14
45.00,1.00,261.00,1.62,-44.19,-8.56,15.56,-0.06,46.44,4.14
45.00,2.00,38.38,-15.94,5.69,-14.06,2.12,12.19,46.44,4.14
45.00,0.00,284.81,-2.38,-134.06,-17.00,28.25,-9.75,46.37,4.16
45.00,1.00,260.88,1.44,-44.00,-8.00,16.94,3.25,46.37,4.16
45.00,2.00,38.06,-16.00,5.94,-14.75,2.31,12.94,46.37,4.16
45.00,0.00,283.25,-2.12,-133.75,-16.06,27.88,-7.69,46.24,4.18
45.00,1.00,260.75,1.31,-43.94,-8.56,16.00,2.06,46.24,4.18
45.00,2.00,37.81,-16.12,6.12,-11.88,4.12,12.06,46.24,4.18
45.00,0.00,282.19,-1.88,-133.50,-14.75,25.50,-6.38,46.17,4.20
45.00,1.00,260.50,1.06,-43.62,-10.88,16.06,2.69,46.17,4.20
45.00,2.00,37.56,-16.19,6.25,-12.44,3.75,11.50,46.17,4.20
45.00,0.00,281.25,-1.62,-133.25,-12.94,22.44,-4.75,46.18,4.22
45.00,1.00,260.44,0.94,-43.50,-11.12,15.88,3.31,46.18,4.22
45.00,2.00,37.31,-16.31,6.50,-13.44,2.00,10.81,46.18,4.22
45.00,0.00,280.19,-1.38,-133.00,-11.62,19.56,-2.81,46.26,4.24
45.00,1.00,260.12,0.69,-43.19,-9.38,15.75,4.31,46.26,4.24
45.00,2.00,37.06,-16.31,6.69,-14.06,0.88,10.50,46.26,4.24
45.00,0.00,279.38,-1.19,-132.81,-11.44,17.69,-1.19,46.30,4.26
45.00,1.00,259.94,0.56,-43.06,-8.25,13.69,3.19,46.30,4.26
45.00,2.00,36.88,-16.38,6.88,-12.69,1.31,9.56,46.30,4.26
45.00,0.00,278.62,-1.00,-132.56,-13.00,15.69,-3.12,46.27,4.28
45.00,1.00,259.88,0.50,-42.94,-8.94,13.19,3.56,46.27,4.28
45.00,2.00,36.62,-16.44,7.12,-11.94,1.38,8.44,46.27,4.28
45.00,0.00,278.12,-0.88,-132.31,-11.94,11.25,-4.69,46.23,4.30
45.00,1.00,259.62,0.25,-42.62,-8.50,12.81,2.88,46.23,4.30
45.00,2.00,36.50,-16.50,7.31,-10.69,1.25,7.31,46.23,4.30
45.00,0.00,277.81,-0.81,-132.12,-10.12,9.56,-2.69,46.19,4.32
45.00,1.00,259.56,0.19,-42.56,-7.69,13.75,3.19,46.19,4.32
45.00,2.00,36.31,-16.50,7.56,-9.12,1.25,6.62,46.19,4.32
45.00,0.00,277.19,-0.75,-131.94,-9.25,8.62,-0.31,46.18,4.34
45.00,1.00,259.44,0.00,-42.44,-6.50,12.19,3.38,46.18,4.34
45.00,2.00,36.19,-16.56,7.75,-8.88,2.06,6.50,46.18,4.34
45.00,0.00,276.81,-0.69,-131.69,-10.44,9.00,-1.75,46.16,4.36
45.00,1.00,259.25,-0.06,-42.25,-7.12,10.44,3.06,46.16,4.36
45.00,2.00,36.06,-16.62,7.94,-9.75,1.88,5.75,46.16,4.36
45.00,0.00,276.62,-0.62,-131.44,-10.25,7.50,-4.44,46.16,4.38
45.00,1.00,259.12,-0.19,-42.06,-7.75,9.69,1.81,46.16,4.38
45.00,2.00,35.94,-16.69,8.19,-10.06,2.12,5.00,46.16,4.38
45.00,0.00,276.38,-0.62,-131.25,-8.81,7.75,-3.94,46.16,4.40
45.00,1.00,259.06,-0.31,-41.81,-6.12,8.75,1.12,46.16,4.40
45.00,2.00,35.81,-16.75,8.38,-9.00,2.75,4.25,46.16,4.40
45.00,0.00,276.19,-0.62,-131.00,-8.12,7.69,-2.50,46.18,4.42
45.00,1.00,259.00,-0.50,-41.62,-6.56,8.88,1.88,46.18,4.42
45.00,2.00,35.75,-16.81,8.62,-8.81,1.62,4.19,46.18,4.42
45.00,0.00,275.88,-0.56,-130.81,-8.62,6.75,-2.50,46.20,4.44
45.00,1.00,258.88,-0.56,-41.44,-7.81,8.50,1.94,46.20,4.44
45.00,2.00,35.62,-16.88,8.81,-9.06,0.31,4.12,46.20,4.44
45.00,0.00,275.69,-0.56,-130.62,-8.25,5.94,-2.62,46.29,4.46
45.00,1.00,258.81,-0.69,-41.25,-12.88,6.44,0.75,46.29,4.46
45.00,2.00,35.50,-16.88,9.00,-11.25,-1.00,3.31,46.29,4.46
45.00,0.00,275.44,-0.50,-130.44,-7.88,5.44,-2.56,46.46,4.48
45.00,1.00,258.75,-0.75,-41.00,-12.81,6.75,-0.44,46.46,4.48
45.00,2.00,35.44,-16.88,9.19,-13.19,-0.06,2.19,46.46,4.48
45.00,0.00,275.31,-0.50,-130.31,-6.62,3.81,-3.62,46.71,4.50
45.00,1.00,258.69,-0.88,-40.69,-12.75,8.69,0.19,46.71,4.50
45.00,2.00,35.38,-16.88,9.50,-14.69,1.19,2.25,46.71,4.50
45.00,0.00,275.25,-0.56,-130.19,-6.62,2.94,-5.25,46.91,4.52
45.00,1.00,258.62,-1.00,-40.50,-12.19,8.12,0.44,46.91,4.52
45.00,2.00,35.25,-16.94,9.75,-13.12,2.62,2.81,46.91,4.52
45.00,0.00,275.25,-0.62,-130.06,-7.62,2.12,-6.06,47.00,4.54
45.00,1.00,258.56,-1.12,-40.25,-7.62,6.88,-0.44,47.00,4.54
45.00,2.00,35.19,-17.00,9.94,-10.38,2.44,3.88,47.00,4.54
45.00,0.00,275.31,-0.69,-129.88,-8.19,1.75,-5.19,46.92,4.56
45.00,1.00,258.56,-1.19,-40.12,-3.94,6.31,0.50,46.92,4.56
45.00,2.00,35.06,-17.06,10.06,-5.69,2.62,3.19,46.92,4.56
45.00,0.00,275.25,-0.69,-129.75,-8.38,2.94,-4.12,46.77,4.58
45.00,1.00,258.50,-1.31,-40.06,-2.62,5.94,0.69,46.77,4.58
45.00,2.00,35.00,-17.12,10.06,-3.44,0.81,3.31,46.77,4.58
45.00,0.00,275.12,-0.69,-129.56,-9.06,5.31,-3.38,46.60,4.60
45.00,1.00,258.44,-1.38,-40.06,-1.62,4.94,0.88,46.60,4.60
45.00,2.00,34.94,-17.12,10.12,-3.56,-1.06,3.44,46.60,4.60
45.00,0.00,274.94,-0.69,-129.44,-6.38,6.12,-2.25,46.51,4.62
45.00,1.00,258.38,-1.44,-40.06,-0.31,4.56,1.88,46.51,4.62
45.00,2.00,34.88,-17.06,10.19,-3.75,-2.31,3.12,46.51,4.62
45.00,0.00,274.69,-0.62,-129.38,-2.50,6.38,-0.25,46.57,4.64
45.00,1.00,258.31,-1.44,-40.06,-1.00,4.19,2.00,46.57,4.64
45.00,2.00,34.75,-17.06,10.25,-4.38,-2.44,3.00,46.57,4.64
45.00,0.00,274.38,-0.50,-129.31,-1.25,8.00,0.06,46.66,4.66
45.00,1.00,258.25,-1.50,-39.94,-3.50,2.50,0.81,46.66,4.66
45.00,2.00,34.69,-17.00,10.31,-4.19,-1.56,2.31,46.66,4.66
45.00,0.00,274.00,-0.44,-129.31,-0.81,7.75,-1.69,46.76,4.68
45.00,1.00,258.25,-1.50,-39.88,-4.25,3.50,0.25,46.76,4.68
45.00,2.00,34.62,-17.00,10.38,-3.88,-0.12,2.38,46.76,4.68
45.00,0.00,273.81,-0.38,-129.31,-1.38,6.50,-3.31,46.86,4.70
45.00,1.00,258.19,-1.56,-39.75,-4.44,4.00,0.50,46.86,4.70
45.00,2.00,34.56,-17.00,10.44,-4.69,-0.06,3.12,46.86,4.70
45.00,0.00,273.62,-0.38,-129.31,0.12,4.81,-2.31,47.02,4.72
45.00,1.00,258.12,-1.62,-39.62,-4.50,5.00,0.75,47.02,4.72
45.00,2.00,34.50,-17.06,10.50,-4.75,0.25,4.00,47.02,4.72
45.00,0.00,273.56,-0.31,-129.31,0.25,4.38,-0.88,47.18,4.74
45.00,1.00,258.06,-1.69,-39.50,-3.62,5.62,1.19,47.18,4.74
45.00,2.00,34.38,-17.06,10.56,-4.94,0.19,5.06,47.18,4.74
45.00,0.00,273.38,-0.31,-129.25,-2.94,4.31,-2.06,47.22,4.76
45.00,1.00,258.00,-1.75,-39.38,-3.25,6.00,2.31,47.22,4.76
45.00,2.00,34.25,-17.06,10.62,-4.25,-0.31,6.12,47.22,4.76
45.00,0.00,273.31,-0.31,-129.19,-4.38,3.44,-3.38,47.17,4.78
45.00,1.00,257.88,-1.81,-39.31,-2.00,6.56,2.81,47.17,4.78
45.00,2.00,34.12,-17.12,10.69,-2.81,-0.12,6.38,47.17,4.78
45.00,0.00,273.19,-0.31,-129.06,-4.25,4.56,-2.75,47.11,4.80
45.00,1.00,257.81,-1.88,-39.25,-0.94,6.31,3.44,47.11,4.80
45.00,2.00,34.00,-17.12,10.69,-2.25,-0.56,6.56,47.11,4.80
45.00,0.00,273.00,-0.25,-129.00,-3.81,4.56,-2.19,47.09,4.82
45.00,1.00,257.69,-1.88,-39.25,-1.19,5.75,4.31,47.09,4.82
45.00,2.00,33.94,-17.12,10.69,-3.06,-1.00,7.12,47.09,4.82
45.00,0.00,272.81,-0.25,-128.94,-2.81,6.25,-2.31,47.13,4.84
45.00,1.00,257.56,-1.94,-39.19,-1.94,6.00,4.88,47.13,4.84
45.00,2.00,33.69,-17.12,10.75,-4.25,-1.88,7.44,47.13,4.84
45.00,0.00,272.56,-0.19,-128.94,-2.00,7.31,-2.50,47.20,4.86
45.00,1.00,257.38,-1.94,-39.19,-1.88,5.62,4.94,47.20,4.86
45.00,2.00,33.50,-17.12,10.75,-4.25,-2.06,7.25,47.20,4.86
45.00,0.00,272.31,-0.12,-128.88,-1.44,7.25,-3.12,47.28,4.88
45.00,1.00,257.25,-1.94,-39.12,-2.62,5.00,4.56,47.28,4.88
45.00,2.00,33.44,-17.12,10.81,-3.88,-1.69,6.81,47.28,4.88
45.00,0.00,272.12,-0.12,-128.88,-1.12,6.81,-3.19,47.36,4.90
45.00,1.00,257.12,-2.00,-39.06,-2.56,4.50,4.62,47.36,4.90
45.00,2.00,33.25,-17.12,10.81,-3.75,-1.75,7.19,47.36,4.90
45.00,0.00,271.88,-0.06,-128.81,-0.62,7.00,-2.75,47.48,4.92
45.00,1.00,257.00,-2.00,-39.00,-2.44,4.94,4.69,47.48,4.92
45.00,2.00,33.12,-17.12,10.88,-4.31,-1.31,7.31,47.48,4.92
45.00,0.00,271.69,0.00,-128.81,-0.44,6.44,-2.69,47.61,4.94
45.00,1.00,256.88,-2.00,-38.94,-2.25,4.62,4.50,47.61,4.94
45.00,2.00,32.94,-17.06,10.94,-4.56,-1.50,7.25,47.61,4.94
45.00,0.00,271.50,0.00,-128.81,-0.25,4.75,-3.12,47.74,4.96
45.00,1.00,256.75,-2.00,-38.88,-2.06,4.62,4.06,47.74,4.96
45.00,2.00,32.75,-17.06,11.00,-4.69,-1.94,6.62,47.74,4.96
45.00,0.00,271.44,0.00,-128.81,-0.12,4.19,-2.62,47.85,4.98
45.00,1.00,256.69,-2.00,-38.81,-2.25,4.44,3.62,47.85,4.98
45.00,2.00,32.69,-17.06,11.00,-3.62,-1.06,5.44,47.85,4.98
45.00,0.00,271.31,0.00,-128.81,-0.12,2.94,-1.75,47.98,5.00
45.00,1.00,256.56,-2.06,-38.75,-2.38,4.50,3.12,47.98,5.00
45.00,2.00,32.56,-17.06,11.06,-4.00,-0.38,4.81,47.98,5.00
45.00,0.00,271.31,0.00,-128.81,-0.19,0.94,-1.81,48.11,5.02
45.00,1.00,256.50,-2.06,-38.75,-2.56,4.31,2.88,48.11,5.02
45.00,2.00,32.50,-17.06,11.12,-4.38,-0.62,3.94,48.11,5.02
45.00,0.00,271.31,0.00,-128.81,-0.25,-1.00,-1.75,48.22,5.04
45.00,1.00,256.38,-2.06,-38.69,-2.44,3.88,1.75,48.22,5.04
45.00,2.00,32.38,-17.06,11.25,-3.81,-0.62,2.75,48.22,5.04
45.00,0.00,271.44,-0.06,-128.75,-0.06,-2.06,-1.69,48.29,5.06
45.00,1.00,256.38,-2.12,-38.62,-2.19,3.31,0.19,48.29,5.06
45.00,2.00,32.31,-17.06,11.25,-2.44,0.69,0.94,48.29,5.06
45.00,0.00,271.50,-0.06,-128.75,-0.25,-3.75,-1.38,48.37,5.08
45.00,1.00,256.38,-2.19,-38.56,-2.38,2.75,-0.44,48.37,5.08
45.00,2.00,32.31,-17.06,11.31,-2.69,0.44,0.25,48.37,5.08
45.00,0.00,271.81,-0.12,-128.75,-0.19,-4.25,-0.81,48.45,5.10
45.00,1.00,256.31,-2.19,-38.50,-2.75,2.50,-0.50,48.45,5.10
45.00,2.00,32.31,-17.06,11.38,-2.88,0.69,-0.06,48.45,5.10
45.00,0.00,271.94,-0.19,-128.69,-0.88,-3.25,-0.19,48.52,5.12
45.00,1.00,256.31,-2.25,-38.44,-2.44,2.25,-0.88,48.52,5.12
45.00,2.00,32.31,-17.06,11.50,-3.00,0.12,-0.06,48.52,5.12
45.00,0.00,272.25,-0.19,-128.69,-0.94,-3.81,0.25,48.58,5.14
45.00,1.00,256.31,-2.31,-38.38,-2.38,1.88,-1.56,48.58,5.14
45.00,2.00,32.31,-17.06,11.56,-2.75,0.19,-1.19,48.58,5.14
45.00,0.00,272.38,-0.25,-128.62,-0.75,-3.69,0.31,48.61,5.16
45.00,1.00,256.38,-2.31,-38.25,-2.19,1.62,-2.19,48.61,5.16
45.00,2.00,32.38,-17.06,11.62,-1.81,1.25,-1.44,48.61,5.16
45.00,0.00,272.44,-0.25,-128.56,-0.44,-3.38,0.62,48.65,5.18
45.00,1.00,256.38,-2.38,-38.19,-2.38,1.56,-2.50,48.65,5.18
45.00,2.00,32.38,-17.06,11.62,-1.69,2.00,-2.06,48.65,5.18
45.00,0.00,272.56,-0.31,-128.56,-0.50,-3.38,0.88,48.70,5.20
45.00,1.00,256.44,-2.44,-38.12,-2.62,1.38,-2.12,48.70,5.20
45.00,2.00,32.44,-17.12,11.69,-2.12,1.56,-1.56,48.70,5.20
45.00,0.00,272.69,-0.31,-128.56,-1.81,-3.00,1.00,48.74,5.22
45.00,1.00,256.44,-2.44,-38.06,-2.75,1.56,-1.81,48.74,5.22
45.00,2.00,32.44,-17.12,11.75,-3.00,0.81,-0.62,48.74,5.22
45.00,0.00,272.94,-0.31,-128.50,-2.12,-1.56,0.88,48.77,5.24
45.00,1.00,256.50,-2.50,-38.00,-2.94,1.38,-1.75,48.77,5.24
45.00,2.00,32.44,-17.12,11.81,-3.00,0.31,-0.50,48.77,5.24
45.00,0.00,272.94,-0.31,-128.50,-2.44,-1.56,0.56,48.75,5.26
45.00,1.00,256.50,-2.56,-37.94,-2.69,1.44,-1.56,48.75,5.26
45.00,2.00,32.44,-17.12,11.88,-1.88,0.69,-0.69,48.75,5.26
45.00,0.00,273.00,-0.38,-128.44,-2.50,-1.44,0.25,48.73,5.28
45.00,1.00,256.50,-2.56,-37.88,-2.38,1.75,-1.62,48.73,5.28
45.00,2.00,32.44,-17.12,11.94,-1.81,1.81,-0.06,48.73,5.28
45.00,0.00,273.06,-0.38,-128.38,-1.88,-1.12,-0.44,48.73,5.30
45.00,1.00,256.50,-2.62,-37.81,-2.06,1.94,-1.69,48.73,5.30
45.00,2.00,32.44,-17.19,11.94,-2.00,2.31,0.44,48.73,5.30
45.00,0.00,273.12,-0.38,-128.38,-1.62,-1.56,-0.75,48.79,5.32
45.00,1.00,256.50,-2.69,-37.75,-3.06,3.19,-0.94,48.79,5.32
45.00,2.00,32.44,-17.25,12.00,-3.56,2.38,0.81,48.79,5.32
45.00,0.00,273.25,-0.44,-128.31,-1.38,-1.94,-0.94,48.89,5.34
45.00,1.00,256.50,-2.75,-37.69,-2.75,3.19,0.19,48.89,5.34
45.00,2.00,32.38,-17.25,12.12,-4.50,1.06,1.75,48.89,5.34
45.00,0.00,273.38,-0.44,-128.31,-1.50,-1.88,-1.31,48.97,5.36
45.00,1.00,256.50,-2.75,-37.62,-2.75,3.19,0.00,48.97,5.36
45.00,2.00,32.31,-17.25,12.19,-4.19,0.75,2.12,48.97,5.36
45.00,0.00,273.44,-0.50,-128.25,-1.75,-1.38,-1.50,49.05,5.38
45.00,1.00,256.44,-2.81,-37.56,-3.12,3.31,0.19,49.05,5.38
45.00,2.00,32.31,-17.31,12.19,-4.12,1.25,2.31,49.05,5.38
45.00,0.00,273.69,-0.56,-128.25,-1.56,-0.25,-2.38,49.11,5.40
45.00,1.00,256.44,-2.88,-37.50,-2.38,3.12,0.69,49.11,5.40
45.00,2.00,32.19,-17.38,12.31,-3.50,1.19,2.62,49.11,5.40
45.00,0.00,273.75,-0.56,-128.19,-1.31,-0.62,-2.69,49.15,5.42
45.00,1.00,256.38,-2.88,-37.44,-1.81,2.94,1.06,49.15,5.42
45.00,2.00,32.12,-17.38,12.31,-2.75,0.75,2.81,49.15,5.42
45.00,0.00,273.94,-0.62,-128.19,-1.06,-0.19,-2.88,49.17,5.44
45.00,1.00,256.38,-2.94,-37.38,-1.38,2.62,0.38,49.17,5.44
45.00,2.00,32.12,-17.38,12.38,-1.69,0.06,2.62,49.17,5.44
45.00,0.00,274.00,-0.69,-128.19,-0.50,0.12,-2.88,49.19,5.46
45.00,1.00,256.31,-3.00,-37.38,-0.75,2.19,0.12,49.19,5.46
45.00,2.00,32.06,-17.38,12.38,-1.00,0.38,1.94,49.19,5.46
45.00,0.00,274.12,-0.75,-128.19,1.88,-2.75,-1.50,49.30,5.48
45.00,1.00,256.31,-3.00,-37.38,-1.06,2.31,0.06,49.30,5.48
45.00,2.00,32.06,-17.38,12.38,-1.50,0.38,1.62,49.30,5.48
45.00,0.00,274.25,-0.75,-128.19,1.75,-1.75,-1.31,49.39,5.50
45.00,1.00,256.31,-3.06,-37.31,-1.00,1.94,-0.19,49.39,5.50
45.00,2.00,32.00,-17.38,12.44,-1.38,0.38,1.56,49.39,5.50
45.00,0.00,274.31,-0.81,-128.25,1.75,-1.50,-1.38,49.47,5.52
45.00,1.00,256.31,-3.06,-37.31,-0.50,1.94,-0.44,49.47,5.52
45.00,2.00,31.94,-17.44,12.44,-0.69,0.44,1.25,49.47,5.52
45.00,0.00,274.44,-0.81,-128.31,2.38,-1.19,-0.88,49.56,5.54
45.00,1.00,256.31,-3.06,-37.31,-0.12,1.75,-0.56,49.56,5.54
45.00,2.00,31.94,-17.44,12.44,-0.56,0.19,1.06,49.56,5.54
45.00,0.00,274.50,-0.88,-128.31,1.94,-1.50,-0.19,49.64,5.56
45.00,1.00,256.31,-3.12,-37.25,-0.38,1.56,-0.75,49.64,5.56
45.00,2.00,31.94,-17.44,12.44,-0.62,-0.44,0.94,49.64,5.56
45.00,0.00,274.50,-0.88,-128.38,1.44,-1.19,0.31,49.70,5.58
45.00,1.00,256.31,-3.19,-37.25,1.00,2.38,-0.94,49.70,5.58
45.00,2.00,31.88,-17.44,12.44,-0.38,-1.00,0.81,49.70,5.58
45.00,0.00,274.50,-0.88,-128.38,1.31,-0.56,0.81,49.78,5.60
45.00,1.00,256.31,-3.19,-37.25,0.50,2.06,-0.69,49.78,5.60
45.00,2.00,31.88,-17.38,12.44,-1.25,-0.38,0.75,49.78,5.60
45.00,0.00,274.50,-0.81,-128.38,0.81,-0.50,1.12,49.85,5.62
45.00,1.00,256.25,-3.25,-37.25,-1.31,1.75,-0.38,49.85,5.62
45.00,2.00,31.88,-17.38,12.50,-1.38,0.25,0.75,49.85,5.62
45.00,0.00,274.44,-0.81,-128.38,0.12,-0.69,0.56,49.90,5.64
45.00,1.00,256.25,-3.25,-37.19,-0.81,2.19,0.12,49.90,5.64
45.00,2.00,31.81,-17.44,12.50,-1.44,0.19,1.06,49.90,5.64
45.00,0.00,274.50,-0.81,-128.38,-0.50,-0.62,0.38,49.92,5.66
45.00,1.00,256.25,-3.31,-37.19,-0.75,1.81,0.69,49.92,5.66
45.00,2.00,31.81,-17.44,12.50,-1.06,-0.25,0.38,49.92,5.66
45.00,0.00,274.50,-0.81,-128.31,-1.31,0.00,-0.19,49.92,5.68
45.00,1.00,256.25,-3.31,-37.19,-0.38,1.94,0.44,49.92,5.68
45.00,2.00,31.81,-17.44,12.56,-1.31,0.00,0.56,49.92,5.68
45.00,0.00,274.50,-0.81,-128.31,-1.56,0.56,-0.38,49.93,5.70
45.00,1.00,256.19,-3.31,-37.12,-1.00,1.94,0.44,49.93,5.70
45.00,2.00,31.81,-17.44,12.56,-2.00,0.31,1.38,49.93,5.70
45.00,0.00,274.50,-0.81,-128.25,-1.38,0.75,-0.75,49.95,5.72
45.00,1.00,256.19,-3.38,-37.12,-0.75,1.88,0.75,49.95,5.72
45.00,2.00,31.75,-17.44,12.62,-1.94,0.06,1.50,49.95,5.72
45.00,0.00,274.50,-0.81,-128.25,-1.12,0.12,-1.25,49.96,5.74
45.00,1.00,256.19,-3.38,-37.06,-0.75,1.62,0.56,49.96,5.74
45.00,2.00,31.75,-17.44,12.62,-1.44,0.88,1.19,49.96,5.74
45.00,0.00,274.50,-0.88,-128.25,-0.75,-0.44,-1.38,49.98,5.76
45.00,1.00,256.12,-3.38,-37.06,-0.44,1.50,0.62,49.98,5.76
45.00,2.00,31.69,-17.44,12.69,-1.56,0.94,1.44,49.98,5.76
