Iteration,IMUNo,OrientationX (deg),OrientationY,OrientationZ,GyroX (20rad/sec),GyroY,GyroZ,Elbow_Pos (rad),Time (sec)
71.00,0.00,284.31,-4.44,-98.56,-3.94,2.19,-1.94,0.19,1.02
71.00,1.00,286.00,-6.31,-39.88,-5.12,7.44,7.75,0.19,1.02
71.00,2.00,40.19,-22.06,14.69,-10.62,-7.81,6.69,0.19,1.02
71.00,0.00,284.25,-4.44,-98.44,-4.38,2.12,1.06,0.41,1.02
71.00,1.00,285.81,-6.38,-39.75,-7.75,10.12,8.06,0.41,1.04
71.00,2.00,40.06,-22.06,14.75,-12.25,-7.19,9.12,0.41,1.04
71.00,0.00,284.12,-4.38,-98.38,-3.38,4.94,2.50,0.75,1.04
71.00,1.00,285.62,-6.38,-39.69,-9.75,11.38,9.06,0.75,1.04
71.00,2.00,39.81,-22.00,14.94,-15.56,-5.69,11.88,0.75,1.06
71.00,0.00,284.00,-4.38,-98.38,-2.81,7.44,2.62,1.11,1.06
71.00,1.00,285.38,-6.44,-39.56,-7.62,11.19,9.81,1.11,1.06
71.00,2.00,39.44,-21.94,15.12,-15.81,-6.88,13.81,1.11,1.06
71.00,0.00,283.75,-4.25,-98.31,-2.31,7.88,2.75,1.39,1.08
71.00,1.00,285.19,-6.50,-39.44,-4.81,6.00,4.88,1.39,1.08
71.00,2.00,39.31,-21.88,15.25,-12.00,-8.44,13.38,1.39,1.08
71.00,0.00,283.56,-4.19,-98.31,-1.81,8.31,2.19,1.44,1.10
71.00,1.00,285.06,-6.50,-39.38,-3.38,5.00,6.56,1.44,1.10
71.00,2.00,38.94,-21.75,15.25,-3.88,-7.44,9.38,1.44,1.10
71.00,0.00,283.31,-4.12,-98.31,-1.00,8.31,1.50,1.42,1.12
71.00,1.00,284.88,-6.50,-39.38,-0.56,4.88,8.00,1.42,1.12
71.00,2.00,38.75,-21.69,15.19,-0.12,-5.56,6.75,1.42,1.12
71.00,0.00,283.12,-4.12,-98.31,0.00,7.62,0.31,1.40,1.14
71.00,1.00,284.69,-6.44,-39.31,0.44,2.38,7.81,1.40,1.14
71.00,2.00,38.69,-21.69,15.19,0.62,-4.94,6.44,1.40,1.14
71.00,0.00,283.00,-4.12,-98.31,2.12,5.50,-0.56,1.27,1.16
71.00,1.00,284.50,-6.31,-39.31,-0.25,-0.88,8.62,1.27,1.16
71.00,2.00,38.56,-21.62,15.06,6.81,-1.56,2.69,1.27,1.16
71.00,0.00,282.94,-4.12,-98.38,2.44,5.56,-1.88,1.01,1.18
71.00,1.00,284.38,-6.19,-39.38,2.12,-2.06,6.69,1.01,1.18
71.00,2.00,38.56,-21.62,14.94,11.69,1.81,-1.06,1.01,1.18
71.00,0.00,282.88,-4.19,-98.38,2.38,4.25,-4.88,0.68,1.20
71.00,1.00,284.38,-6.06,-39.44,4.06,-4.94,2.81,0.68,1.20
71.00,2.00,38.69,-21.62,14.88,14.06,4.06,-2.94,0.68,1.20
71.00,0.00,282.94,-4.25,-98.50,5.38,1.44,-4.12,0.37,1.22
71.00,1.00,284.38,-6.00,-39.50,3.31,-6.50,0.44,0.37,1.22
71.00,2.00,39.00,-21.75,14.50,16.69,6.75,-7.31,0.37,1.22
71.00,0.00,283.06,-4.38,-98.62,7.88,-0.88,-3.19,0.12,1.24
71.00,1.00,284.44,-5.88,-39.56,3.69,-8.75,-2.00,0.12,1.24
71.00,2.00,39.12,-21.75,14.38,16.69,6.19,-7.44,0.12,1.24
71.00,0.00,283.19,-4.44,-98.75,8.19,-3.62,-4.12,-0.09,1.26
71.00,1.00,284.62,-5.75,-39.62,4.25,-10.62,-4.81,-0.09,1.26
71.00,2.00,39.38,-21.88,14.12,15.50,6.88,-9.50,-0.09,1.26
71.00,0.00,283.44,-4.56,-98.88,5.94,-4.44,-6.38,-0.38,1.28
71.00,1.00,284.81,-5.69,-39.69,4.56,-9.31,-5.31,-0.38,1.28
71.00,2.00,39.62,-21.94,13.88,16.38,10.06,-10.62,-0.38,1.28
71.00,0.00,283.75,-4.75,-99.00,5.44,-7.75,-7.12,-0.68,1.30
71.00,1.00,285.00,-5.62,-39.81,5.00,-7.44,-6.12,-0.68,1.30
71.00,2.00,39.94,-22.06,13.69,16.31,10.62,-9.88,-0.68,1.30
71.00,0.00,284.06,-4.88,-99.06,4.44,-8.69,-7.19,-0.93,1.32
71.00,1.00,285.12,-5.62,-39.88,6.50,-4.50,-7.62,-0.93,1.32
71.00,2.00,40.12,-22.25,13.44,13.38,7.94,-4.94,-0.93,1.32
71.00,0.00,284.44,-5.00,-99.19,6.62,-11.56,-4.19,-1.08,1.34
71.00,1.00,285.31,-5.69,-40.06,9.44,-0.81,-7.81,-1.08,1.34
71.00,2.00,40.25,-22.38,13.25,11.88,7.44,-3.81,-1.08,1.34
71.00,0.00,284.75,-5.12,-99.31,6.56,-12.00,-3.81,-1.11,1.36
71.00,1.00,285.44,-5.75,-40.25,7.44,-0.19,-6.19,-1.11,1.36
71.00,2.00,40.38,-22.50,13.12,7.69,8.00,-0.56,-1.11,1.36
71.00,0.00,285.06,-5.19,-99.44,3.62,-8.69,-5.56,-1.18,1.38
71.00,1.00,285.56,-5.81,-40.38,6.69,1.31,-4.19,-1.18,1.38
71.00,2.00,40.44,-22.62,13.00,6.00,8.06,1.12,-1.18,1.38
71.00,0.00,285.25,-5.38,-99.44,1.31,-2.94,-6.88,-1.28,1.40
71.00,1.00,285.56,-5.88,-40.50,7.44,4.44,-4.12,-1.28,1.40
71.00,2.00,40.44,-22.81,12.81,5.06,7.75,2.38,-1.28,1.40
71.00,0.00,285.44,-5.44,-99.50,2.69,-1.00,-5.62,-1.29,1.42
71.00,1.00,285.62,-6.00,-40.69,6.56,3.50,-2.75,-1.29,1.42
71.00,2.00,40.38,-22.94,12.69,2.94,7.38,5.19,-1.29,1.42
71.00,0.00,285.50,-5.50,-99.56,3.38,1.31,-4.69,-1.25,1.44
71.00,1.00,285.62,-6.06,-40.75,5.44,6.62,-0.88,-1.25,1.44
71.00,2.00,40.25,-23.12,12.56,1.88,7.06,5.56,-1.25,1.44
71.00,0.00,285.44,-5.56,-99.62,2.94,5.00,-4.50,-1.17,1.46
71.00,1.00,285.56,-6.12,-40.81,5.12,8.19,0.19,-1.17,1.46
71.00,2.00,40.19,-23.25,12.50,0.25,6.06,6.88,-1.17,1.46
71.00,0.00,285.38,-5.62,-99.69,2.69,6.44,-5.56,-1.14,1.48
71.00,1.00,285.50,-6.25,-41.00,4.69,7.06,0.38,-1.14,1.48
71.00,2.00,40.06,-23.44,12.50,1.38,7.38,5.75,-1.14,1.48
71.00,0.00,285.38,-5.69,-99.75,3.31,4.69,-6.06,-1.09,1.50
71.00,1.00,285.44,-6.38,-41.06,3.19,7.38,-0.38,-1.09,1.50
71.00,2.00,39.94,-23.56,12.44,1.75,7.69,4.81,-1.09,1.50
71.00,0.00,285.44,-5.81,-99.88,3.69,2.75,-6.00,-1.01,1.52
71.00,1.00,285.44,-6.44,-41.12,3.38,8.12,-1.19,-1.01,1.52
71.00,2.00,39.88,-23.75,12.38,0.75,7.00,4.19,-1.01,1.52
71.00,0.00,285.50,-5.94,-99.94,3.31,1.75,-6.00,-0.93,1.54
71.00,1.00,285.38,-6.56,-41.19,3.00,7.94,-1.69,-0.93,1.54
71.00,2.00,39.81,-23.94,12.38,0.50,7.44,3.88,-0.93,1.54
71.00,0.00,285.62,-6.06,-100.00,2.81,0.38,-6.44,-0.87,1.56
71.00,1.00,285.38,-6.69,-41.25,1.88,6.81,-2.62,-0.87,1.56
71.00,2.00,39.81,-24.12,12.31,0.56,9.19,2.31,-0.87,1.56
71.00,0.00,285.81,-6.19,-100.06,3.31,-1.69,-5.69,-0.79,1.58
71.00,1.00,285.38,-6.81,-41.25,1.06,5.88,-2.81,-0.79,1.58
71.00,2.00,39.75,-24.31,12.38,0.69,9.81,1.19,-0.79,1.58
71.00,0.00,286.00,-6.31,-100.12,3.00,-3.69,-4.56,-0.72,1.60
71.00,1.00,285.44,-6.94,-41.31,1.81,6.19,-2.25,-0.72,1.60
71.00,2.00,39.75,-24.50,12.38,0.44,9.62,1.12,-0.72,1.60
71.00,0.00,286.19,-6.38,-100.12,2.31,-4.69,-3.25,-0.65,1.62
71.00,1.00,285.44,-7.12,-41.38,3.69,6.56,-2.56,-0.65,1.62
71.00,2.00,39.75,-24.62,12.38,-0.25,7.38,1.12,-0.65,1.62
71.00,0.00,286.31,-6.44,-100.19,2.31,-4.88,-2.56,-0.59,1.64
71.00,1.00,285.44,-7.25,-41.44,4.19,4.00,-3.56,-0.59,1.64
71.00,2.00,39.75,-24.81,12.38,0.00,7.56,0.50,-0.59,1.64
71.00,0.00,286.50,-6.50,-100.25,3.50,-4.50,-1.81,-0.51,1.66
71.00,1.00,285.50,-7.38,-41.50,2.75,0.88,-3.75,-0.51,1.66
71.00,2.00,39.81,-25.00,12.44,0.81,8.38,-1.62,-0.51,1.66
71.00,0.00,286.62,-6.56,-100.31,4.19,-4.19,-1.62,-0.41,1.68
71.00,1.00,285.56,-7.44,-41.56,1.00,-0.50,-3.12,-0.41,1.68
71.00,2.00,39.88,-25.19,12.44,0.69,8.69,-4.88,-0.41,1.68
71.00,0.00,286.75,-6.56,-100.38,4.31,-3.56,-1.06,-0.26,1.70
71.00,1.00,285.62,-7.50,-41.62,-1.50,-0.75,-1.25,-0.26,1.70
71.00,2.00,40.00,-25.31,12.50,-1.25,7.50,-5.00,-0.26,1.70
71.00,0.00,286.81,-6.56,-100.50,3.94,-2.38,-0.62,-0.09,1.72
71.00,1.00,285.69,-7.56,-41.56,-2.31,-0.75,-0.62,-0.09,1.72
71.00,2.00,40.12,-25.44,12.56,-2.12,6.81,-4.31,-0.09,1.72
71.00,0.00,286.88,-6.62,-100.56,3.06,-2.31,0.19,0.12,1.74
71.00,1.00,285.69,-7.56,-41.56,-4.06,-0.25,0.94,0.12,1.74
71.00,2.00,40.19,-25.56,12.69,-4.19,5.12,-3.69,0.12,1.74
71.00,0.00,286.88,-6.56,-100.56,1.44,-1.81,1.44,0.33,1.76
71.00,1.00,285.69,-7.56,-41.50,-4.69,0.12,1.31,0.33,1.76
71.00,2.00,40.19,-25.62,12.81,-6.38,-0.38,-2.25,0.33,1.76
71.00,0.00,286.88,-6.56,-100.56,0.00,-1.12,2.19,0.53,1.78
71.00,1.00,285.69,-7.56,-41.38,-7.81,-4.38,-0.31,0.53,1.78
71.00,2.00,40.19,-25.56,12.94,-7.12,-5.69,-1.38,0.53,1.78
71.00,0.00,286.88,-6.50,-100.56,-0.88,-0.06,1.75,0.67,1.80
71.00,1.00,285.75,-7.56,-41.19,-8.25,-6.81,-1.81,0.67,1.80
71.00,2.00,40.19,-25.44,13.06,-5.69,-5.56,-2.38,0.67,1.80
71.00,0.00,286.81,-6.50,-100.56,-0.56,1.31,1.75,0.78,1.82
71.00,1.00,285.81,-7.50,-41.06,-8.44,-8.31,-2.25,0.78,1.82
71.00,2.00,40.19,-25.31,13.19,-4.50,-5.56,-3.44,0.78,1.82
71.00,0.00,286.75,-6.44,-100.56,-0.44,2.19,1.81,0.86,1.84
71.00,1.00,285.94,-7.38,-40.88,-7.56,-8.38,-2.31,0.86,1.84
71.00,2.00,40.25,-25.19,13.31,-3.25,-5.50,-5.50,0.86,1.84
71.00,0.00,286.62,-6.38,-100.56,-0.88,2.44,2.38,0.92,1.86
71.00,1.00,286.06,-7.31,-40.69,-6.56,-6.50,-1.56,0.92,1.86
71.00,2.00,40.38,-25.12,13.44,-3.00,-5.44,-5.12,0.92,1.86
71.00,0.00,286.50,-6.31,-100.56,-1.62,3.06,2.94,0.91,1.88
71.00,1.00,286.06,-7.25,-40.56,-3.50,-6.31,-0.31,0.91,1.88
71.00,2.00,40.44,-25.00,13.56,-1.44,-5.31,-2.69,0.91,1.88
71.00,0.00,286.44,-6.31,-100.56,-2.56,1.81,2.88,0.86,1.90
71.00,1.00,286.12,-7.12,-40.50,-2.44,-5.94,0.19,0.86,1.90
71.00,2.00,40.44,-24.94,13.62,-0.75,-5.00,-0.69,0.86,1.90
71.00,0.00,286.31,-6.25,-100.44,-3.50,0.31,2.81,0.75,1.92
71.00,1.00,286.19,-7.06,-40.31,-2.06,-5.31,0.00,0.75,1.92
71.00,2.00,40.44,-24.81,13.62,0.50,-5.31,-0.06,0.75,1.92
71.00,0.00,286.31,-6.19,-100.44,-2.75,-0.56,2.75,0.57,1.94
71.00,1.00,286.25,-7.00,-40.25,-0.69,-5.00,0.88,0.57,1.94
71.00,2.00,40.44,-24.69,13.50,3.62,-5.62,2.00,0.57,1.94
71.00,0.00,286.25,-6.12,-100.38,-0.56,-2.00,3.50,0.48,1.96
71.00,1.00,286.19,-6.94,-40.25,1.06,-1.62,2.44,0.48,1.96
71.00,2.00,40.31,-24.62,13.38,2.62,-4.44,5.19,0.48,1.96
71.00,0.00,286.25,-6.06,-100.38,3.06,-4.50,4.06,0.70,1.98
71.00,1.00,286.12,-6.88,-40.31,2.38,1.69,8.00,0.70,1.98
71.00,2.00,40.19,-24.56,13.38,-4.62,-6.44,9.25,0.70,1.98
71.00,0.00,286.31,-6.00,-100.44,7.50,-7.19,4.50,1.16,2.00
71.00,1.00,285.94,-6.81,-40.31,2.00,1.44,7.62,1.16,2.00
71.00,2.00,39.94,-24.50,13.38,-8.94,-9.00,10.31,1.16,2.00
71.00,0.00,286.44,-6.00,-100.62,14.25,-10.62,5.81,1.67,2.02
71.00,1.00,285.81,-6.69,-40.44,4.06,-1.00,5.38,1.67,2.02
71.00,2.00,39.69,-24.38,13.44,-3.88,-5.75,3.56,1.67,2.02
71.00,0.00,286.62,-5.94,-100.94,18.69,-13.31,6.44,2.16,2.04
71.00,1.00,285.81,-6.62,-40.50,4.56,-6.06,0.38,2.16,2.04
71.00,2.00,39.69,-24.31,13.44,0.94,-2.44,-1.50,2.16,2.04
71.00,0.00,287.00,-5.88,-101.38,33.88,-19.62,3.50,2.93,2.06
71.00,1.00,285.88,-6.56,-40.56,3.00,-5.94,-1.38,2.93,2.06
71.00,2.00,39.81,-24.31,13.38,6.44,2.50,-7.38,2.93,2.06
71.00,0.00,287.50,-5.88,-102.06,47.44,-23.88,-0.38,4.00,2.08
71.00,1.00,286.06,-6.44,-40.56,1.81,-14.88,-5.06,4.00,2.08
71.00,2.00,40.06,-24.31,13.31,9.19,-0.06,-12.19,4.00,2.08
71.00,0.00,288.19,-6.00,-103.00,60.81,-27.69,-4.19,5.44,2.10
71.00,1.00,286.31,-6.25,-40.56,-1.31,-19.25,-6.75,5.44,2.10
71.00,2.00,40.31,-24.19,13.25,9.56,-4.69,-16.06,5.44,2.10
71.00,0.00,289.19,-6.25,-104.19,72.50,-35.94,-7.56,7.11,2.12
71.00,1.00,286.62,-6.06,-40.50,-1.31,-23.25,-9.88,7.11,2.12
71.00,2.00,40.69,-24.06,13.19,12.75,-7.25,-16.69,7.11,2.12
71.00,0.00,290.56,-6.56,-105.56,78.38,-40.69,-7.69,8.82,2.14
71.00,1.00,287.00,-5.81,-40.44,0.75,-22.88,-9.00,8.82,2.14
71.00,2.00,41.06,-23.81,13.06,17.50,-5.81,-15.56,8.82,2.14
71.00,0.00,292.12,-6.94,-107.12,89.56,-47.06,-3.94,10.81,2.16
71.00,1.00,287.25,-5.62,-40.50,6.31,-17.81,-6.19,10.81,2.16
71.00,2.00,41.38,-23.69,12.81,18.62,-5.06,-11.25,10.81,2.16
71.00,0.00,293.75,-7.31,-108.75,92.50,-47.50,-1.69,12.94,2.18
71.00,1.00,287.56,-5.44,-40.56,6.44,-15.44,-5.31,12.94,2.18
71.00,2.00,41.69,-23.56,12.56,16.19,-7.31,-5.81,12.94,2.18
71.00,0.00,295.50,-7.62,-110.44,94.56,-48.31,-0.75,15.22,2.20
71.00,1.00,287.75,-5.31,-40.69,7.62,-13.31,-3.50,15.22,2.20
71.00,2.00,41.81,-23.38,12.25,13.19,-9.31,-0.88,15.22,2.20
71.00,0.00,297.19,-7.94,-112.19,98.50,-40.06,3.81,17.64,2.22
71.00,1.00,287.81,-5.12,-40.88,9.31,-10.56,-0.12,17.64,2.22
71.00,2.00,41.81,-23.19,12.00,12.25,-11.25,2.50,17.64,2.22
71.00,0.00,298.62,-8.12,-114.00,99.69,-35.19,4.38,20.03,2.24
71.00,1.00,288.00,-4.94,-41.00,8.50,-14.56,-2.44,20.03,2.24
71.00,2.00,41.81,-23.00,11.75,14.38,-12.69,2.25,20.03,2.24
71.00,0.00,300.19,-8.31,-115.94,102.06,-26.62,6.25,22.46,2.26
71.00,1.00,288.12,-4.81,-41.19,8.75,-14.38,-3.19,22.46,2.26
71.00,2.00,41.81,-22.75,11.44,15.38,-13.19,1.69,22.46,2.26
71.00,0.00,301.38,-8.38,-117.81,102.00,-21.25,7.62,24.91,2.28
71.00,1.00,288.31,-4.62,-41.31,8.44,-14.50,-4.00,24.91,2.28
71.00,2.00,41.81,-22.50,11.06,14.62,-13.12,1.38,24.91,2.28
71.00,0.00,302.44,-8.44,-119.75,102.00,-19.19,8.19,27.41,2.30
71.00,1.00,288.50,-4.44,-41.38,4.69,-17.69,-2.44,27.41,2.30
71.00,2.00,41.81,-22.25,10.75,12.69,-14.75,1.50,27.41,2.30
71.00,0.00,303.44,-8.50,-121.62,100.75,-18.38,8.94,29.93,2.32
71.00,1.00,288.62,-4.19,-41.44,4.06,-12.69,0.12,29.93,2.32
71.00,2.00,41.81,-22.00,10.50,10.94,-14.88,4.12,29.93,2.32
71.00,0.00,304.50,-8.56,-123.44,95.94,-17.75,8.75,32.35,2.34
71.00,1.00,288.62,-4.06,-41.56,6.88,-4.50,5.25,32.35,2.34
71.00,2.00,41.69,-21.69,10.25,9.56,-15.12,6.44,32.35,2.34
71.00,0.00,305.50,-8.56,-125.19,90.12,-16.06,8.44,34.70,2.36
71.00,1.00,288.44,-3.94,-41.75,8.44,1.38,10.38,34.70,2.36
71.00,2.00,41.50,-21.44,10.00,5.94,-14.62,14.44,34.70,2.36
71.00,0.00,306.50,-8.62,-126.88,88.69,-15.69,10.62,37.20,2.38
71.00,1.00,288.25,-3.81,-41.94,8.00,-0.38,9.50,37.20,2.38
71.00,2.00,41.00,-21.12,9.69,-0.38,-15.31,16.56,37.20,2.38
71.00,0.00,307.50,-8.62,-128.44,85.00,-18.69,12.62,39.54,2.40
71.00,1.00,288.06,-3.69,-42.06,7.31,-0.81,8.38,39.54,2.40
71.00,2.00,40.88,-21.00,9.62,1.56,-12.88,13.88,39.54,2.40
71.00,0.00,308.62,-8.69,-129.94,80.19,-17.56,11.94,41.64,2.42
71.00,1.00,287.94,-3.62,-42.25,7.94,2.38,10.50,41.64,2.42
71.00,2.00,40.62,-20.81,9.50,5.12,-12.19,9.56,41.64,2.42
71.00,0.00,309.62,-8.69,-131.25,73.06,-15.56,7.44,43.53,2.44
71.00,1.00,287.88,-3.50,-42.38,7.50,-6.81,3.38,43.53,2.44
71.00,2.00,40.44,-20.62,9.31,5.75,-10.38,8.06,43.53,2.44
71.00,0.00,310.81,-8.88,-132.50,66.12,-17.56,2.31,45.14,2.46
71.00,1.00,287.88,-3.38,-42.50,7.50,-7.56,0.94,45.14,2.46
71.00,2.00,40.38,-20.44,9.19,8.69,-9.62,-0.12,45.14,2.46
71.00,0.00,312.19,-9.12,-133.62,60.12,-20.06,0.06,46.56,2.48
71.00,1.00,288.00,-3.25,-42.62,6.62,-10.56,-1.25,46.56,2.48
71.00,2.00,40.50,-20.19,9.12,9.25,-10.12,-3.00,46.56,2.48
71.00,0.00,313.75,-9.44,-134.69,56.81,-22.06,0.62,47.86,2.50
71.00,1.00,288.12,-3.06,-42.75,7.62,-13.25,-2.31,47.86,2.50
71.00,2.00,40.56,-20.12,9.06,10.56,-9.88,-3.75,47.86,2.50
71.00,0.00,315.31,-9.69,-135.69,54.94,-24.19,4.25,49.14,2.52
71.00,1.00,288.31,-2.94,-42.88,6.75,-14.25,-1.94,49.14,2.52
71.00,2.00,40.69,-19.88,8.94,9.25,-8.38,-5.88,49.14,2.52
71.00,0.00,108.12,-9.94,-136.62,49.19,-23.62,7.12,50.27,2.54
71.00,1.00,288.44,-2.75,-43.00,5.75,-13.19,-1.69,50.27,2.54
71.00,2.00,40.81,-19.69,8.75,8.81,-8.62,-6.81,50.27,2.54
71.00,0.00,108.56,-10.19,-137.44,43.44,-23.06,8.31,51.25,2.56
71.00,1.00,288.56,-2.56,-43.12,6.00,-11.44,-1.81,51.25,2.56
71.00,2.00,41.00,-19.50,8.62,8.56,-9.31,-8.31,51.25,2.56
71.00,0.00,109.00,-10.38,-138.12,39.25,-22.12,10.31,52.12,2.58
71.00,1.00,288.69,-2.44,-43.19,5.25,-9.56,-1.00,52.12,2.58
71.00,2.00,41.25,-19.25,8.50,8.19,-9.56,-7.44,52.12,2.58
71.00,0.00,109.31,-10.50,-138.75,34.19,-21.12,12.38,52.88,2.60
71.00,1.00,288.69,-2.38,-43.31,6.62,-4.56,2.00,52.88,2.60
71.00,2.00,41.31,-19.12,8.44,6.94,-10.50,-7.62,52.88,2.60
71.00,0.00,109.81,-10.62,-139.25,32.00,-19.19,14.50,53.54,2.62
71.00,1.00,288.75,-2.25,-43.44,5.81,-7.19,-0.69,53.54,2.62
71.00,2.00,41.44,-18.94,8.31,8.25,-6.81,-6.81,53.54,2.62
71.00,0.00,110.25,-10.69,-139.75,27.00,-16.88,14.44,54.08,2.64
71.00,1.00,288.81,-2.19,-43.50,4.94,-5.38,-0.81,54.08,2.64
71.00,2.00,41.56,-18.75,8.19,7.88,-6.56,-7.31,54.08,2.64
71.00,0.00,110.69,-10.81,-140.12,22.81,-16.75,11.88,54.49,2.66
71.00,1.00,288.88,-2.12,-43.62,6.00,-5.56,-1.62,54.49,2.66
71.00,2.00,41.75,-18.62,8.12,8.31,-5.50,-8.62,54.49,2.66
71.00,0.00,111.00,-10.88,-140.44,18.69,-14.44,10.00,54.74,2.68
71.00,1.00,288.94,-2.06,-43.75,6.94,-1.19,1.75,54.74,2.68
71.00,2.00,42.06,-18.44,8.00,9.81,-5.50,-10.31,54.74,2.68
71.00,0.00,111.31,-11.00,-140.69,16.31,-13.62,8.12,54.94,2.70
71.00,1.00,288.94,-2.06,-43.88,5.50,-4.44,-1.50,54.94,2.70
71.00,2.00,42.19,-18.38,7.94,8.94,-5.94,-9.94,54.94,2.70
71.00,0.00,111.56,-11.06,-140.94,12.56,-10.44,6.31,55.07,2.72
71.00,1.00,289.06,-2.00,-44.00,5.44,-7.38,-2.94,55.07,2.72
71.00,2.00,42.38,-18.25,7.88,8.12,-5.88,-10.12,55.07,2.72
71.00,0.00,111.75,-11.12,-141.06,10.38,-6.25,5.00,55.11,2.74
71.00,1.00,289.19,-1.94,-44.06,4.88,-6.81,-1.62,55.11,2.74
71.00,2.00,42.62,-18.12,7.75,8.88,-5.88,-9.94,55.11,2.74
71.00,0.00,111.81,-11.12,-141.25,7.88,-2.06,4.56,55.13,2.76
71.00,1.00,289.25,-1.81,-44.12,3.00,-8.25,-1.56,55.13,2.76
71.00,2.00,42.81,-18.00,7.62,7.25,-4.81,-8.69,55.13,2.76
71.00,0.00,111.88,-11.06,-141.31,3.00,3.19,2.44,55.11,2.78
71.00,1.00,289.31,-1.69,-44.19,0.38,-6.31,0.12,55.11,2.78
71.00,2.00,43.06,-17.81,7.56,3.69,-6.44,-6.38,55.11,2.78
71.00,0.00,111.81,-10.94,-141.31,-0.38,6.81,1.12,55.02,2.80
71.00,1.00,289.38,-1.56,-44.19,0.25,-8.06,0.31,55.02,2.80
71.00,2.00,43.12,-17.69,7.50,2.75,-7.56,-5.62,55.02,2.80
71.00,0.00,111.81,-10.81,-141.31,-3.69,10.38,2.12,54.81,2.82
71.00,1.00,289.38,-1.50,-44.19,0.62,-6.81,1.31,54.81,2.82
71.00,2.00,43.19,-17.56,7.44,3.94,-6.88,-2.69,54.81,2.82
71.00,0.00,111.75,-10.50,-141.50,-8.44,12.62,2.12,54.47,2.84
71.00,1.00,289.44,-1.38,-44.19,-0.94,-5.94,1.06,54.47,2.84
71.00,2.00,43.25,-17.50,7.38,3.69,-5.56,-2.00,54.47,2.84
71.00,0.00,111.62,-10.25,-141.44,-12.06,13.44,2.12,54.10,2.86
71.00,1.00,289.38,-1.31,-44.12,-2.69,-3.81,2.56,54.10,2.86
71.00,2.00,43.25,-17.38,7.31,1.12,-4.56,-1.00,54.10,2.86
71.00,0.00,111.50,-10.00,-141.19,-14.88,13.62,1.38,53.78,2.88
71.00,1.00,289.31,-1.19,-44.06,-4.12,-0.75,4.88,53.78,2.88
71.00,2.00,43.25,-17.25,7.38,-3.44,-3.38,-0.94,53.78,2.88
71.00,0.00,111.38,-9.81,-140.88,-18.12,13.25,0.12,53.40,2.90
71.00,1.00,289.25,-1.12,-44.00,-4.31,-2.00,4.06,53.40,2.90
71.00,2.00,43.25,-17.25,7.44,-4.75,-2.62,-0.69,53.40,2.90
71.00,0.00,111.25,-9.62,-140.50,-20.44,12.75,-0.25,52.92,2.92
71.00,1.00,289.19,-1.06,-43.94,-4.00,-2.50,3.12,52.92,2.92
71.00,2.00,43.25,-17.19,7.56,-3.31,0.12,-0.56,52.92,2.92
71.00,0.00,111.12,-9.44,-140.06,-22.81,15.25,-1.31,52.37,2.94
71.00,1.00,289.12,-0.94,-43.94,-3.88,0.88,4.56,52.37,2.94
71.00,2.00,43.25,-17.19,7.62,-3.25,-0.69,-0.94,52.37,2.94
71.00,0.00,110.88,-9.19,-139.62,-26.12,19.44,-1.94,51.69,2.96
71.00,1.00,289.06,-0.94,-43.88,-3.75,0.75,3.06,51.69,2.96
71.00,2.00,43.25,-17.19,7.62,-1.81,1.12,-0.81,51.69,2.96
71.00,0.00,110.62,-8.88,-139.25,-30.06,21.56,-3.81,50.90,2.98
71.00,1.00,288.94,-0.88,-43.81,-3.81,1.81,3.25,50.90,2.98
71.00,2.00,43.25,-17.25,7.62,-1.69,1.38,0.19,50.90,2.98
71.00,0.00,110.19,-8.56,-138.81,-33.19,24.56,-7.88,50.06,3.00
71.00,1.00,288.81,-0.81,-43.75,-4.50,4.88,7.25,50.06,3.00
71.00,2.00,43.19,-17.31,7.62,-3.38,0.38,2.25,50.06,3.00
71.00,0.00,109.81,-8.25,-138.50,-32.44,27.06,-9.62,49.30,3.02
71.00,1.00,288.56,-0.81,-43.69,-5.00,6.88,8.31,49.30,3.02
71.00,2.00,43.06,-17.31,7.62,-5.31,-2.44,4.00,49.30,3.02
71.00,0.00,109.38,-7.88,-138.12,-30.19,30.50,-7.38,48.68,3.04
71.00,1.00,288.38,-0.81,-43.62,-5.62,6.44,7.25,48.68,3.04
71.00,2.00,42.94,-17.31,7.69,-8.00,-1.31,6.50,48.68,3.04
71.00,0.00,108.62,-7.56,-137.69,-30.25,32.69,-9.88,48.10,3.06
71.00,1.00,288.19,-0.75,-43.50,-6.62,7.69,7.56,48.10,3.06
71.00,2.00,42.75,-17.38,7.81,-9.56,-0.38,8.06,48.10,3.06
71.00,0.00,108.12,-7.25,-137.25,-27.19,31.19,-13.88,47.63,3.08
71.00,1.00,288.00,-0.75,-43.38,-7.19,7.19,6.56,47.63,3.08
71.00,2.00,42.56,-17.38,8.00,-10.31,0.25,8.44,47.63,3.08
71.00,0.00,107.31,-7.00,-136.81,-24.44,31.94,-14.38,47.25,3.10
71.00,1.00,287.81,-0.81,-43.25,-7.38,7.50,7.50,47.25,3.10
71.00,2.00,42.38,-17.44,8.12,-11.12,1.19,8.81,47.25,3.10
71.00,0.00,106.75,-6.75,-136.56,-21.06,31.81,-13.94,46.99,3.12
71.00,1.00,287.56,-0.81,-43.06,-7.69,7.69,7.88,46.99,3.12
71.00,2.00,42.19,-17.44,8.31,-11.56,0.56,9.94,46.99,3.12
71.00,0.00,106.25,-6.50,-136.31,-17.06,31.88,-13.56,46.85,3.14
71.00,1.00,287.38,-0.81,-42.94,-7.75,7.88,7.81,46.85,3.14
71.00,2.00,41.94,-17.50,8.50,-12.19,-1.12,11.12,46.85,3.14
71.00,0.00,105.50,-6.19,-136.12,-14.38,32.69,-14.19,46.80,3.16
71.00,1.00,287.12,-0.81,-42.81,-7.69,7.75,7.75,46.80,3.16
71.00,2.00,41.62,-17.50,8.69,-12.50,-1.81,11.69,46.80,3.16
71.00,0.00,105.00,-5.94,-136.00,-9.88,30.50,-14.38,46.84,3.18
71.00,1.00,286.94,-0.81,-42.62,-7.88,7.44,7.44,46.84,3.18
71.00,2.00,41.38,-17.50,8.88,-11.19,-2.00,11.75,46.84,3.18
71.00,0.00,104.12,-5.69,-135.94,-8.25,29.69,-13.69,46.88,3.20
71.00,1.00,286.75,-0.81,-42.50,-7.94,7.00,7.31,46.88,3.20
71.00,2.00,41.12,-17.50,9.00,-9.81,-1.88,11.31,46.88,3.20
71.00,0.00,103.62,-5.50,-135.81,-8.94,30.88,-14.31,46.89,3.22
71.00,1.00,286.56,-0.81,-42.31,-7.94,7.56,7.25,46.89,3.22
71.00,2.00,40.88,-17.50,9.12,-9.19,-2.69,11.75,46.89,3.22
71.00,0.00,103.06,-5.25,-135.75,-8.50,30.19,-15.38,46.90,3.24
71.00,1.00,286.38,-0.81,-42.19,-7.94,7.19,7.12,46.90,3.24
71.00,2.00,40.62,-17.50,9.25,-9.06,-3.12,11.81,46.90,3.24
71.00,0.00,102.56,-5.00,-135.69,-5.38,29.62,-12.38,46.98,3.26
71.00,1.00,286.19,-0.88,-42.00,-7.88,7.69,6.75,46.98,3.26
71.00,2.00,40.38,-17.50,9.38,-8.25,-3.19,12.19,46.98,3.26
71.00,0.00,102.12,-4.75,-135.62,-4.00,29.50,-9.00,47.12,3.28
71.00,1.00,285.94,-0.88,-41.88,-8.12,8.25,6.88,47.12,3.28
71.00,2.00,40.12,-17.50,9.44,-9.00,-3.50,11.69,47.12,3.28
71.00,0.00,101.69,-4.50,-135.56,-3.75,27.06,-7.88,47.30,3.30
71.00,1.00,285.75,-0.88,-41.69,-8.12,8.88,7.56,47.30,3.30
71.00,2.00,39.81,-17.44,9.62,-9.88,-3.81,11.94,47.30,3.30
71.00,0.00,101.31,-4.25,-135.56,-4.81,25.44,-8.75,47.41,3.32
71.00,1.00,285.56,-0.94,-41.50,-7.56,9.25,7.62,47.41,3.32
71.00,2.00,39.56,-17.44,9.75,-9.06,-3.12,12.38,47.41,3.32
71.00,0.00,100.88,-4.06,-135.44,-5.69,23.25,-10.00,47.51,3.34
71.00,1.00,285.31,-0.94,-41.38,-7.62,9.69,7.31,47.51,3.34
71.00,2.00,39.31,-17.44,9.88,-9.19,-2.94,12.25,47.51,3.34
71.00,0.00,100.38,-3.88,-135.38,-6.31,20.69,-10.50,47.56,3.36
71.00,1.00,285.12,-1.00,-41.19,-7.56,9.81,7.00,47.56,3.36
71.00,2.00,39.06,-17.44,10.00,-8.12,-2.56,11.88,47.56,3.36
71.00,0.00,100.00,-3.81,-135.25,-6.62,18.50,-10.25,47.60,3.38
71.00,1.00,284.88,-1.06,-41.06,-7.38,10.31,7.12,47.60,3.38
71.00,2.00,38.75,-17.44,10.06,-8.06,-2.62,12.25,47.60,3.38
71.00,0.00,99.50,-3.69,-135.12,-6.00,17.00,-9.75,47.67,3.40
71.00,1.00,284.69,-1.12,-40.88,-7.62,10.06,7.00,47.67,3.40
71.00,2.00,38.50,-17.44,10.19,-8.44,-2.38,12.19,47.67,3.40
71.00,0.00,289.50,-3.62,-135.00,-6.44,15.94,-9.44,47.74,3.42
71.00,1.00,284.50,-1.19,-40.75,-7.12,10.62,6.56,47.74,3.42
71.00,2.00,38.25,-17.44,10.31,-9.00,-1.88,12.06,47.74,3.42
71.00,0.00,288.94,-3.56,-134.81,-7.12,14.25,-9.75,47.80,3.44
71.00,1.00,284.25,-1.25,-40.62,-7.56,10.88,6.19,47.80,3.44
71.00,2.00,38.00,-17.44,10.44,-9.19,-1.38,11.25,47.80,3.44
71.00,0.00,288.44,-3.50,-134.69,-6.75,11.88,-10.00,47.86,3.46
71.00,1.00,284.06,-1.38,-40.50,-7.69,11.19,6.00,47.86,3.46
71.00,2.00,37.75,-17.50,10.56,-8.94,-0.69,10.75,47.86,3.46
71.00,0.00,288.12,-3.50,-134.56,-7.44,10.69,-10.62,47.91,3.48
71.00,1.00,283.88,-1.44,-40.31,-8.06,10.88,6.12,47.91,3.48
71.00,2.00,37.56,-17.50,10.69,-9.00,0.75,10.44,47.91,3.48
71.00,0.00,287.88,-3.56,-134.44,-7.62,8.00,-11.12,47.97,3.50
71.00,1.00,283.69,-1.50,-40.19,-6.75,11.06,6.25,47.97,3.50
71.00,2.00,37.31,-17.56,10.88,-9.94,0.56,10.44,47.97,3.50
71.00,0.00,287.75,-3.62,-134.25,-7.75,7.06,-10.88,48.05,3.52
71.00,1.00,283.56,-1.56,-40.12,-7.38,10.88,5.44,48.05,3.52
71.00,2.00,37.06,-17.62,11.00,-10.44,-0.44,10.88,48.05,3.52
71.00,0.00,287.56,-3.69,-134.12,-8.06,6.81,-10.44,48.09,3.54
71.00,1.00,283.31,-1.69,-39.88,-6.88,11.00,4.81,48.09,3.54
71.00,2.00,36.88,-17.69,11.19,-9.69,1.25,9.69,48.09,3.54
71.00,0.00,287.38,-3.75,-133.94,-8.31,5.31,-9.94,48.11,3.56
71.00,1.00,283.12,-1.81,-39.75,-7.88,10.69,4.94,48.11,3.56
71.00,2.00,36.69,-17.75,11.31,-8.81,2.31,8.81,48.11,3.56
71.00,0.00,287.25,-3.81,-133.81,-8.56,5.25,-9.62,48.13,3.58
71.00,1.00,283.06,-1.88,-39.69,-8.19,10.31,4.88,48.13,3.58
71.00,2.00,36.50,-17.88,11.44,-9.38,2.62,8.31,48.13,3.58
71.00,0.00,287.19,-3.81,-133.75,-8.75,4.94,-9.56,48.16,3.60
71.00,1.00,282.81,-2.00,-39.44,-7.50,10.00,4.38,48.16,3.60
71.00,2.00,36.31,-17.94,11.62,-9.88,2.12,8.44,48.16,3.60
71.00,0.00,286.81,-3.94,-133.44,-8.81,4.25,-9.56,48.18,3.62
71.00,1.00,282.62,-2.06,-39.31,-6.62,9.44,3.62,48.18,3.62
71.00,2.00,36.12,-18.00,11.81,-9.69,0.94,8.06,48.18,3.62
71.00,0.00,286.75,-4.00,-133.31,-8.62,4.00,-9.12,48.18,3.64
71.00,1.00,282.50,-2.19,-39.19,-7.06,9.12,3.19,48.18,3.64
71.00,2.00,35.94,-18.06,11.94,-8.56,1.69,7.06,48.18,3.64
71.00,0.00,286.69,-4.00,-133.25,-8.25,4.31,-8.31,48.17,3.66
71.00,1.00,282.38,-2.31,-39.06,-6.19,9.25,3.06,48.17,3.66
71.00,2.00,35.81,-18.12,12.06,-7.88,2.56,6.62,48.17,3.66
71.00,0.00,286.62,-4.06,-133.06,-7.56,3.88,-7.56,48.19,3.68
71.00,1.00,282.25,-2.38,-38.94,-6.31,8.69,2.25,48.19,3.68
71.00,2.00,35.62,-18.25,12.19,-8.31,2.00,6.19,48.19,3.68
71.00,0.00,286.50,-4.12,-132.94,-6.69,3.69,-7.12,48.23,3.70
71.00,1.00,282.19,-2.50,-38.81,-5.81,8.00,1.75,48.23,3.70
71.00,2.00,35.50,-18.31,12.38,-7.88,1.62,5.94,48.23,3.70
71.00,0.00,286.38,-4.12,-132.81,-4.69,3.44,-6.19,48.28,3.72
71.00,1.00,282.12,-2.56,-38.81,-5.06,7.69,2.06,48.28,3.72
71.00,2.00,35.38,-18.38,12.50,-6.75,1.88,5.12,48.28,3.72
71.00,0.00,286.31,-4.19,-132.75,-4.56,3.25,-5.31,48.32,3.74
71.00,1.00,282.00,-2.69,-38.62,-4.31,7.19,1.56,48.32,3.74
71.00,2.00,35.31,-18.44,12.56,-5.88,1.81,4.81,48.32,3.74
71.00,0.00,286.12,-4.19,-132.69,-4.31,3.69,-4.62,48.37,3.76
71.00,1.00,281.94,-2.75,-38.62,-3.81,7.19,1.44,48.37,3.76
71.00,2.00,35.19,-18.50,12.69,-6.19,0.44,4.94,48.37,3.76
71.00,0.00,286.00,-4.19,-132.62,-3.69,3.06,-3.88,48.42,3.78
71.00,1.00,281.88,-2.81,-38.56,-3.81,6.50,1.19,48.42,3.78
71.00,2.00,35.06,-18.50,12.81,-5.50,-0.12,4.75,48.42,3.78
71.00,0.00,285.94,-4.19,-132.56,-2.94,3.00,-3.62,48.50,3.80
71.00,1.00,281.81,-2.94,-38.44,-4.56,5.69,1.12,48.50,3.80
71.00,2.00,34.94,-18.56,12.88,-5.75,0.06,4.75,48.50,3.80
71.00,0.00,285.81,-4.25,-132.50,-1.44,2.50,-2.56,48.61,3.82
71.00,1.00,281.75,-3.00,-38.31,-4.00,6.12,1.50,48.61,3.82
71.00,2.00,34.88,-18.56,13.00,-5.19,0.38,4.44,48.61,3.82
71.00,0.00,285.75,-4.25,-132.50,-1.19,1.81,-1.94,48.70,3.84
71.00,1.00,281.69,-3.12,-38.25,-3.62,6.50,1.06,48.70,3.84
71.00,2.00,34.75,-18.62,13.06,-4.56,1.12,4.19,48.70,3.84
71.00,0.00,285.69,-4.25,-132.50,-1.00,1.31,-1.62,48.80,3.86
71.00,1.00,281.62,-3.12,-38.25,-3.75,6.50,0.81,48.80,3.86
71.00,2.00,34.62,-18.62,13.12,-4.62,0.69,4.38,48.80,3.86
71.00,0.00,285.62,-4.25,-132.44,-0.56,0.88,-1.69,48.93,3.88
71.00,1.00,281.50,-3.25,-38.12,-4.50,6.25,1.19,48.93,3.88
71.00,2.00,34.56,-18.69,13.19,-5.00,0.50,4.69,48.93,3.88
71.00,0.00,285.62,-4.25,-132.44,-0.31,0.75,-1.81,49.05,3.90
71.00,1.00,281.50,-3.31,-38.06,-4.94,6.38,1.44,49.05,3.90
71.00,2.00,34.44,-18.75,13.25,-4.62,0.88,4.56,49.05,3.90
71.00,0.00,285.69,-4.25,-132.44,0.06,-0.44,-1.75,49.20,3.92
71.00,1.00,281.38,-3.44,-37.94,-4.12,6.75,0.75,49.20,3.92
71.00,2.00,34.31,-18.75,13.38,-5.12,0.69,4.69,49.20,3.92
71.00,0.00,285.75,-4.31,-132.44,-0.31,-1.06,-1.56,49.31,3.94
71.00,1.00,281.31,-3.56,-37.81,-4.12,6.62,1.12,49.31,3.94
71.00,2.00,34.25,-18.81,13.44,-4.50,1.50,4.25,49.31,3.94
71.00,0.00,285.81,-4.38,-132.38,-0.75,-1.19,-1.50,49.42,3.96
71.00,1.00,281.31,-3.62,-37.81,-3.38,6.44,0.62,49.42,3.96
71.00,2.00,34.12,-18.88,13.56,-4.56,1.44,3.88,49.42,3.96
71.00,0.00,285.88,-4.38,-132.38,-1.50,-1.44,-2.06,49.51,3.98
71.00,1.00,281.25,-3.69,-37.69,-3.31,6.25,0.81,49.51,3.98
71.00,2.00,34.06,-18.94,13.62,-4.81,1.25,4.25,49.51,3.98
71.00,0.00,286.00,-4.44,-132.31,-1.38,-1.56,-2.50,49.60,4.00
71.00,1.00,281.19,-3.81,-37.62,-3.12,6.31,0.56,49.60,4.00
71.00,2.00,33.94,-19.00,13.69,-4.50,1.00,4.19,49.60,4.00
71.00,0.00,286.12,-4.50,-132.25,-1.56,-1.62,-2.94,49.67,4.02
71.00,1.00,281.12,-3.94,-37.56,-2.94,6.12,0.56,49.67,4.02
71.00,2.00,33.88,-19.06,13.81,-4.06,1.75,3.81,49.67,4.02
71.00,0.00,286.25,-4.56,-132.19,-1.44,-1.62,-3.31,49.76,4.04
71.00,1.00,281.06,-4.00,-37.44,-3.56,5.69,0.88,49.76,4.04
71.00,2.00,33.81,-19.12,13.88,-4.56,1.56,4.00,49.76,4.04
71.00,0.00,286.31,-4.62,-132.19,-1.69,-1.44,-3.12,49.84,4.06
71.00,1.00,281.06,-4.06,-37.44,-3.75,5.25,0.38,49.84,4.06
71.00,2.00,33.69,-19.19,14.00,-4.69,1.31,3.62,49.84,4.06
71.00,0.00,286.44,-4.69,-132.12,-1.75,-1.19,-3.19,49.93,4.08
71.00,1.00,281.00,-4.12,-37.38,-3.50,4.56,0.19,49.93,4.08
71.00,2.00,33.62,-19.25,14.06,-4.81,0.81,3.19,49.93,4.08
71.00,0.00,286.50,-4.75,-132.06,-1.50,-0.81,-3.31,50.00,4.10
71.00,1.00,281.00,-4.25,-37.25,-3.06,4.25,0.12,50.00,4.10
71.00,2.00,33.56,-19.25,14.19,-4.06,1.25,3.06,50.00,4.10
71.00,0.00,286.50,-4.81,-132.06,-1.69,-0.75,-3.62,50.05,4.12
71.00,1.00,280.94,-4.31,-37.19,-2.69,4.44,0.44,50.05,4.12
71.00,2.00,33.50,-19.31,14.25,-3.38,1.75,2.88,50.05,4.12
71.00,0.00,286.56,-4.88,-132.00,-1.75,-0.25,-3.19,50.10,4.14
71.00,1.00,280.94,-4.38,-37.12,-2.56,4.31,0.25,50.10,4.14
71.00,2.00,33.44,-19.38,14.31,-3.81,1.19,2.81,50.10,4.14
71.00,0.00,286.56,-4.88,-131.94,-2.06,0.56,-2.81,50.15,4.16
71.00,1.00,280.88,-4.44,-37.06,-2.69,4.12,0.12,50.15,4.16
71.00,2.00,33.38,-19.44,14.38,-3.62,1.00,2.69,50.15,4.16
71.00,0.00,286.62,-4.94,-131.88,-2.19,0.44,-3.12,50.17,4.18
71.00,1.00,280.88,-4.50,-37.00,-2.25,3.81,0.19,50.17,4.18
71.00,2.00,33.31,-19.50,14.50,-2.94,1.25,2.69,50.17,4.18
71.00,0.00,286.69,-5.00,-131.88,-1.94,0.38,-2.94,50.20,4.20
71.00,1.00,280.88,-4.56,-36.94,-2.25,3.62,0.31,50.20,4.20
71.00,2.00,33.25,-19.50,14.56,-3.00,1.00,2.44,50.20,4.20
71.00,0.00,286.56,-5.00,-131.81,-1.81,0.12,-2.38,50.23,4.22
71.00,1.00,280.81,-4.62,-36.94,-2.56,3.06,0.44,50.23,4.22
71.00,2.00,33.19,-19.56,14.56,-2.81,0.44,2.38,50.23,4.22
71.00,0.00,286.56,-5.06,-131.75,-2.06,-0.12,-2.31,50.25,4.24
71.00,1.00,280.81,-4.69,-36.88,-2.62,3.06,0.62,50.25,4.24
71.00,2.00,33.12,-19.56,14.62,-2.81,0.44,2.38,50.25,4.24
71.00,0.00,286.56,-5.06,-131.75,-1.88,0.00,-2.12,50.25,4.26
71.00,1.00,280.75,-4.75,-36.81,-2.62,3.00,0.88,50.25,4.26
71.00,2.00,33.12,-19.62,14.69,-2.12,0.75,2.31,50.25,4.26
71.00,0.00,286.62,-5.12,-131.69,-1.88,0.19,-1.88,50.28,4.28
71.00,1.00,280.75,-4.75,-36.75,-2.06,2.81,1.12,50.28,4.28
71.00,2.00,33.06,-19.62,14.75,-2.69,0.06,2.44,50.28,4.28
71.00,0.00,286.62,-5.12,-131.62,-1.75,-0.19,-1.75,50.28,4.30
71.00,1.00,280.69,-4.81,-36.69,-2.06,2.75,1.12,50.28,4.30
71.00,2.00,33.00,-19.69,14.75,-1.75,0.62,2.25,50.28,4.30
71.00,0.00,286.62,-5.12,-131.62,-1.62,0.06,-1.75,50.29,4.32
71.00,1.00,280.62,-4.81,-36.69,-1.94,2.50,1.00,50.29,4.32
71.00,2.00,32.94,-19.69,14.81,-2.00,0.25,2.44,50.29,4.32
71.00,0.00,286.62,-5.19,-131.56,-1.31,0.38,-1.50,50.31,4.34
71.00,1.00,280.62,-4.88,-36.62,-1.69,2.38,1.00,50.31,4.34
71.00,2.00,32.88,-19.69,14.81,-2.06,-0.38,2.56,50.31,4.34
71.00,0.00,286.75,-5.19,-131.56,-0.94,0.44,-1.25,50.34,4.36
71.00,1.00,280.56,-4.88,-36.62,-1.94,2.31,0.94,50.34,4.36
71.00,2.00,32.81,-19.75,14.88,-1.88,-0.19,2.56,50.34,4.36
71.00,0.00,286.75,-5.19,-131.56,-0.56,0.56,-1.12,50.37,4.38
71.00,1.00,280.56,-4.94,-36.56,-2.00,2.19,0.94,50.37,4.38
71.00,2.00,32.75,-19.75,14.88,-1.69,0.00,2.25,50.37,4.38
71.00,0.00,286.75,-5.19,-131.56,-0.56,0.31,-1.00,50.40,4.40
71.00,1.00,280.50,-4.94,-36.50,-2.12,1.88,0.94,50.40,4.40
71.00,2.00,32.75,-19.75,14.88,-1.69,-0.12,2.38,50.40,4.40
71.00,0.00,286.75,-5.25,-131.56,-0.38,0.31,-0.75,50.43,4.42
71.00,1.00,280.44,-4.94,-36.50,-1.75,2.19,1.44,50.43,4.42
71.00,2.00,32.69,-19.81,14.94,-1.69,-0.31,2.62,50.43,4.42
71.00,0.00,286.75,-5.25,-131.56,-0.62,0.31,-0.94,50.46,4.44
71.00,1.00,280.44,-5.00,-36.50,-1.00,2.12,1.25,50.46,4.44
71.00,2.00,32.62,-19.81,14.94,-1.50,-0.62,2.38,50.46,4.44
71.00,0.00,286.75,-5.25,-131.56,-0.81,0.06,-0.56,50.49,4.46
71.00,1.00,280.38,-5.00,-36.44,-0.94,2.00,1.38,50.49,4.46
71.00,2.00,32.56,-19.81,14.94,-1.94,-1.12,2.81,50.49,4.46
71.00,0.00,286.75,-5.25,-131.50,-0.88,0.38,-0.56,50.50,4.48
71.00,1.00,280.38,-5.00,-36.44,-1.19,1.81,1.31,50.50,4.48
71.00,2.00,32.50,-19.81,15.00,-1.38,-0.81,2.94,50.50,4.48
71.00,0.00,286.75,-5.25,-131.50,-1.00,0.38,-0.62,50.50,4.50
71.00,1.00,280.31,-5.00,-36.44,-0.81,1.44,1.19,50.50,4.50
71.00,2.00,32.44,-19.81,15.00,-1.00,-0.62,2.62,50.50,4.50
71.00,0.00,286.75,-5.25,-131.50,-0.44,0.38,-0.81,50.51,4.52
71.00,1.00,280.31,-5.00,-36.44,-0.94,1.81,1.06,50.51,4.52
71.00,2.00,32.38,-19.81,15.00,-0.62,-0.19,2.06,50.51,4.52
71.00,0.00,286.75,-5.25,-131.44,-0.44,0.50,-0.56,50.52,4.54
71.00,1.00,280.25,-5.06,-36.38,-0.94,1.94,1.12,50.52,4.54
71.00,2.00,32.31,-19.88,15.00,-0.75,-0.31,2.62,50.52,4.54
71.00,0.00,286.69,-5.25,-131.44,-0.69,0.50,-0.19,50.53,4.56
71.00,1.00,280.19,-5.06,-36.38,-1.12,2.00,1.19,50.53,4.56
71.00,2.00,32.25,-19.88,15.00,-1.12,-0.56,2.69,50.53,4.56
71.00,0.00,286.62,-5.25,-131.44,-0.31,1.12,0.00,50.55,4.58
71.00,1.00,280.19,-5.06,-36.38,-1.31,1.50,0.94,50.55,4.58
71.00,2.00,32.25,-19.88,15.00,-1.12,-1.00,2.69,50.55,4.58
71.00,0.00,286.62,-5.19,-131.44,0.12,0.62,-0.31,50.57,4.60
71.00,1.00,280.12,-5.06,-36.31,-1.44,1.50,0.75,50.57,4.60
71.00,2.00,32.19,-19.88,15.00,-0.62,-0.81,2.12,50.57,4.60
71.00,0.00,286.81,-5.19,-131.44,1.81,-0.75,1.12,50.65,4.62
71.00,1.00,280.12,-5.12,-36.31,-0.75,1.75,1.31,50.65,4.62
71.00,2.00,32.12,-19.88,15.00,-0.69,-1.12,1.81,50.65,4.62
71.00,0.00,286.75,-5.19,-131.50,0.94,-0.50,1.06,50.69,4.64
71.00,1.00,280.06,-5.12,-36.31,-0.88,1.31,1.19,50.69,4.64
71.00,2.00,32.06,-19.88,15.00,-0.69,-0.94,1.88,50.69,4.64
71.00,0.00,286.81,-5.19,-131.50,0.62,-1.06,0.38,50.72,4.66
71.00,1.00,280.06,-5.12,-36.31,-1.06,1.12,0.50,50.72,4.66
71.00,2.00,32.06,-19.88,15.00,-0.25,-0.12,1.81,50.72,4.66
71.00,0.00,286.88,-5.19,-131.44,0.31,-1.44,0.06,50.73,4.68
71.00,1.00,280.06,-5.12,-36.25,-0.94,0.88,1.00,50.73,4.68
71.00,2.00,32.00,-19.88,15.00,-0.12,-0.75,1.88,50.73,4.68
71.00,0.00,286.88,-5.25,-131.44,0.69,-1.25,0.12,50.75,4.70
71.00,1.00,280.00,-5.12,-36.25,-0.62,0.69,0.94,50.75,4.70
71.00,2.00,32.00,-19.88,15.00,-0.12,-1.19,1.62,50.75,4.70
71.00,0.00,286.94,-5.25,-131.44,0.69,-1.12,0.38,50.77,4.72
71.00,1.00,280.00,-5.12,-36.25,-0.12,0.62,0.88,50.77,4.72
71.00,2.00,31.94,-19.88,15.00,0.00,-1.44,1.50,50.77,4.72
71.00,0.00,286.94,-5.25,-131.44,0.50,-0.25,0.06,50.78,4.74
71.00,1.00,280.00,-5.12,-36.25,-0.38,-0.06,0.81,50.78,4.74
71.00,2.00,31.94,-19.88,15.00,0.00,-1.31,1.00,50.78,4.74
71.00,0.00,286.88,-5.19,-131.44,0.38,-0.19,-0.19,50.80,4.76
71.00,1.00,279.94,-5.12,-36.25,-0.19,0.31,1.00,50.80,4.76
71.00,2.00,31.94,-19.88,15.00,-0.06,-1.12,0.56,50.80,4.76
71.00,0.00,286.88,-5.19,-131.44,0.44,0.00,-0.25,50.82,4.78
71.00,1.00,279.94,-5.06,-36.25,-0.31,0.00,1.12,50.82,4.78
71.00,2.00,31.88,-19.88,15.06,-0.56,-1.31,0.69,50.82,4.78
71.00,0.00,286.88,-5.19,-131.44,-0.50,0.00,-0.25,50.82,4.80
71.00,1.00,279.94,-5.06,-36.25,-0.38,-0.31,0.75,50.82,4.80
71.00,2.00,31.88,-19.81,15.06,-0.38,-1.38,0.56,50.82,4.80
71.00,0.00,286.88,-5.19,-131.38,-0.25,0.38,-0.38,50.82,4.82
71.00,1.00,279.94,-5.06,-36.25,0.06,-0.44,0.44,50.82,4.82
71.00,2.00,31.88,-19.81,15.06,-0.12,-1.31,0.50,50.82,4.82
71.00,0.00,286.88,-5.19,-131.38,-0.50,0.50,-0.25,50.81,4.84
71.00,1.00,279.94,-5.06,-36.25,0.25,-0.38,0.69,50.81,4.84
71.00,2.00,31.88,-19.81,15.06,-0.12,-0.94,0.50,50.81,4.84
71.00,0.00,286.81,-5.19,-131.38,-0.31,0.75,-0.19,50.79,4.86
71.00,1.00,279.88,-5.06,-36.25,-0.12,-0.38,0.75,50.79,4.86
71.00,2.00,31.88,-19.81,15.06,0.12,-0.94,0.25,50.79,4.86
71.00,0.00,286.81,-5.19,-131.38,0.06,0.62,0.06,50.80,4.88
71.00,1.00,279.88,-5.06,-36.25,0.31,-0.44,0.00,50.80,4.88
71.00,2.00,31.88,-19.81,15.06,0.00,-1.31,0.25,50.80,4.88
71.00,0.00,286.81,-5.19,-131.38,0.12,0.00,0.19,50.80,4.90
71.00,1.00,279.88,-5.06,-36.31,0.75,-0.19,0.25,50.80,4.90
71.00,2.00,31.88,-19.75,15.12,0.00,-1.25,0.12,50.80,4.90
71.00,0.00,286.81,-5.19,-131.38,0.75,-0.25,0.12,50.80,4.92
71.00,1.00,279.88,-5.06,-36.31,0.31,-0.69,-0.31,50.80,4.92
71.00,2.00,31.88,-19.75,15.12,0.75,-0.56,0.00,50.80,4.92
71.00,0.00,286.81,-5.19,-131.44,0.81,-0.62,-0.06,50.79,4.94
71.00,1.00,279.88,-5.06,-36.31,0.44,-0.69,-0.31,50.79,4.94
71.00,2.00,31.88,-19.75,15.12,1.12,-0.31,0.00,50.79,4.94
71.00,0.00,286.81,-5.19,-131.44,0.81,-0.88,0.12,50.79,4.96
71.00,1.00,279.94,-5.00,-36.31,0.75,-0.88,-0.31,50.79,4.96
71.00,2.00,31.88,-19.75,15.06,0.69,-1.00,-0.12,50.79,4.96
71.00,0.00,286.88,-5.19,-131.44,1.00,-0.81,0.38,50.79,4.98
71.00,1.00,279.94,-5.00,-36.31,0.81,-0.88,-0.50,50.79,4.98
71.00,2.00,31.88,-19.75,15.06,1.00,-0.94,-0.38,50.79,4.98
71.00,0.00,286.94,-5.19,-131.44,1.06,-0.81,0.38,50.79,5.00
71.00,1.00,279.94,-5.00,-36.31,1.12,-1.31,-0.56,50.79,5.00
71.00,2.00,31.88,-19.75,15.06,1.25,-0.75,-0.44,50.79,5.00
71.00,0.00,286.88,-5.19,-131.50,1.38,-0.38,0.56,50.80,5.02
71.00,1.00,279.94,-5.00,-36.38,0.81,-0.88,-0.56,50.80,5.02
71.00,2.00,31.88,-19.75,15.06,1.06,-0.62,-0.56,50.80,5.02
71.00,0.00,286.88,-5.19,-131.50,1.50,0.44,0.75,50.82,5.04
71.00,1.00,279.94,-5.00,-36.38,0.75,-0.75,-0.38,50.82,5.04
71.00,2.00,31.88,-19.75,15.06,0.75,-1.00,-0.44,50.82,5.04
71.00,0.00,286.81,-5.19,-131.50,1.44,0.81,0.75,50.84,5.06
71.00,1.00,280.00,-5.00,-36.38,1.06,-0.94,-0.62,50.84,5.06
71.00,2.00,31.88,-19.69,15.06,0.56,-1.50,-0.31,50.84,5.06
