Iteration,IMUNo,OrientationX (deg),OrientationY,OrientationZ,GyroX (20rad/sec),GyroY,GyroZ,Elbow_Pos (rad),Time (sec)
74.00,0.00,285.81,-5.00,-99.62,0.06,0.38,0.38,0.00,1.00
74.00,1.00,288.00,-3.88,-38.00,1.06,0.19,-0.38,0.00,1.02
74.00,2.00,36.69,-21.44,15.44,0.06,0.25,0.19,0.00,1.02
74.00,0.00,285.81,-5.00,-99.62,-0.44,0.56,0.31,-0.01,1.02
74.00,1.00,288.00,-3.88,-38.00,0.94,0.56,-0.62,-0.01,1.04
74.00,2.00,36.69,-21.44,15.44,-0.25,0.19,0.50,-0.01,1.04
74.00,0.00,285.81,-5.00,-99.62,-0.81,-0.31,0.31,-0.01,1.04
74.00,1.00,288.00,-3.88,-38.00,1.12,0.75,-0.56,-0.01,1.06
74.00,2.00,36.69,-21.44,15.44,-0.50,-0.06,0.38,-0.01,1.06
74.00,0.00,285.81,-5.00,-99.62,-0.75,-0.81,-0.06,-0.02,1.06
74.00,1.00,288.00,-3.94,-38.06,0.88,0.81,-0.44,-0.02,1.08
74.00,2.00,36.69,-21.50,15.44,-0.56,-0.25,0.44,-0.02,1.08
74.00,0.00,285.81,-5.00,-99.62,-1.00,-1.19,-0.12,-0.03,1.08
74.00,1.00,288.00,-3.94,-38.06,0.69,0.50,-0.44,-0.03,1.08
74.00,2.00,36.69,-21.50,15.50,-0.50,-0.38,0.25,-0.03,1.08
74.00,0.00,285.81,-5.00,-99.56,-1.00,-1.12,-0.38,-0.06,1.10
74.00,1.00,288.00,-3.94,-38.06,0.50,0.38,-0.50,-0.06,1.10
74.00,2.00,36.69,-21.50,15.50,-0.19,-0.19,0.31,-0.06,1.10
74.00,0.00,285.81,-5.00,-99.56,-1.12,-0.62,-0.56,-0.10,1.12
74.00,1.00,288.00,-3.94,-38.06,0.38,0.38,-0.50,-0.10,1.12
74.00,2.00,36.69,-21.50,15.50,0.19,-0.31,0.19,-0.10,1.12
74.00,0.00,285.81,-5.00,-99.56,-1.06,-0.06,-0.44,-0.13,1.14
74.00,1.00,288.00,-3.94,-38.06,0.00,0.75,-0.38,-0.13,1.14
74.00,2.00,36.69,-21.50,15.50,0.00,-0.31,0.25,-0.13,1.14
74.00,0.00,285.81,-5.00,-99.50,-1.31,0.12,-0.75,-0.17,1.16
74.00,1.00,288.00,-3.94,-38.06,-0.06,1.19,-0.50,-0.17,1.16
74.00,2.00,36.69,-21.50,15.50,0.00,-0.25,0.31,-0.17,1.16
74.00,0.00,285.88,-5.00,-99.50,-0.88,-0.56,-0.69,-0.19,1.18
74.00,1.00,288.00,-4.00,-38.06,-0.12,1.50,-0.69,-0.19,1.18
74.00,2.00,36.69,-21.50,15.50,-0.06,0.12,0.25,-0.19,1.18
74.00,0.00,285.88,-5.00,-99.50,-0.81,-1.00,-0.88,-0.21,1.20
74.00,1.00,288.00,-4.00,-38.06,-0.94,1.44,-0.81,-0.21,1.20
74.00,2.00,36.69,-21.50,15.50,-0.19,-0.06,0.25,-0.21,1.20
74.00,0.00,285.94,-5.00,-99.44,-0.75,-1.56,-1.06,-0.24,1.22
74.00,1.00,288.00,-4.06,-38.00,-0.88,1.31,-1.12,-0.24,1.22
74.00,2.00,36.69,-21.50,15.50,0.25,0.38,0.19,-0.24,1.22
74.00,0.00,285.94,-5.06,-99.44,-0.44,-1.81,-1.06,-0.27,1.24
74.00,1.00,288.00,-4.06,-38.00,-0.69,1.31,-1.25,-0.27,1.24
74.00,2.00,36.69,-21.50,15.56,0.56,0.25,-0.19,-0.27,1.24
74.00,0.00,286.00,-5.06,-99.44,-0.25,-1.44,-1.00,-0.30,1.26
74.00,1.00,288.00,-4.12,-38.00,-0.38,1.12,-1.25,-0.30,1.26
74.00,2.00,36.75,-21.50,15.56,1.06,0.50,-0.38,-0.30,1.26
74.00,0.00,286.06,-5.06,-99.44,-0.44,-1.31,-1.06,-0.36,1.28
74.00,1.00,288.06,-4.12,-38.00,-0.06,0.75,-1.38,-0.36,1.28
74.00,2.00,36.75,-21.56,15.56,1.31,0.81,-0.94,-0.36,1.28
74.00,0.00,286.12,-5.12,-99.44,-0.38,-1.31,-1.19,-0.41,1.30
74.00,1.00,288.06,-4.12,-38.00,0.06,-0.19,-1.00,-0.41,1.30
74.00,2.00,36.75,-21.56,15.56,1.62,0.75,-0.88,-0.41,1.30
74.00,0.00,286.19,-5.12,-99.44,-0.38,-1.88,-1.19,-0.49,1.32
74.00,1.00,288.12,-4.19,-38.00,0.31,-0.62,-1.19,-0.49,1.32
74.00,2.00,36.81,-21.56,15.56,2.19,1.12,-1.12,-0.49,1.32
74.00,0.00,286.25,-5.19,-99.44,-0.31,-2.00,-1.38,-0.56,1.34
74.00,1.00,288.12,-4.19,-38.00,0.50,-0.56,-0.94,-0.56,1.34
74.00,2.00,36.81,-21.62,15.56,2.06,1.06,-0.88,-0.56,1.34
74.00,0.00,286.31,-5.19,-99.44,-0.75,-2.00,-1.56,-0.64,1.36
74.00,1.00,288.12,-4.19,-38.00,0.69,0.06,-0.69,-0.64,1.36
74.00,2.00,36.88,-21.62,15.50,2.19,0.94,-0.44,-0.64,1.36
74.00,0.00,286.38,-5.19,-99.44,-0.75,-2.00,-1.31,-0.72,1.38
74.00,1.00,288.12,-4.19,-38.00,0.25,0.31,-0.50,-0.72,1.38
74.00,2.00,36.88,-21.62,15.50,1.88,1.12,-0.12,-0.72,1.38
74.00,0.00,286.44,-5.25,-99.44,-0.56,-1.62,-1.44,-0.79,1.40
74.00,1.00,288.12,-4.19,-38.00,0.00,0.44,-0.06,-0.79,1.40
74.00,2.00,36.88,-21.69,15.44,1.62,1.50,0.19,-0.79,1.40
74.00,0.00,286.44,-5.25,-99.38,-0.50,-0.75,-1.25,-0.84,1.42
74.00,1.00,288.12,-4.19,-38.00,-0.06,0.00,0.12,-0.84,1.42
74.00,2.00,36.88,-21.69,15.44,1.44,1.50,0.25,-0.84,1.42
74.00,0.00,286.50,-5.31,-99.38,0.00,-0.56,-0.81,-0.91,1.44
74.00,1.00,288.12,-4.19,-37.94,-0.19,-0.19,-0.06,-0.91,1.44
74.00,2.00,36.88,-21.75,15.44,2.25,1.50,-0.06,-0.91,1.44
74.00,0.00,286.50,-5.31,-99.38,-0.44,-0.25,-0.69,-1.00,1.46
74.00,1.00,288.12,-4.19,-37.94,0.44,-0.38,0.25,-1.00,1.46
74.00,2.00,36.94,-21.81,15.38,2.81,1.12,0.31,-1.00,1.46
74.00,0.00,286.50,-5.31,-99.38,-0.31,-0.25,-0.62,-1.08,1.48
74.00,1.00,288.12,-4.19,-37.94,0.25,0.25,1.19,-1.08,1.48
74.00,2.00,36.94,-21.81,15.38,2.19,1.50,0.56,-1.08,1.48
74.00,0.00,286.50,-5.31,-99.38,-0.25,-0.12,-0.31,-1.14,1.50
74.00,1.00,288.12,-4.19,-37.94,0.38,-0.50,1.62,-1.14,1.50
74.00,2.00,36.94,-21.88,15.31,1.88,0.88,0.62,-1.14,1.50
74.00,0.00,286.50,-5.31,-99.38,0.25,-0.75,0.31,-1.20,1.52
74.00,1.00,288.06,-4.19,-37.94,0.31,-0.69,1.19,-1.20,1.52
74.00,2.00,36.94,-21.88,15.31,2.56,1.75,0.06,-1.20,1.52
74.00,0.00,286.50,-5.31,-99.38,0.69,-1.12,1.06,-1.27,1.54
74.00,1.00,288.06,-4.12,-37.94,0.62,-0.94,1.50,-1.27,1.54
74.00,2.00,36.94,-21.94,15.25,2.81,1.81,-0.31,-1.27,1.54
74.00,0.00,286.50,-5.25,-99.44,0.81,-1.94,1.62,-1.32,1.56
74.00,1.00,288.06,-4.12,-38.00,0.81,-1.00,1.69,-1.32,1.56
74.00,2.00,36.94,-22.00,15.25,2.56,2.00,0.00,-1.32,1.56
74.00,0.00,286.56,-5.25,-99.44,0.81,-2.19,1.44,-1.36,1.58
74.00,1.00,288.00,-4.06,-38.00,0.62,-1.00,2.06,-1.36,1.58
74.00,2.00,37.00,-22.06,15.19,2.38,2.50,0.19,-1.36,1.58
74.00,0.00,286.56,-5.25,-99.44,1.00,-2.62,1.31,-1.40,1.60
74.00,1.00,288.00,-4.06,-38.00,0.38,-0.69,2.19,-1.40,1.60
74.00,2.00,37.00,-22.12,15.19,2.31,1.56,0.94,-1.40,1.60
74.00,0.00,286.62,-5.25,-99.44,0.75,-3.88,0.81,-1.45,1.62
74.00,1.00,287.94,-4.00,-38.00,-0.12,-1.12,2.38,-1.45,1.62
74.00,2.00,37.00,-22.19,15.12,2.38,1.12,1.06,-1.45,1.62
74.00,0.00,286.75,-5.25,-99.44,0.88,-4.69,0.25,-1.49,1.64
74.00,1.00,287.88,-3.94,-38.00,0.06,-0.81,3.31,-1.49,1.64
74.00,2.00,36.94,-22.19,15.06,2.38,0.06,1.25,-1.49,1.64
74.00,0.00,286.88,-5.25,-99.50,0.62,-5.56,0.25,-1.54,1.66
74.00,1.00,287.81,-3.94,-38.00,0.31,-1.06,3.94,-1.54,1.66
74.00,2.00,36.94,-22.19,15.06,2.25,-0.75,1.62,-1.54,1.66
74.00,0.00,287.00,-5.31,-99.50,0.50,-5.69,0.19,-1.59,1.68
74.00,1.00,287.75,-3.88,-38.00,0.38,-1.00,4.12,-1.59,1.68
74.00,2.00,36.94,-22.25,15.00,2.31,-0.88,1.62,-1.59,1.68
74.00,0.00,287.12,-5.31,-99.44,0.12,-4.94,0.50,-1.64,1.70
74.00,1.00,287.69,-3.81,-38.00,0.62,-0.44,4.56,-1.64,1.70
74.00,2.00,36.88,-22.25,14.94,1.81,-1.62,2.12,-1.64,1.70
74.00,0.00,287.25,-5.31,-99.44,-0.12,-4.06,0.88,-1.69,1.72
74.00,1.00,287.56,-3.75,-38.00,1.25,0.19,6.12,-1.69,1.72
74.00,2.00,36.81,-22.19,14.94,1.31,-3.31,3.00,-1.69,1.72
74.00,0.00,287.25,-5.31,-99.44,-0.38,-3.25,1.75,-1.74,1.74
74.00,1.00,287.50,-3.69,-38.06,2.31,-1.00,5.38,-1.74,1.74
74.00,2.00,36.81,-22.19,14.94,1.44,-4.25,3.62,-1.74,1.74
74.00,0.00,287.25,-5.25,-99.44,-0.50,-1.69,2.62,-1.78,1.76
74.00,1.00,287.38,-3.62,-38.12,2.94,-0.94,5.62,-1.78,1.76
74.00,2.00,36.69,-22.12,14.88,0.81,-3.81,2.81,-1.78,1.76
74.00,0.00,287.19,-5.19,-99.44,-0.50,-0.56,3.94,-1.79,1.78
74.00,1.00,287.25,-3.56,-38.19,3.31,-0.94,5.69,-1.79,1.78
74.00,2.00,36.62,-22.12,14.88,-0.19,-3.38,2.44,-1.79,1.78
74.00,0.00,287.06,-5.06,-99.44,0.25,0.75,5.12,-1.74,1.80
74.00,1.00,287.19,-3.50,-38.25,3.81,-1.12,6.06,-1.74,1.80
74.00,2.00,36.56,-22.12,14.88,-1.38,-3.88,2.44,-1.74,1.80
74.00,0.00,286.94,-4.94,-99.44,1.62,0.25,6.44,-1.67,1.82
74.00,1.00,287.06,-3.38,-38.31,4.50,-1.12,6.50,-1.67,1.82
74.00,2.00,36.50,-22.06,14.94,-0.62,-4.62,2.00,-1.67,1.82
74.00,0.00,286.81,-4.81,-99.50,3.50,-0.88,7.06,-1.56,1.84
74.00,1.00,286.94,-3.31,-38.44,5.25,-1.25,6.19,-1.56,1.84
74.00,2.00,36.50,-22.00,15.00,-0.44,-4.88,0.62,-1.56,1.84
74.00,0.00,286.75,-4.69,-99.62,5.31,-3.19,7.19,-1.34,1.86
74.00,1.00,286.81,-3.25,-38.56,7.12,2.38,7.56,-1.34,1.86
74.00,2.00,36.50,-21.94,15.06,-2.19,-5.12,0.88,-1.34,1.86
74.00,0.00,286.75,-4.56,-99.75,7.75,-6.62,8.12,-1.05,1.88
74.00,1.00,286.75,-3.12,-38.62,5.19,-4.38,4.56,-1.05,1.88
74.00,2.00,36.44,-21.88,15.12,-2.19,-5.38,-0.19,-1.05,1.88
74.00,0.00,286.81,-4.44,-99.88,9.81,-10.31,8.44,-0.73,1.90
74.00,1.00,286.69,-3.00,-38.75,5.88,-3.44,4.81,-0.73,1.90
74.00,2.00,36.44,-21.81,15.19,-1.12,-4.06,-1.75,-0.73,1.90
74.00,0.00,287.00,-4.31,-100.12,13.00,-13.38,8.38,-0.31,1.92
74.00,1.00,286.56,-2.94,-38.88,4.25,-2.81,4.88,-0.31,1.92
74.00,2.00,36.50,-21.69,15.19,-1.19,-2.88,-2.38,-0.31,1.92
74.00,0.00,287.25,-4.25,-100.38,16.19,-14.75,6.62,0.30,1.94
74.00,1.00,286.44,-2.81,-38.94,4.44,0.69,6.56,0.30,1.94
74.00,2.00,36.50,-21.69,15.25,-4.69,-3.12,-0.50,0.30,1.94
74.00,0.00,287.50,-4.19,-100.69,19.50,-15.69,4.94,1.02,1.96
74.00,1.00,286.38,-2.75,-39.00,1.81,-3.38,5.31,1.02,1.96
74.00,2.00,36.50,-21.56,15.38,-5.25,-4.88,-1.31,1.02,1.96
74.00,0.00,287.88,-4.19,-101.12,25.50,-16.88,3.25,1.87,1.98
74.00,1.00,286.31,-2.62,-39.00,1.38,-2.88,5.38,1.87,1.98
74.00,2.00,36.50,-21.44,15.44,-3.81,-5.44,-1.56,1.87,1.98
74.00,0.00,288.38,-4.25,-101.75,35.44,-19.56,0.75,2.93,2.00
74.00,1.00,286.25,-2.50,-39.06,1.62,-4.31,4.38,2.93,2.00
74.00,2.00,36.50,-21.38,15.50,-0.75,-5.19,-2.56,2.93,2.00
74.00,0.00,289.00,-4.31,-102.56,46.69,-25.38,-1.00,4.28,2.02
74.00,1.00,286.19,-2.38,-39.06,2.06,-5.88,4.06,4.28,2.02
74.00,2.00,36.56,-21.25,15.50,0.50,-6.12,-3.31,4.28,2.02
74.00,0.00,289.94,-4.56,-103.56,57.06,-33.25,-3.88,5.87,2.04
74.00,1.00,286.12,-2.19,-39.12,3.12,-7.50,3.88,5.87,2.04
74.00,2.00,36.56,-21.12,15.50,2.56,-6.06,-3.75,5.87,2.04
74.00,0.00,291.50,-4.81,-104.75,66.56,-40.38,-4.81,7.66,2.06
74.00,1.00,286.12,-2.06,-39.12,4.69,-8.56,3.50,7.66,2.06
74.00,2.00,36.69,-20.94,15.56,5.38,-5.94,-3.69,7.66,2.06
74.00,0.00,292.81,-5.12,-106.06,71.06,-42.25,-5.19,9.46,2.08
74.00,1.00,286.06,-1.88,-39.25,6.25,-4.75,6.38,9.46,2.08
74.00,2.00,36.81,-20.81,15.44,9.31,-5.88,-3.62,9.46,2.08
74.00,0.00,294.31,-5.50,-107.44,73.81,-41.69,-6.12,11.35,2.10
74.00,1.00,286.06,-1.75,-39.38,6.75,-9.44,2.75,11.35,2.10
74.00,2.00,36.88,-20.75,15.31,9.31,-8.00,-1.62,11.35,2.10
74.00,0.00,295.69,-5.81,-108.81,78.56,-39.94,-3.69,13.42,2.12
74.00,1.00,286.06,-1.56,-39.50,7.31,-8.62,3.38,13.42,2.12
74.00,2.00,36.88,-20.50,15.06,7.50,-10.31,0.06,13.42,2.12
74.00,0.00,296.88,-6.06,-110.31,81.38,-33.44,-0.44,15.57,2.14
74.00,1.00,286.06,-1.38,-39.62,7.38,-10.00,3.69,15.57,2.14
74.00,2.00,36.88,-20.38,15.00,7.81,-11.50,0.94,15.57,2.14
74.00,0.00,298.06,-6.19,-111.88,80.56,-23.81,3.25,17.62,2.16
74.00,1.00,286.06,-1.19,-39.75,7.56,-9.44,3.44,17.62,2.16
74.00,2.00,36.88,-20.06,14.69,10.56,-10.50,0.81,17.62,2.16
74.00,0.00,298.75,-6.19,-113.38,79.50,-15.38,6.81,19.66,2.18
74.00,1.00,286.06,-1.00,-39.94,7.94,-8.81,4.12,19.66,2.18
74.00,2.00,36.81,-19.88,14.44,9.50,-12.00,1.69,19.66,2.18
74.00,0.00,299.06,-6.12,-114.81,75.44,-5.56,7.00,21.71,2.20
74.00,1.00,286.00,-0.81,-40.06,7.75,-8.00,5.06,21.71,2.20
74.00,2.00,36.81,-19.75,14.38,5.31,-13.50,4.06,21.71,2.20
74.00,0.00,299.44,-6.06,-116.38,83.19,-9.88,10.81,24.02,2.22
74.00,1.00,286.00,-0.56,-40.25,7.75,-8.25,5.38,24.02,2.22
74.00,2.00,36.62,-19.38,14.12,4.25,-14.62,4.44,24.02,2.22
74.00,0.00,299.81,-5.88,-118.00,85.62,-8.56,15.44,26.44,2.24
74.00,1.00,285.94,-0.44,-40.38,6.38,-7.38,5.50,26.44,2.24
74.00,2.00,36.62,-19.25,14.06,2.81,-14.12,3.81,26.44,2.24
74.00,0.00,300.06,-5.69,-119.56,80.06,-8.94,15.44,28.61,2.26
74.00,1.00,285.88,-0.25,-40.50,5.94,-7.56,5.12,28.61,2.26
74.00,2.00,36.50,-19.06,14.00,5.62,-11.44,3.00,28.61,2.26
74.00,0.00,300.56,-5.62,-121.00,75.25,-14.25,11.56,30.66,2.28
74.00,1.00,285.81,-0.06,-40.62,5.44,-6.56,4.38,30.66,2.28
74.00,2.00,36.44,-18.88,13.81,5.06,-11.12,2.06,30.66,2.28
74.00,0.00,301.12,-5.62,-122.38,71.88,-14.75,7.62,32.64,2.30
74.00,1.00,285.81,0.00,-40.75,5.38,-6.44,3.50,32.64,2.30
74.00,2.00,36.38,-18.62,13.69,4.06,-11.00,2.44,32.64,2.30
74.00,0.00,301.88,-5.69,-123.69,72.50,-15.38,6.31,34.57,2.32
74.00,1.00,285.75,0.12,-40.88,6.31,-2.62,4.69,34.57,2.32
74.00,2.00,36.31,-18.44,13.56,6.31,-10.56,2.00,34.57,2.32
74.00,0.00,302.75,-5.75,-125.12,74.31,-20.50,6.38,36.59,2.34
74.00,1.00,285.69,0.31,-40.94,4.19,-6.75,3.50,36.59,2.34
74.00,2.00,36.31,-18.25,13.38,5.25,-9.69,2.81,36.59,2.34
74.00,0.00,303.75,-5.94,-126.50,74.69,-20.56,5.94,38.66,2.36
74.00,1.00,285.69,0.44,-41.06,4.44,-6.81,3.56,38.66,2.36
74.00,2.00,36.25,-18.12,13.31,3.75,-10.31,2.12,38.66,2.36
74.00,0.00,304.81,-6.06,-127.88,73.31,-19.00,3.56,40.71,2.38
74.00,1.00,285.69,0.56,-41.12,4.31,-7.19,2.31,40.71,2.38
74.00,2.00,36.19,-17.88,13.25,3.12,-10.19,1.50,40.71,2.38
74.00,0.00,306.06,-6.31,-129.25,72.12,-23.62,0.88,42.73,2.40
74.00,1.00,285.69,0.69,-41.25,5.06,-7.88,1.38,42.73,2.40
74.00,2.00,36.12,-17.75,13.12,3.00,-9.12,1.00,42.73,2.40
74.00,0.00,307.44,-6.62,-130.62,69.50,-24.19,-0.31,44.66,2.42
74.00,1.00,285.75,0.81,-41.31,5.25,-8.69,0.62,44.66,2.42
74.00,2.00,36.12,-17.56,13.06,3.69,-8.31,0.12,44.66,2.42
74.00,0.00,308.88,-6.94,-131.81,62.19,-21.38,-4.12,46.25,2.44
74.00,1.00,285.81,0.94,-41.44,5.38,-7.56,0.44,46.25,2.44
74.00,2.00,36.12,-17.44,13.00,7.50,-6.81,-0.81,46.25,2.44
74.00,0.00,310.12,-7.25,-132.88,56.81,-17.12,-3.56,47.70,2.46
74.00,1.00,285.88,1.06,-41.56,5.31,-8.56,-0.50,47.70,2.46
74.00,2.00,36.19,-17.31,12.81,7.31,-7.75,-0.19,47.70,2.46
74.00,0.00,311.19,-7.44,-133.88,50.00,-12.94,-0.12,48.92,2.48
74.00,1.00,285.94,1.19,-41.62,5.19,-8.69,-0.62,48.92,2.48
74.00,2.00,36.19,-17.19,12.69,8.06,-7.88,0.25,48.92,2.48
74.00,0.00,311.88,-7.56,-134.75,44.25,-7.44,2.62,50.01,2.50
74.00,1.00,286.00,1.31,-41.75,4.88,-6.75,-0.44,50.01,2.50
74.00,2.00,36.19,-17.00,12.50,7.06,-8.75,0.06,50.01,2.50
74.00,0.00,110.88,-7.50,-135.50,39.12,-3.88,3.69,50.95,2.52
74.00,1.00,286.00,1.38,-41.81,4.44,-5.88,0.31,50.95,2.52
74.00,2.00,36.19,-16.88,12.38,7.06,-8.12,-0.25,50.95,2.52
74.00,0.00,111.00,-7.50,-136.19,33.44,-3.50,3.50,51.82,2.54
74.00,1.00,286.06,1.50,-41.94,3.56,-5.56,1.12,51.82,2.54
74.00,2.00,36.19,-16.69,12.25,3.50,-8.69,0.62,51.82,2.54
74.00,0.00,111.19,-7.50,-136.75,29.44,-3.44,4.62,52.59,2.56
74.00,1.00,286.06,1.56,-42.00,2.69,-4.88,1.31,52.59,2.56
74.00,2.00,36.12,-16.56,12.19,3.19,-7.88,0.81,52.59,2.56
74.00,0.00,111.31,-7.44,-137.25,25.31,-2.19,5.00,53.21,2.58
74.00,1.00,286.06,1.69,-42.00,2.62,-4.56,1.69,53.21,2.58
74.00,2.00,36.12,-16.38,12.06,4.06,-6.56,-0.31,53.21,2.58
74.00,0.00,111.38,-7.38,-137.62,16.38,2.00,3.44,53.57,2.60
74.00,1.00,286.06,1.75,-42.06,2.50,-4.88,1.94,53.57,2.60
74.00,2.00,36.12,-16.31,12.00,4.12,-6.44,-0.19,53.57,2.60
74.00,0.00,111.38,-7.31,-137.81,9.31,6.06,1.38,53.71,2.62
74.00,1.00,286.06,1.88,-42.12,3.12,-5.62,1.69,53.71,2.62
74.00,2.00,36.12,-16.19,11.94,4.38,-6.62,0.12,53.71,2.62
74.00,0.00,111.44,-7.06,-137.94,1.81,11.00,2.06,53.54,2.64
74.00,1.00,286.06,1.94,-42.19,2.88,-5.06,1.25,53.54,2.64
74.00,2.00,36.12,-16.06,11.81,7.62,-5.19,1.75,53.54,2.64
74.00,0.00,111.38,-6.75,-137.88,-4.19,12.69,1.69,53.18,2.66
74.00,1.00,286.06,2.06,-42.25,2.50,-3.62,1.88,53.18,2.66
74.00,2.00,36.12,-16.00,11.62,8.06,-4.19,1.88,53.18,2.66
74.00,0.00,111.31,-6.50,-137.81,-6.06,14.12,2.31,52.96,2.68
74.00,1.00,286.06,2.06,-42.31,0.62,-0.69,3.12,52.96,2.68
74.00,2.00,36.06,-15.94,11.50,1.62,-3.25,2.81,52.96,2.68
74.00,0.00,111.25,-6.25,-137.75,-7.75,14.62,2.56,52.81,2.70
74.00,1.00,285.94,2.19,-42.31,-1.12,1.19,3.81,52.81,2.70
74.00,2.00,36.00,-15.88,11.44,-2.62,-3.56,3.50,52.81,2.70
74.00,0.00,111.19,-6.00,-137.56,-10.75,15.44,2.12,52.59,2.72
74.00,1.00,285.88,2.19,-42.31,-1.00,0.88,3.31,52.59,2.72
74.00,2.00,35.94,-15.81,11.50,-3.19,-3.44,3.19,52.59,2.72
74.00,0.00,111.06,-5.75,-137.38,-14.00,16.56,0.69,52.25,2.74
74.00,1.00,285.75,2.25,-42.31,-1.62,2.06,3.00,52.25,2.74
74.00,2.00,35.88,-15.75,11.56,-2.25,-1.25,1.81,52.25,2.74
74.00,0.00,110.88,-5.50,-137.12,-16.81,16.25,-1.81,51.82,2.76
74.00,1.00,285.69,2.25,-42.25,-2.19,2.19,2.00,51.82,2.76
74.00,2.00,35.81,-15.75,11.56,-2.12,-0.31,2.00,51.82,2.76
74.00,0.00,110.69,-5.31,-136.88,-19.00,15.75,-3.69,51.31,2.78
74.00,1.00,285.69,2.25,-42.19,-2.44,3.12,1.56,51.31,2.78
74.00,2.00,35.75,-15.81,11.56,-1.56,1.00,2.69,51.31,2.78
74.00,0.00,110.38,-5.19,-136.69,-17.00,14.50,-3.44,50.89,2.80
74.00,1.00,285.62,2.19,-42.19,-2.44,4.25,1.81,50.89,2.80
74.00,2.00,35.69,-15.81,11.56,-2.69,0.75,3.31,50.89,2.80
74.00,0.00,110.19,-5.06,-136.50,-17.62,14.75,-4.19,50.47,2.82
74.00,1.00,285.50,2.19,-42.12,-2.31,5.12,2.56,50.47,2.82
74.00,2.00,35.62,-15.88,11.56,-3.44,0.69,3.50,50.47,2.82
74.00,0.00,109.94,-4.94,-136.12,-17.94,12.62,-7.12,50.10,2.84
74.00,1.00,285.44,2.12,-42.06,-2.62,5.25,2.56,50.10,2.84
74.00,2.00,35.56,-15.88,11.62,-5.19,1.00,4.50,50.10,2.84
74.00,0.00,109.50,-4.94,-136.00,-16.38,11.81,-8.62,49.76,2.86
74.00,1.00,285.31,2.06,-42.06,-2.50,5.25,2.56,49.76,2.86
74.00,2.00,35.44,-15.94,11.75,-4.62,1.25,4.25,49.76,2.86
74.00,0.00,109.12,-4.81,-135.75,-14.69,11.88,-8.19,49.42,2.88
74.00,1.00,285.31,2.06,-42.00,-2.75,4.25,2.06,49.42,2.88
74.00,2.00,35.38,-16.00,11.75,-3.00,1.00,4.75,49.42,2.88
74.00,0.00,109.00,-4.75,-135.69,-12.56,11.69,-7.56,49.13,2.90
74.00,1.00,285.19,2.00,-41.94,-2.44,4.44,1.81,49.13,2.90
74.00,2.00,35.25,-16.06,11.81,-2.81,0.56,4.94,49.13,2.90
74.00,0.00,108.44,-4.62,-135.56,-10.81,14.00,-7.19,48.92,2.92
74.00,1.00,285.12,1.94,-41.88,-3.00,5.25,1.62,48.92,2.92
74.00,2.00,35.12,-16.06,11.81,-3.62,0.06,4.94,48.92,2.92
74.00,0.00,108.31,-4.56,-135.44,-10.88,16.25,-7.75,48.72,2.94
74.00,1.00,285.06,1.94,-41.88,-3.62,5.44,1.50,48.72,2.94
74.00,2.00,35.00,-16.06,11.88,-3.81,1.06,5.75,48.72,2.94
74.00,0.00,108.00,-4.44,-135.31,-11.25,19.69,-8.69,48.49,2.96
74.00,1.00,285.00,1.88,-41.75,-3.75,6.06,1.44,48.49,2.96
74.00,2.00,34.94,-16.12,11.94,-3.38,1.00,5.75,48.49,2.96
74.00,0.00,107.69,-4.19,-135.19,-11.69,21.25,-9.38,48.23,2.98
74.00,1.00,284.94,1.81,-41.69,-4.38,6.38,1.50,48.23,2.98
74.00,2.00,34.81,-16.19,11.94,-3.00,1.38,6.06,48.23,2.98
74.00,0.00,298.69,-4.00,-135.06,-10.50,21.50,-8.94,48.02,3.00
74.00,1.00,284.88,1.75,-41.62,-4.56,8.00,2.12,48.02,3.00
74.00,2.00,34.69,-16.25,12.00,-3.19,1.31,6.88,48.02,3.00
74.00,0.00,297.25,-3.75,-135.00,-7.56,22.88,-5.38,47.89,3.02
74.00,1.00,284.75,1.62,-41.50,-4.75,8.06,2.31,47.89,3.02
74.00,2.00,34.50,-16.31,12.00,-3.19,0.62,7.62,47.89,3.02
74.00,0.00,296.25,-3.44,-134.94,-8.81,24.12,-6.19,47.76,3.04
74.00,1.00,284.62,1.50,-41.38,-4.88,8.06,2.12,47.76,3.04
74.00,2.00,34.31,-16.31,12.00,-4.44,-0.44,8.06,47.76,3.04
74.00,0.00,295.12,-3.25,-134.75,-9.25,23.94,-7.88,47.63,3.06
74.00,1.00,284.56,1.44,-41.31,-4.94,8.44,2.38,47.63,3.06
74.00,2.00,34.19,-16.38,12.06,-4.69,0.06,7.75,47.63,3.06
74.00,0.00,294.25,-3.06,-134.62,-7.00,21.50,-10.19,47.56,3.08
74.00,1.00,284.44,1.38,-41.25,-4.94,8.81,2.44,47.56,3.08
74.00,2.00,34.00,-16.38,12.12,-4.56,0.25,7.56,47.56,3.08
74.00,0.00,293.44,-2.94,-134.56,-7.19,21.56,-9.81,47.47,3.10
74.00,1.00,284.31,1.25,-41.12,-4.75,8.75,2.25,47.47,3.10
74.00,2.00,33.88,-16.44,12.19,-4.19,0.81,8.25,47.47,3.10
74.00,0.00,292.69,-2.75,-134.44,-7.62,19.69,-10.12,47.37,3.12
74.00,1.00,284.25,1.19,-41.00,-5.19,8.94,2.19,47.37,3.12
74.00,2.00,33.69,-16.44,12.19,-4.31,0.19,8.38,47.37,3.12
74.00,0.00,292.00,-2.69,-134.31,-6.88,19.25,-11.00,47.34,3.14
74.00,1.00,284.12,1.06,-40.94,-5.00,9.62,2.06,47.34,3.14
74.00,2.00,33.50,-16.50,12.25,-5.62,0.38,9.25,47.34,3.14
74.00,0.00,291.19,-2.56,-134.25,-6.50,18.81,-11.25,47.32,3.16
74.00,1.00,284.00,0.94,-40.81,-5.12,10.25,2.06,47.32,3.16
74.00,2.00,33.31,-16.56,12.31,-5.94,0.12,9.31,47.32,3.16
74.00,0.00,290.56,-2.50,-134.12,-6.25,17.50,-12.25,47.30,3.18
74.00,1.00,283.88,0.81,-40.75,-5.06,10.19,1.69,47.30,3.18
74.00,2.00,33.12,-16.62,12.38,-5.69,1.44,9.19,47.30,3.18
74.00,0.00,290.00,-2.44,-134.06,-5.88,17.12,-12.25,47.32,3.20
74.00,1.00,283.81,0.69,-40.62,-6.25,10.62,1.44,47.32,3.20
74.00,2.00,32.88,-16.69,12.44,-6.56,2.00,9.62,47.32,3.20
74.00,0.00,289.50,-2.38,-133.94,-4.94,15.88,-12.44,47.39,3.22
74.00,1.00,283.69,0.56,-40.50,-6.19,11.00,1.94,47.39,3.22
74.00,2.00,32.69,-16.75,12.50,-7.31,2.31,10.06,47.39,3.22
74.00,0.00,289.00,-2.38,-133.88,-4.38,15.00,-12.25,47.48,3.24
74.00,1.00,283.56,0.44,-40.38,-6.56,11.31,2.06,47.48,3.24
74.00,2.00,32.50,-16.88,12.62,-7.44,2.12,10.38,47.48,3.24
74.00,0.00,288.56,-2.31,-133.81,-4.06,14.38,-11.88,47.59,3.26
74.00,1.00,283.44,0.25,-40.25,-7.06,11.75,1.50,47.59,3.26
74.00,2.00,32.25,-16.94,12.69,-7.81,2.19,10.25,47.59,3.26
74.00,0.00,288.19,-2.31,-133.75,-4.06,13.38,-11.81,47.71,3.28
74.00,1.00,283.38,0.12,-40.12,-6.88,12.00,1.38,47.71,3.28
74.00,2.00,32.06,-17.06,12.81,-8.06,3.19,9.94,47.71,3.28
74.00,0.00,287.81,-2.31,-133.69,-4.19,12.44,-11.75,47.83,3.30
74.00,1.00,283.25,0.00,-39.94,-6.25,12.44,1.56,47.83,3.30
74.00,2.00,31.81,-17.12,12.88,-8.12,3.25,9.81,47.83,3.30
74.00,0.00,287.50,-2.31,-133.62,-4.19,10.62,-11.62,47.93,3.32
74.00,1.00,283.12,-0.12,-39.81,-6.62,12.00,1.69,47.93,3.32
74.00,2.00,31.62,-17.25,13.00,-7.69,3.75,9.62,47.93,3.32
74.00,0.00,287.31,-2.38,-133.56,-4.62,9.38,-11.12,48.02,3.34
74.00,1.00,283.00,-0.31,-39.69,-7.19,12.31,1.00,48.02,3.34
74.00,2.00,31.44,-17.38,13.12,-7.88,4.25,8.94,48.02,3.34
74.00,0.00,286.94,-2.38,-133.50,-4.50,8.62,-10.81,48.14,3.36
74.00,1.00,282.88,-0.50,-39.56,-6.88,12.25,0.62,48.14,3.36
74.00,2.00,31.25,-17.50,13.25,-8.44,3.56,8.75,48.14,3.36
74.00,0.00,286.75,-2.44,-133.38,-4.69,6.69,-10.31,48.22,3.38
74.00,1.00,282.81,-0.69,-39.44,-7.25,12.00,0.62,48.22,3.38
74.00,2.00,31.06,-17.62,13.38,-7.56,4.75,7.62,48.22,3.38
74.00,0.00,286.69,-2.50,-133.31,-4.50,5.44,-9.69,48.32,3.40
74.00,1.00,282.69,-0.81,-39.31,-6.88,11.94,0.69,48.32,3.40
74.00,2.00,30.94,-17.75,13.44,-7.81,4.81,7.12,48.32,3.40
74.00,0.00,286.56,-2.56,-133.25,-4.62,4.75,-9.19,48.41,3.42
74.00,1.00,282.62,-1.00,-39.19,-6.19,11.56,-1.06,48.41,3.42
74.00,2.00,30.75,-17.88,13.62,-7.88,4.25,5.81,48.41,3.42
74.00,0.00,286.56,-2.62,-133.12,-4.62,3.25,-8.69,48.50,3.44
74.00,1.00,282.56,-1.19,-39.06,-6.75,10.44,-1.06,48.50,3.44
74.00,2.00,30.62,-18.00,13.75,-7.50,4.44,4.88,48.50,3.44
74.00,0.00,286.56,-2.75,-133.06,-4.38,2.69,-8.38,48.58,3.46
74.00,1.00,282.50,-1.38,-38.94,-6.81,10.25,-0.75,48.58,3.46
74.00,2.00,30.56,-18.12,13.88,-7.12,4.75,4.75,48.58,3.46
74.00,0.00,286.56,-2.81,-132.94,-4.81,2.88,-8.19,48.65,3.48
74.00,1.00,282.44,-1.56,-38.81,-5.81,9.50,-0.94,48.65,3.48
74.00,2.00,30.44,-18.25,14.00,-7.31,3.75,4.75,48.65,3.48
74.00,0.00,286.62,-2.88,-132.88,-5.12,2.25,-7.69,48.70,3.50
74.00,1.00,282.44,-1.69,-38.69,-5.62,9.19,-1.06,48.70,3.50
74.00,2.00,30.31,-18.31,14.12,-6.88,3.19,4.56,48.70,3.50
74.00,0.00,286.62,-2.94,-132.75,-5.19,2.56,-7.50,48.74,3.52
74.00,1.00,282.38,-1.88,-38.56,-5.19,8.44,-1.88,48.74,3.52
74.00,2.00,30.25,-18.44,14.25,-6.56,3.38,4.00,48.74,3.52
74.00,0.00,286.62,-3.00,-132.69,-3.81,2.06,-7.25,48.79,3.54
74.00,1.00,282.38,-2.00,-38.50,-5.25,8.38,-2.00,48.79,3.54
74.00,2.00,30.12,-18.50,14.38,-5.62,3.69,3.75,48.79,3.54
74.00,0.00,286.69,-3.06,-132.62,-3.06,2.12,-7.06,48.87,3.56
74.00,1.00,282.38,-2.19,-38.38,-4.69,8.38,-2.00,48.87,3.56
74.00,2.00,30.06,-18.62,14.50,-5.69,3.44,3.56,48.87,3.56
74.00,0.00,286.69,-3.12,-132.56,-2.69,2.44,-6.44,48.97,3.58
74.00,1.00,282.31,-2.38,-38.25,-4.62,7.69,-1.56,48.97,3.58
74.00,2.00,30.00,-18.69,14.62,-6.19,2.38,3.75,48.97,3.58
74.00,0.00,286.62,-3.19,-132.50,-2.19,3.44,-6.00,49.07,3.60
74.00,1.00,282.31,-2.50,-38.19,-4.38,7.38,-1.50,49.07,3.60
74.00,2.00,29.88,-18.81,14.75,-5.38,2.62,3.50,49.07,3.60
74.00,0.00,286.56,-3.25,-132.50,-2.06,3.44,-5.81,49.15,3.62
74.00,1.00,282.31,-2.62,-38.06,-4.00,7.38,-1.81,49.15,3.62
74.00,2.00,29.81,-18.88,14.88,-4.94,2.75,3.81,49.15,3.62
74.00,0.00,286.56,-3.25,-132.44,-1.25,3.38,-5.31,49.25,3.64
74.00,1.00,282.31,-2.75,-37.94,-4.19,6.81,-1.38,49.25,3.64
74.00,2.00,29.75,-18.94,15.00,-4.56,1.88,4.06,49.25,3.64
74.00,0.00,286.44,-3.31,-132.44,-1.62,3.81,-5.56,49.33,3.66
74.00,1.00,282.25,-2.88,-37.88,-4.12,6.50,-1.19,49.33,3.66
74.00,2.00,29.62,-19.00,15.06,-4.50,1.25,4.31,49.33,3.66
74.00,0.00,286.38,-3.31,-132.44,-1.31,4.25,-5.56,49.39,3.68
74.00,1.00,282.25,-3.00,-37.75,-3.50,6.69,-0.94,49.39,3.68
74.00,2.00,29.56,-19.06,15.12,-3.44,1.38,4.38,49.39,3.68
74.00,0.00,286.31,-3.31,-132.38,-1.00,4.06,-5.06,49.47,3.70
74.00,1.00,282.19,-3.12,-37.69,-3.12,6.31,-0.69,49.47,3.70
74.00,2.00,29.44,-19.19,15.19,-3.69,1.44,4.25,49.47,3.70
74.00,0.00,286.12,-3.31,-132.38,-0.75,4.56,-4.44,49.56,3.72
74.00,1.00,282.19,-3.25,-37.62,-2.75,6.12,-0.56,49.56,3.72
74.00,2.00,29.38,-19.25,15.25,-3.69,1.12,4.56,49.56,3.72
74.00,0.00,286.00,-3.31,-132.38,-0.44,4.62,-3.81,49.64,3.74
74.00,1.00,282.12,-3.31,-37.56,-3.31,6.12,-0.31,49.64,3.74
74.00,2.00,29.25,-19.31,15.31,-3.19,1.12,4.69,49.64,3.74
74.00,0.00,285.81,-3.31,-132.38,-0.50,4.50,-3.88,49.71,3.76
74.00,1.00,282.06,-3.44,-37.50,-2.81,8.88,1.62,49.71,3.76
74.00,2.00,29.19,-19.38,15.38,-2.88,1.00,4.19,49.71,3.76
74.00,0.00,285.69,-3.31,-132.38,-0.81,3.81,-4.12,49.76,3.78
74.00,1.00,282.00,-3.56,-37.44,-2.31,5.38,-0.94,49.76,3.78
74.00,2.00,29.06,-19.44,15.44,-2.50,1.88,4.44,49.76,3.78
74.00,0.00,285.62,-3.38,-132.38,0.00,2.69,-3.94,49.82,3.80
74.00,1.00,282.00,-3.69,-37.44,-2.25,6.31,-0.50,49.82,3.80
74.00,2.00,29.00,-19.50,15.50,-2.25,1.75,4.06,49.82,3.80
74.00,0.00,285.62,-3.38,-132.38,0.38,2.12,-3.50,49.90,3.82
74.00,1.00,281.94,-3.75,-37.38,-2.38,4.75,-0.81,49.90,3.82
74.00,2.00,28.94,-19.56,15.50,-2.12,1.38,4.00,49.90,3.82
74.00,0.00,285.62,-3.44,-132.38,0.75,1.44,-3.19,49.97,3.84
74.00,1.00,281.94,-3.88,-37.31,-2.19,5.06,-0.12,49.97,3.84
74.00,2.00,28.88,-19.62,15.56,-1.69,1.69,3.38,49.97,3.84
74.00,0.00,285.81,-3.44,-132.38,0.19,0.69,-3.00,50.02,3.86
74.00,1.00,281.94,-3.94,-37.25,-1.94,4.94,-0.44,50.02,3.86
74.00,2.00,28.75,-19.69,15.56,-1.62,1.50,3.44,50.02,3.86
74.00,0.00,285.88,-3.50,-132.38,0.50,0.00,-3.00,50.06,3.88
74.00,1.00,281.94,-4.06,-37.25,-1.94,4.06,-1.50,50.06,3.88
74.00,2.00,28.75,-19.75,15.56,-0.88,1.81,2.75,50.06,3.88
74.00,0.00,285.94,-3.56,-132.38,0.88,-0.88,-3.00,50.12,3.90
74.00,1.00,281.94,-4.12,-37.19,-2.06,4.19,-1.81,50.12,3.90
74.00,2.00,28.69,-19.81,15.62,-1.25,2.75,2.31,50.12,3.90
74.00,0.00,286.06,-3.62,-132.38,1.44,-1.56,-3.12,50.20,3.92
74.00,1.00,281.94,-4.19,-37.19,-1.75,3.94,-1.38,50.20,3.92
74.00,2.00,28.62,-19.88,15.62,-1.25,2.88,2.38,50.20,3.92
74.00,0.00,286.25,-3.69,-132.44,1.75,-1.75,-2.88,50.31,3.94
74.00,1.00,281.94,-4.31,-37.12,-1.88,3.69,-1.25,50.31,3.94
74.00,2.00,28.56,-19.94,15.62,-2.06,1.88,2.44,50.31,3.94
74.00,0.00,286.38,-3.75,-132.44,1.50,-2.00,-2.62,50.42,3.96
74.00,1.00,281.94,-4.38,-37.06,-1.31,2.94,-1.06,50.42,3.96
74.00,2.00,28.50,-20.00,15.69,-2.31,1.06,2.62,50.42,3.96
74.00,0.00,286.50,-3.81,-132.44,0.62,-1.06,-3.00,50.47,3.98
74.00,1.00,281.94,-4.44,-37.06,-1.50,3.00,-0.56,50.47,3.98
74.00,2.00,28.50,-20.06,15.69,-0.81,1.50,2.56,50.47,3.98
74.00,0.00,286.62,-3.88,-132.44,0.06,-1.06,-3.56,50.51,4.00
74.00,1.00,281.88,-4.50,-37.00,-1.56,2.44,-0.19,50.51,4.00
74.00,2.00,28.44,-20.12,15.69,-1.44,0.62,3.00,50.51,4.00
74.00,0.00,286.62,-3.94,-132.44,0.06,0.25,-4.19,50.55,4.02
74.00,1.00,281.88,-4.50,-37.00,-1.81,2.56,0.00,50.55,4.02
74.00,2.00,28.38,-20.12,15.75,-1.44,0.25,2.88,50.55,4.02
74.00,0.00,286.69,-4.00,-132.50,1.12,0.25,-3.62,50.66,4.04
74.00,1.00,281.88,-4.56,-36.94,-2.31,2.88,1.12,50.66,4.04
74.00,2.00,28.31,-20.12,15.75,-2.56,-0.31,2.81,50.66,4.04
74.00,0.00,286.81,-4.00,-132.50,1.19,1.06,-2.44,50.78,4.06
74.00,1.00,281.81,-4.56,-36.88,-2.19,2.12,1.12,50.78,4.06
74.00,2.00,28.25,-20.19,15.81,-3.00,-0.88,3.31,50.78,4.06
74.00,0.00,286.81,-4.00,-132.50,0.62,2.25,-2.75,50.86,4.08
74.00,1.00,281.81,-4.62,-36.88,-1.88,2.19,0.88,50.86,4.08
74.00,2.00,28.12,-20.19,15.81,-2.06,-0.94,3.44,50.86,4.08
74.00,0.00,286.75,-4.00,-132.50,-0.06,2.75,-3.00,50.90,4.10
74.00,1.00,281.75,-4.69,-36.81,-2.12,2.69,1.50,50.90,4.10
74.00,2.00,28.06,-20.19,15.81,-1.31,-0.50,2.75,50.90,4.10
74.00,0.00,286.69,-4.00,-132.50,-0.12,3.25,-2.44,50.96,4.12
74.00,1.00,281.69,-4.69,-36.75,-2.25,2.44,2.00,50.96,4.12
74.00,2.00,28.00,-20.19,15.88,-2.19,-1.81,3.06,50.96,4.12
74.00,0.00,286.56,-4.00,-132.50,0.19,3.56,-2.00,51.06,4.14
74.00,1.00,281.62,-4.69,-36.75,-2.50,1.88,2.12,51.06,4.14
74.00,2.00,27.94,-20.19,15.88,-3.19,-2.00,3.31,51.06,4.14
74.00,0.00,286.38,-4.00,-132.50,-0.62,3.62,-1.94,51.12,4.16
74.00,1.00,281.56,-4.69,-36.69,-2.06,1.81,2.12,51.12,4.16
74.00,2.00,27.81,-20.19,15.94,-2.88,-1.94,3.75,51.12,4.16
74.00,0.00,286.31,-3.94,-132.50,-0.88,3.31,-1.88,51.16,4.18
74.00,1.00,281.50,-4.69,-36.69,-1.50,2.19,1.50,51.16,4.18
74.00,2.00,27.75,-20.19,15.94,-2.19,-2.38,3.69,51.16,4.18
74.00,0.00,286.19,-3.94,-132.50,-1.31,3.38,-1.88,51.16,4.20
74.00,1.00,281.50,-4.75,-36.62,-1.56,2.31,1.75,51.16,4.20
74.00,2.00,27.69,-20.12,15.94,-1.19,-1.88,3.19,51.16,4.20
74.00,0.00,286.06,-3.94,-132.50,-0.75,2.88,-1.56,51.17,4.22
74.00,1.00,281.44,-4.75,-36.62,-1.88,2.69,1.38,51.17,4.22
74.00,2.00,27.62,-20.12,15.94,-1.12,-0.69,3.19,51.17,4.22
74.00,0.00,286.00,-3.94,-132.50,-0.25,2.38,-1.50,51.22,4.24
74.00,1.00,281.38,-4.75,-36.56,-1.75,2.94,1.56,51.22,4.24
74.00,2.00,27.56,-20.19,15.94,-1.88,-0.50,3.19,51.22,4.24
74.00,0.00,285.94,-3.94,-132.50,-0.75,1.94,-1.44,51.27,4.26
74.00,1.00,281.31,-4.81,-36.56,-1.25,2.88,1.69,51.27,4.26
74.00,2.00,27.44,-20.19,16.00,-2.69,-1.25,3.44,51.27,4.26
74.00,0.00,286.06,-3.94,-132.44,0.50,-3.31,-1.69,51.37,4.28
74.00,1.00,281.25,-4.81,-36.50,-1.00,2.88,1.50,51.37,4.28
74.00,2.00,27.38,-20.19,16.00,-2.69,-0.94,3.25,51.37,4.28
74.00,0.00,286.25,-4.00,-132.50,1.12,-4.19,-0.25,51.46,4.30
74.00,1.00,281.25,-4.88,-36.50,-0.31,2.81,1.56,51.46,4.30
74.00,2.00,27.31,-20.19,16.06,-2.00,-0.12,2.62,51.46,4.30
74.00,0.00,286.31,-4.06,-132.50,-0.12,-3.25,-0.06,51.50,4.32
74.00,1.00,281.19,-4.88,-36.56,-0.06,3.00,1.25,51.50,4.32
74.00,2.00,27.25,-20.19,16.06,-1.75,0.31,2.50,51.50,4.32
74.00,0.00,286.44,-4.06,-132.44,0.25,-2.44,-0.81,51.58,4.34
74.00,1.00,281.12,-4.94,-36.56,-0.38,2.19,1.00,51.58,4.34
74.00,2.00,27.19,-20.19,16.12,-2.38,-0.31,2.44,51.58,4.34
74.00,0.00,286.56,-4.12,-132.44,0.69,-2.25,-1.12,51.65,4.36
74.00,1.00,281.12,-4.94,-36.50,-0.69,1.75,0.50,51.65,4.36
74.00,2.00,27.19,-20.25,16.12,-1.81,0.00,1.69,51.65,4.36
74.00,0.00,286.62,-4.12,-132.44,0.50,-2.19,-1.00,51.72,4.38
74.00,1.00,281.12,-4.94,-36.50,-0.19,1.50,0.31,51.72,4.38
74.00,2.00,27.12,-20.25,16.19,-1.62,0.50,1.62,51.72,4.38
74.00,0.00,286.69,-4.19,-132.44,0.69,-1.81,-0.44,51.77,4.40
74.00,1.00,281.12,-5.00,-36.50,-0.06,1.44,0.44,51.77,4.40
74.00,2.00,27.12,-20.25,16.19,-1.25,0.38,1.31,51.77,4.40
74.00,0.00,286.69,-4.19,-132.44,0.38,-1.31,0.00,51.83,4.42
74.00,1.00,281.12,-5.00,-36.50,-0.69,1.31,0.25,51.83,4.42
74.00,2.00,27.06,-20.25,16.25,-1.50,0.19,0.50,51.83,4.42
74.00,0.00,286.69,-4.19,-132.44,-0.06,-0.19,0.00,51.86,4.44
74.00,1.00,281.12,-5.00,-36.50,-1.00,0.62,0.38,51.86,4.44
74.00,2.00,27.06,-20.25,16.25,-1.31,0.06,0.62,51.86,4.44
74.00,0.00,286.62,-4.12,-132.38,-0.69,-0.12,0.25,51.87,4.46
74.00,1.00,281.12,-5.06,-36.50,-0.06,0.69,0.31,51.87,4.46
74.00,2.00,27.06,-20.25,16.31,-1.00,-0.88,0.62,51.87,4.46
74.00,0.00,286.62,-4.12,-132.38,-0.88,0.56,0.12,51.87,4.48
74.00,1.00,281.06,-5.06,-36.44,0.19,0.81,0.31,51.87,4.48
74.00,2.00,27.06,-20.25,16.31,-0.75,-1.38,0.75,51.87,4.48
74.00,0.00,286.56,-4.12,-132.38,-0.94,0.94,0.12,51.85,4.50
74.00,1.00,281.06,-5.06,-36.44,0.19,0.88,0.50,51.85,4.50
74.00,2.00,27.06,-20.25,16.31,-0.38,-0.81,0.50,51.85,4.50
74.00,0.00,286.50,-4.12,-132.38,-0.56,1.25,0.06,51.83,4.52
74.00,1.00,281.06,-5.06,-36.44,0.38,0.19,-0.19,51.83,4.52
74.00,2.00,27.06,-20.25,16.31,0.12,-1.12,0.19,51.83,4.52
74.00,0.00,286.44,-4.06,-132.38,-0.19,1.06,-0.19,51.81,4.54
74.00,1.00,281.06,-5.06,-36.44,0.44,0.12,-0.06,51.81,4.54
74.00,2.00,27.06,-20.19,16.38,0.62,-1.06,0.44,51.81,4.54
74.00,0.00,286.44,-4.06,-132.38,0.12,0.75,-0.19,51.79,4.56
74.00,1.00,281.06,-5.06,-36.44,0.00,0.19,-0.12,51.79,4.56
74.00,2.00,27.06,-20.19,16.31,0.81,-0.69,0.38,51.79,4.56
74.00,0.00,286.38,-4.06,-132.38,0.38,0.62,-0.44,51.80,4.58
74.00,1.00,281.06,-5.06,-36.44,-0.25,0.38,-0.12,51.80,4.58
74.00,2.00,27.06,-20.19,16.31,-0.06,-0.94,0.38,51.80,4.58
74.00,0.00,286.38,-4.06,-132.38,0.44,0.38,-0.38,51.82,4.60
74.00,1.00,281.06,-5.06,-36.44,-0.31,0.25,0.00,51.82,4.60
74.00,2.00,27.06,-20.19,16.31,-0.31,-0.75,0.38,51.82,4.60
74.00,0.00,286.38,-4.06,-132.38,0.12,0.06,-0.38,51.84,4.62
74.00,1.00,281.06,-5.06,-36.44,0.56,0.75,-0.38,51.84,4.62
74.00,2.00,27.06,-20.19,16.31,-0.44,-1.06,0.44,51.84,4.62
74.00,0.00,286.38,-4.06,-132.38,0.38,0.12,-0.31,51.85,4.64
74.00,1.00,281.12,-5.12,-36.44,1.19,0.62,-0.94,51.85,4.64
74.00,2.00,27.06,-20.12,16.38,-0.12,-0.81,0.50,51.85,4.64
74.00,0.00,286.38,-4.06,-132.38,0.56,-0.31,-0.12,51.87,4.66
74.00,1.00,281.12,-5.12,-36.50,1.06,0.38,-0.81,51.87,4.66
74.00,2.00,27.06,-20.12,16.38,0.06,-0.38,0.31,51.87,4.66
74.00,0.00,286.38,-4.06,-132.31,0.69,0.00,-0.44,51.87,4.68
74.00,1.00,281.12,-5.12,-36.50,0.31,-0.06,-0.88,51.87,4.68
74.00,2.00,27.06,-20.19,16.38,0.50,0.69,0.12,51.87,4.68
74.00,0.00,286.38,-4.06,-132.38,0.62,0.12,-0.75,51.89,4.70
74.00,1.00,281.19,-5.12,-36.50,0.12,-0.31,-1.19,51.89,4.70
74.00,2.00,27.06,-20.19,16.38,0.19,-0.19,-0.25,51.89,4.70
74.00,0.00,286.44,-4.06,-132.38,1.00,-0.38,-1.00,51.90,4.72
74.00,1.00,281.19,-5.19,-36.50,0.81,-1.00,-1.81,51.90,4.72
74.00,2.00,27.06,-20.19,16.38,0.69,-0.31,-0.31,51.90,4.72
74.00,0.00,286.44,-4.06,-132.38,0.75,-0.44,-1.38,51.87,4.74
74.00,1.00,281.25,-5.19,-36.50,0.56,-0.69,-1.31,51.87,4.74
74.00,2.00,27.06,-20.19,16.38,1.56,0.31,-0.56,51.87,4.74
74.00,0.00,286.44,-4.12,-132.38,0.56,-0.31,-1.56,51.84,4.76
74.00,1.00,281.25,-5.19,-36.50,1.19,-0.94,-1.56,51.84,4.76
74.00,2.00,27.06,-20.19,16.31,1.56,-0.38,-0.12,51.84,4.76
74.00,0.00,286.50,-4.12,-132.38,0.44,0.31,-0.94,51.81,4.78
74.00,1.00,281.31,-5.19,-36.50,1.12,-1.00,-1.50,51.81,4.78
74.00,2.00,27.06,-20.19,16.31,1.56,0.06,-0.50,51.81,4.78
74.00,0.00,286.50,-4.12,-132.38,0.44,0.38,-0.44,51.79,4.80
74.00,1.00,281.31,-5.19,-36.50,0.44,-1.12,-0.88,51.79,4.80
74.00,2.00,27.06,-20.19,16.31,1.06,-0.25,-0.44,51.79,4.80
74.00,0.00,286.50,-4.12,-132.38,0.31,0.56,-0.12,51.79,4.82
74.00,1.00,281.38,-5.19,-36.50,0.25,-0.44,-0.25,51.79,4.82
74.00,2.00,27.06,-20.25,16.31,0.38,-0.38,-0.38,51.79,4.82
74.00,0.00,286.50,-4.12,-132.38,0.19,0.31,0.06,51.82,4.84
74.00,1.00,281.38,-5.19,-36.50,0.44,-0.31,-0.12,51.82,4.84
74.00,2.00,27.06,-20.19,16.31,-0.94,-1.38,0.44,51.82,4.84
74.00,0.00,286.50,-4.12,-132.38,0.44,-0.19,0.19,51.85,4.86
74.00,1.00,281.38,-5.19,-36.50,0.81,-0.19,-0.12,51.85,4.86
74.00,2.00,27.06,-20.19,16.31,-0.31,-1.38,0.50,51.85,4.86
74.00,0.00,286.50,-4.12,-132.38,0.75,-0.81,0.00,51.86,4.88
74.00,1.00,281.38,-5.19,-36.50,0.69,-0.69,-0.50,51.86,4.88
74.00,2.00,27.06,-20.19,16.31,0.31,-0.56,0.50,51.86,4.88
74.00,0.00,286.56,-4.12,-132.38,0.56,-1.00,-0.94,51.85,4.90
74.00,1.00,281.38,-5.19,-36.56,0.75,-0.75,-0.38,51.85,4.90
74.00,2.00,27.06,-20.19,16.31,0.94,0.31,0.56,51.85,4.90
74.00,0.00,286.62,-4.19,-132.44,1.06,-0.94,-1.38,51.86,4.92
74.00,1.00,281.38,-5.19,-36.56,0.75,-1.19,-0.69,51.86,4.92
74.00,2.00,27.06,-20.19,16.31,0.75,0.62,0.12,51.86,4.92
74.00,0.00,286.75,-4.25,-132.44,2.00,-2.31,-1.50,51.89,4.94
74.00,1.00,281.44,-5.19,-36.56,0.94,-1.44,-1.62,51.89,4.94
74.00,2.00,27.06,-20.19,16.31,0.69,0.19,-0.44,51.89,4.94
74.00,0.00,286.88,-4.31,-132.50,2.31,-2.75,-1.38,51.92,4.96
74.00,1.00,281.44,-5.19,-36.56,1.31,-1.56,-2.00,51.92,4.96
74.00,2.00,27.06,-20.19,16.31,1.50,-0.06,-1.12,51.92,4.96
74.00,0.00,287.00,-4.31,-132.50,2.62,-2.25,-1.25,51.94,4.98
74.00,1.00,281.50,-5.19,-36.62,1.56,-2.00,-1.69,51.94,4.98
74.00,2.00,27.12,-20.19,16.25,2.00,-0.19,-1.50,51.94,4.98
74.00,0.00,287.12,-4.38,-132.56,2.25,-2.38,-1.25,51.94,5.00
74.00,1.00,281.56,-5.12,-36.62,1.19,-2.62,-2.00,51.94,5.00
74.00,2.00,27.19,-20.19,16.25,2.25,-0.19,-1.94,51.94,5.00
