Iteration,IMUNo,OrientationX (deg),OrientationY,OrientationZ,GyroX (20rad/sec),GyroY,GyroZ,Elbow_Pos (rad),Time (sec)
79.00,0.00,287.50,-4.88,-97.88,0.38,0.88,0.75,0.02,0.00
79.00,1.00,291.44,-3.81,-37.88,0.56,0.94,0.38,0.02,0.00
79.00,2.00,29.81,-20.50,14.38,-0.38,-1.31,0.69,0.02,0.00
79.00,0.00,287.94,-5.06,-98.06,-0.25,1.88,-0.19,0.03,1.02
79.00,1.00,291.69,-4.00,-38.44,-1.12,0.50,-0.19,0.03,1.02
79.00,2.00,29.62,-20.75,14.44,-0.56,-0.25,0.75,0.03,1.02
79.00,0.00,287.94,-5.06,-98.12,-0.31,0.50,-0.56,0.04,1.04
79.00,1.00,291.69,-4.00,-38.44,-0.75,0.50,-0.19,0.04,1.04
79.00,2.00,29.62,-20.75,14.44,-0.62,-0.06,0.31,0.04,1.04
79.00,0.00,287.94,-5.06,-98.12,-0.31,-1.19,-1.12,0.04,1.06
79.00,1.00,291.69,-4.00,-38.38,-1.06,0.88,-0.31,0.04,1.06
79.00,2.00,29.62,-20.75,14.50,-0.19,0.19,0.00,0.04,1.06
79.00,0.00,288.00,-5.06,-98.06,-0.06,-1.56,-1.38,0.03,1.08
79.00,1.00,291.69,-4.00,-38.38,-0.56,0.38,-0.44,0.03,1.08
79.00,2.00,29.62,-20.75,14.50,0.06,0.25,0.00,0.03,1.08
79.00,0.00,288.06,-5.12,-98.06,-0.19,-1.19,-1.19,0.02,1.10
79.00,1.00,291.69,-4.00,-38.38,-0.44,0.00,-0.38,0.02,1.10
79.00,2.00,29.62,-20.75,14.50,0.44,0.06,-0.25,0.02,1.10
79.00,0.00,288.12,-5.12,-98.06,-0.12,-1.31,-0.75,0.00,1.12
79.00,1.00,291.69,-4.00,-38.38,-0.31,-0.19,-0.31,0.00,1.12
79.00,2.00,29.62,-20.75,14.50,0.44,-0.31,-0.19,0.00,1.12
79.00,0.00,288.12,-5.12,-98.06,-0.19,-0.81,-0.56,-0.02,1.14
79.00,1.00,291.69,-4.00,-38.38,-0.31,-0.19,-0.19,-0.02,1.14
79.00,2.00,29.62,-20.75,14.56,0.50,-0.12,0.12,-0.02,1.14
79.00,0.00,288.12,-5.12,-98.06,-0.06,-0.31,-0.25,-0.04,1.16
79.00,1.00,291.69,-4.00,-38.38,-0.31,-0.56,-0.38,-0.04,1.16
79.00,2.00,29.62,-20.81,14.56,0.56,-0.31,0.19,-0.04,1.16
79.00,0.00,288.12,-5.12,-98.06,-0.19,0.06,-0.38,-0.06,1.18
79.00,1.00,291.69,-4.00,-38.38,-0.50,-0.12,-0.38,-0.06,1.18
79.00,2.00,29.62,-20.81,14.56,0.50,0.12,0.12,-0.06,1.18
79.00,0.00,288.12,-5.12,-98.06,-0.06,-0.12,-0.50,-0.08,1.20
79.00,1.00,291.69,-4.00,-38.38,-0.50,-0.19,-0.38,-0.08,1.20
79.00,2.00,29.62,-20.81,14.56,0.62,-0.19,0.25,-0.08,1.20
79.00,0.00,288.12,-5.12,-98.06,-0.06,-0.31,-0.31,-0.11,1.22
79.00,1.00,291.69,-4.00,-38.38,-0.75,0.19,0.06,-0.11,1.22
79.00,2.00,29.62,-20.81,14.56,0.69,0.19,0.31,-0.11,1.22
79.00,0.00,288.12,-5.12,-98.06,-0.31,0.31,-0.31,-0.13,1.24
79.00,1.00,291.69,-4.00,-38.38,-0.50,-0.12,-0.19,-0.13,1.24
79.00,2.00,29.62,-20.81,14.56,0.38,-0.62,0.56,-0.13,1.24
79.00,0.00,288.12,-5.12,-98.06,-0.38,0.12,-0.06,-0.16,1.26
79.00,1.00,291.69,-4.00,-38.38,-0.12,-0.31,-0.31,-0.16,1.26
79.00,2.00,29.62,-20.81,14.56,0.62,-0.44,0.12,-0.16,1.26
79.00,0.00,288.12,-5.12,-98.06,-0.12,0.31,-0.06,-0.20,1.28
79.00,1.00,291.69,-4.00,-38.38,-0.44,-0.50,-0.38,-0.20,1.28
79.00,2.00,29.69,-20.81,14.56,1.44,-0.12,0.00,-0.20,1.28
79.00,0.00,288.12,-5.12,-98.06,-0.50,0.19,0.06,-0.24,1.30
79.00,1.00,291.69,-4.00,-38.38,-0.75,0.06,0.19,-0.24,1.30
79.00,2.00,29.69,-20.81,14.50,0.69,0.00,0.19,-0.24,1.30
79.00,0.00,288.12,-5.12,-98.06,-0.56,-0.12,-0.25,-0.28,1.32
79.00,1.00,291.69,-4.00,-38.38,-0.75,-0.12,0.31,-0.28,1.32
79.00,2.00,29.69,-20.81,14.50,0.69,-0.44,0.56,-0.28,1.32
79.00,0.00,288.12,-5.12,-98.06,-0.88,-0.25,-0.25,-0.32,1.34
79.00,1.00,291.69,-4.00,-38.31,-0.75,0.00,0.38,-0.32,1.34
79.00,2.00,29.62,-20.81,14.50,0.69,-0.56,0.94,-0.32,1.34
79.00,0.00,288.12,-5.12,-98.06,-0.88,-0.44,-0.12,-0.39,1.36
79.00,1.00,291.69,-4.00,-38.31,-1.19,0.00,0.50,-0.39,1.36
79.00,2.00,29.62,-20.81,14.50,1.25,-0.12,0.94,-0.39,1.36
79.00,0.00,288.06,-5.12,-98.06,-1.25,0.25,-0.12,-0.47,1.38
79.00,1.00,291.69,-4.00,-38.31,-1.12,0.00,0.25,-0.47,1.38
79.00,2.00,29.62,-20.88,14.44,1.44,-0.31,1.00,-0.47,1.38
79.00,0.00,288.06,-5.12,-98.00,-1.31,0.56,0.00,-0.53,1.40
79.00,1.00,291.69,-4.00,-38.25,-1.50,0.00,0.56,-0.53,1.40
79.00,2.00,29.62,-20.81,14.44,0.81,-1.19,0.88,-0.53,1.40
79.00,0.00,288.06,-5.12,-98.00,-1.00,1.06,0.31,-0.57,1.42
79.00,1.00,291.69,-4.00,-38.25,-1.50,0.06,0.94,-0.57,1.42
79.00,2.00,29.62,-20.81,14.44,0.38,-1.62,0.62,-0.57,1.42
79.00,0.00,288.06,-5.06,-98.00,-1.00,1.25,0.62,-0.62,1.44
79.00,1.00,291.69,-4.00,-38.25,-1.06,0.00,0.88,-0.62,1.44
79.00,2.00,29.56,-20.81,14.44,0.62,-1.38,1.06,-0.62,1.44
79.00,0.00,288.00,-5.06,-97.94,-0.88,1.56,0.81,-0.68,1.46
79.00,1.00,291.62,-4.00,-38.19,-0.75,-0.19,1.19,-0.68,1.46
79.00,2.00,29.56,-20.81,14.44,1.12,-1.19,1.19,-0.68,1.46
79.00,0.00,287.94,-5.06,-97.94,-0.81,1.50,1.12,-0.75,1.48
79.00,1.00,291.62,-4.00,-38.19,-0.12,0.00,0.88,-0.75,1.48
79.00,2.00,29.56,-20.81,14.38,1.38,-1.00,0.88,-0.75,1.48
79.00,0.00,287.88,-5.00,-97.94,-0.81,1.12,0.81,-0.79,1.50
79.00,1.00,291.62,-4.00,-38.19,-0.06,-0.12,0.69,-0.79,1.50
79.00,2.00,29.50,-20.75,14.38,0.50,-1.50,1.06,-0.79,1.50
79.00,0.00,287.81,-5.00,-97.94,-0.56,0.75,0.62,-0.81,1.52
79.00,1.00,291.62,-3.94,-38.19,-0.44,-0.62,0.19,-0.81,1.52
79.00,2.00,29.50,-20.75,14.38,0.06,-1.75,0.62,-0.81,1.52
79.00,0.00,287.81,-5.00,-97.94,-0.38,0.25,0.62,-0.81,1.54
79.00,1.00,291.62,-3.94,-38.19,-0.31,-0.62,0.38,-0.81,1.54
79.00,2.00,29.50,-20.75,14.38,-0.25,-0.94,0.50,-0.81,1.54
79.00,0.00,287.81,-5.00,-97.94,-0.06,0.38,0.31,-0.81,1.56
79.00,1.00,291.62,-3.94,-38.19,-0.06,-0.69,0.12,-0.81,1.56
79.00,2.00,29.50,-20.75,14.44,-0.19,-0.56,-0.12,-0.81,1.56
79.00,0.00,287.81,-5.00,-97.94,0.44,0.12,0.50,-0.78,1.58
79.00,1.00,291.62,-3.94,-38.19,0.38,-1.00,-0.56,-0.78,1.58
79.00,2.00,29.50,-20.75,14.44,-0.38,-0.69,-0.69,-0.78,1.58
79.00,0.00,287.81,-5.00,-97.94,1.00,-0.69,0.19,-0.75,1.60
79.00,1.00,291.69,-3.94,-38.19,0.88,-1.38,-0.94,-0.75,1.60
79.00,2.00,29.56,-20.75,14.50,0.00,-0.19,-1.12,-0.75,1.60
79.00,0.00,287.81,-5.00,-97.94,1.38,-1.62,-0.06,-0.75,1.62
79.00,1.00,291.69,-3.94,-38.25,1.62,-2.25,-1.62,-0.75,1.62
79.00,2.00,29.56,-20.75,14.50,1.44,0.62,-1.62,-0.75,1.62
79.00,0.00,287.88,-5.00,-98.00,1.69,-2.19,-0.19,-0.73,1.64
79.00,1.00,291.75,-3.88,-38.25,1.31,-2.00,-1.44,-0.73,1.64
79.00,2.00,29.62,-20.75,14.50,0.88,0.56,-2.31,-0.73,1.64
79.00,0.00,287.94,-5.00,-98.00,1.62,-2.50,-0.38,-0.67,1.66
79.00,1.00,291.81,-3.88,-38.31,1.31,-1.69,-0.81,-0.67,1.66
79.00,2.00,29.69,-20.75,14.56,-0.50,-0.81,-1.88,-0.67,1.66
79.00,0.00,288.00,-5.00,-98.06,1.31,-2.38,-0.31,-0.59,1.68
79.00,1.00,291.81,-3.88,-38.31,1.44,-2.25,-1.31,-0.59,1.68
79.00,2.00,29.69,-20.69,14.62,-1.38,-2.31,-1.50,-0.59,1.68
79.00,0.00,288.00,-5.00,-98.06,1.81,-1.69,-0.12,-0.51,1.70
79.00,1.00,291.88,-3.88,-38.38,2.56,-3.44,-2.44,-0.51,1.70
79.00,2.00,29.69,-20.62,14.69,-0.75,-1.25,-1.88,-0.51,1.70
79.00,0.00,288.06,-5.00,-98.12,2.94,-1.81,0.38,-0.41,1.72
79.00,1.00,291.94,-3.81,-38.38,2.75,-3.75,-2.38,-0.41,1.72
79.00,2.00,29.75,-20.62,14.69,-0.25,1.38,-3.25,-0.41,1.72
79.00,0.00,288.12,-5.00,-98.19,3.81,-2.31,0.50,-0.28,1.74
79.00,1.00,292.00,-3.81,-38.44,2.06,-3.31,-1.88,-0.28,1.74
79.00,2.00,29.88,-20.69,14.75,-0.62,3.62,-4.12,-0.28,1.74
79.00,0.00,288.12,-5.00,-98.25,3.94,-2.50,1.00,-0.11,1.76
79.00,1.00,292.06,-3.81,-38.44,1.38,-2.81,-0.94,-0.11,1.76
79.00,2.00,29.94,-20.75,14.81,-1.56,2.56,-3.19,-0.11,1.76
79.00,0.00,288.19,-5.00,-98.31,3.31,-3.44,1.00,0.02,1.78
79.00,1.00,292.12,-3.75,-38.50,1.88,-3.38,-0.38,0.02,1.78
79.00,2.00,29.94,-20.75,14.88,-1.12,0.31,-1.44,0.02,1.78
79.00,0.00,288.25,-4.94,-98.38,3.25,-3.56,1.44,0.12,1.80
79.00,1.00,292.12,-3.69,-38.50,2.38,-3.38,0.62,0.12,1.80
79.00,2.00,30.00,-20.75,14.88,-0.19,-0.75,-0.38,0.12,1.80
79.00,0.00,288.31,-4.94,-98.44,3.56,-2.81,2.44,0.23,1.82
79.00,1.00,292.12,-3.62,-38.56,2.62,-3.88,1.75,0.23,1.82
79.00,2.00,29.94,-20.75,14.88,0.06,-1.94,0.25,0.23,1.82
79.00,0.00,288.31,-4.88,-98.50,3.62,-2.00,3.88,0.31,1.84
79.00,1.00,292.12,-3.56,-38.62,3.25,-4.88,2.50,0.31,1.84
79.00,2.00,29.94,-20.75,14.88,1.00,-4.00,0.94,0.31,1.84
79.00,0.00,288.19,-4.75,-98.56,3.25,-0.50,5.12,0.32,1.86
79.00,1.00,292.12,-3.44,-38.69,3.56,-4.88,3.00,0.32,1.86
79.00,2.00,29.94,-20.69,14.81,2.81,-4.00,0.88,0.32,1.86
79.00,0.00,288.12,-4.62,-98.62,2.88,0.06,5.81,0.33,1.88
79.00,1.00,292.06,-3.31,-38.75,2.44,-4.81,3.94,0.33,1.88
79.00,2.00,29.88,-20.62,14.75,2.62,-4.38,1.19,0.33,1.88
79.00,0.00,288.00,-4.50,-98.69,1.81,0.94,5.88,0.32,1.90
79.00,1.00,292.00,-3.25,-38.75,1.69,-4.06,4.94,0.32,1.90
79.00,2.00,29.88,-20.50,14.69,2.00,-5.56,2.38,0.32,1.90
79.00,0.00,287.81,-4.44,-98.69,0.50,2.62,5.75,0.28,1.92
79.00,1.00,291.94,-3.12,-38.81,1.62,-4.19,5.38,0.28,1.92
79.00,2.00,29.75,-20.50,14.62,2.06,-6.56,4.00,0.28,1.92
79.00,0.00,287.62,-4.25,-98.69,-1.38,3.50,6.50,0.15,1.94
79.00,1.00,291.88,-3.00,-38.81,0.94,-3.88,7.62,0.15,1.94
79.00,2.00,29.69,-20.44,14.50,2.81,-7.94,4.75,0.15,1.94
79.00,0.00,287.38,-4.12,-98.62,-3.44,4.94,7.44,-0.02,1.96
79.00,1.00,291.75,-2.88,-38.81,-0.06,-3.81,8.56,-0.02,1.96
79.00,2.00,29.56,-20.31,14.44,2.38,-9.62,4.56,-0.02,1.96
79.00,0.00,287.12,-4.00,-98.56,-3.06,4.94,7.31,-0.17,1.98
79.00,1.00,291.62,-2.69,-38.81,-0.25,-4.88,7.81,-0.17,1.98
79.00,2.00,29.44,-20.12,14.38,1.62,-9.94,4.38,-0.17,1.98
79.00,0.00,286.88,-3.81,-98.50,-2.12,5.25,6.12,-0.28,2.00
79.00,1.00,291.50,-2.56,-38.81,0.25,-4.94,6.81,-0.28,2.00
79.00,2.00,29.38,-20.00,14.31,1.56,-8.25,3.75,-0.28,2.00
79.00,0.00,286.69,-3.75,-98.50,-0.81,4.06,4.69,-0.35,2.02
79.00,1.00,291.44,-2.44,-38.88,0.12,-4.19,5.81,-0.35,2.02
79.00,2.00,29.31,-19.88,14.25,1.75,-6.31,2.50,-0.35,2.02
79.00,0.00,286.56,-3.62,-98.50,-0.25,0.94,3.38,-0.44,2.04
79.00,1.00,291.38,-2.31,-38.88,0.81,-3.75,3.75,-0.44,2.04
79.00,2.00,29.25,-19.81,14.19,2.56,-4.00,1.25,-0.44,2.04
79.00,0.00,286.56,-3.62,-98.50,0.25,-1.62,1.94,-0.52,2.06
79.00,1.00,291.31,-2.19,-38.88,0.31,-3.31,2.25,-0.52,2.06
79.00,2.00,29.25,-19.75,14.12,2.94,-2.19,0.19,-0.52,2.06
79.00,0.00,286.56,-3.62,-98.50,0.50,-3.38,0.56,-0.56,2.08
79.00,1.00,291.31,-2.12,-38.88,0.50,-3.00,1.44,-0.56,2.08
79.00,2.00,29.25,-19.69,14.06,1.81,-1.50,-0.81,-0.56,2.08
79.00,0.00,286.69,-3.62,-98.50,0.62,-5.19,-0.50,-0.56,2.10
79.00,1.00,291.25,-2.06,-38.88,0.81,-1.94,1.88,-0.56,2.10
79.00,2.00,29.31,-19.69,14.06,0.56,-0.81,-0.88,-0.56,2.10
79.00,0.00,286.81,-3.62,-98.50,0.69,-5.38,-0.94,-0.52,2.12
79.00,1.00,291.25,-2.00,-38.88,0.44,-1.00,2.62,-0.52,2.12
79.00,2.00,29.31,-19.62,14.06,-0.62,-0.62,-0.56,-0.52,2.12
79.00,0.00,286.94,-3.69,-98.50,0.19,-5.75,-0.50,-0.46,2.14
79.00,1.00,291.19,-1.94,-38.94,0.69,-1.62,3.44,-0.46,2.14
79.00,2.00,29.31,-19.62,14.12,-1.75,-1.25,-0.25,-0.46,2.14
79.00,0.00,287.06,-3.69,-98.50,0.25,-6.12,0.38,-0.39,2.16
79.00,1.00,291.12,-1.88,-38.94,1.25,-1.31,3.75,-0.39,2.16
79.00,2.00,29.25,-19.62,14.12,-2.12,-0.94,0.69,-0.39,2.16
79.00,0.00,287.12,-3.62,-98.50,0.88,-6.19,1.69,-0.28,2.18
79.00,1.00,291.06,-1.75,-38.94,1.75,-1.44,4.06,-0.28,2.18
79.00,2.00,29.25,-19.56,14.19,-2.69,-2.06,1.44,-0.28,2.18
79.00,0.00,287.19,-3.56,-98.56,2.31,-5.62,2.81,-0.15,2.20
79.00,1.00,291.00,-1.75,-39.00,3.00,-1.62,4.62,-0.15,2.20
79.00,2.00,29.19,-19.56,14.25,-1.94,-3.25,1.81,-0.15,2.20
79.00,0.00,287.19,-3.44,-98.62,4.00,-5.50,4.19,0.02,2.22
79.00,1.00,290.94,-1.62,-39.06,4.00,-2.06,4.31,0.02,2.22
79.00,2.00,29.19,-19.50,14.31,-1.75,-3.06,1.00,0.02,2.22
79.00,0.00,287.19,-3.38,-98.75,5.38,-4.69,5.94,0.18,2.24
79.00,1.00,290.88,-1.56,-39.19,4.56,-2.25,3.38,0.18,2.24
79.00,2.00,29.19,-19.44,14.31,0.06,-3.19,-0.81,0.18,2.24
79.00,0.00,287.19,-3.25,-98.88,7.75,-3.19,5.50,0.37,2.26
79.00,1.00,290.81,-1.50,-39.25,4.31,-2.62,1.94,0.37,2.26
79.00,2.00,29.19,-19.38,14.31,1.44,-3.44,-1.94,0.37,2.26
79.00,0.00,287.19,-3.19,-99.06,11.44,-5.94,4.19,0.67,2.28
79.00,1.00,290.81,-1.44,-39.31,4.06,-2.00,0.69,0.67,2.28
79.00,2.00,29.25,-19.31,14.31,1.44,-2.38,-4.00,0.67,2.28
79.00,0.00,287.38,-3.19,-99.31,16.56,-9.88,1.94,1.19,2.30
79.00,1.00,290.81,-1.38,-39.44,2.25,-0.56,0.75,1.19,2.30
79.00,2.00,29.38,-19.31,14.31,-0.62,-0.44,-4.94,1.19,2.30
79.00,0.00,287.75,-3.25,-99.75,22.62,-16.31,-2.25,2.00,2.32
79.00,1.00,290.81,-1.38,-39.50,1.25,0.38,-0.25,2.00,2.32
79.00,2.00,29.44,-19.25,14.44,-4.19,-0.38,-5.94,2.00,2.32
79.00,0.00,288.44,-3.44,-100.25,30.38,-25.69,-7.88,3.10,2.34
79.00,1.00,290.81,-1.38,-39.50,0.25,0.19,-0.56,3.10,2.34
79.00,2.00,29.56,-19.25,14.56,-6.19,-0.31,-6.88,3.10,2.34
79.00,0.00,289.50,-3.75,-100.94,39.81,-34.75,-13.56,4.49,2.36
79.00,1.00,290.81,-1.38,-39.50,0.44,-0.88,-0.88,4.49,2.36
79.00,2.00,29.69,-19.19,14.75,-6.50,0.44,-7.94,4.49,2.36
79.00,0.00,290.94,-4.25,-101.81,49.62,-45.75,-17.75,6.13,2.38
79.00,1.00,290.81,-1.38,-39.56,0.81,-1.31,-1.50,6.13,2.38
79.00,2.00,29.81,-19.19,14.94,-4.62,0.75,-8.69,6.13,2.38
79.00,0.00,292.69,-4.81,-102.81,57.69,-52.69,-17.88,7.95,2.40
79.00,1.00,290.88,-1.31,-39.56,1.06,-2.38,-1.94,7.95,2.40
79.00,2.00,30.00,-19.12,15.06,-2.69,0.25,-8.31,7.95,2.40
79.00,0.00,294.44,-5.38,-103.88,61.06,-48.56,-17.25,9.77,2.42
79.00,1.00,290.94,-1.38,-39.56,3.69,-4.12,-2.81,9.77,2.42
79.00,2.00,30.12,-19.12,15.12,0.38,1.81,-7.75,9.77,2.42
79.00,0.00,296.12,-5.88,-105.12,67.12,-41.31,-14.12,11.68,2.44
79.00,1.00,291.06,-1.31,-39.62,5.31,-4.56,-3.62,11.68,2.44
79.00,2.00,30.31,-19.12,15.19,3.69,0.25,-6.44,11.68,2.44
79.00,0.00,297.38,-6.25,-106.44,73.81,-29.88,-9.69,13.72,2.46
79.00,1.00,291.19,-1.31,-39.69,6.00,-5.56,-3.88,13.72,2.46
79.00,2.00,30.44,-19.06,15.19,6.25,-2.69,-4.44,13.72,2.46
79.00,0.00,298.19,-6.44,-107.88,76.12,-14.75,-2.50,15.77,2.48
79.00,1.00,291.31,-1.25,-39.75,7.06,-7.44,-2.69,15.77,2.48
79.00,2.00,30.50,-19.00,15.06,7.88,-5.94,-2.50,15.77,2.48
79.00,0.00,298.94,-6.44,-109.38,79.12,-4.94,4.00,17.90,2.50
79.00,1.00,291.38,-1.19,-39.88,7.44,-7.88,-2.44,17.90,2.50
79.00,2.00,30.50,-18.88,14.94,8.44,-9.12,-1.50,17.90,2.50
79.00,0.00,298.94,-6.25,-110.88,75.81,6.62,7.69,19.86,2.52
79.00,1.00,291.50,-1.12,-40.00,8.31,-9.81,-2.00,19.86,2.52
79.00,2.00,30.56,-18.69,14.75,10.94,-10.69,-0.94,19.86,2.52
79.00,0.00,299.12,-6.06,-112.38,80.69,5.50,10.62,21.93,2.54
79.00,1.00,291.62,-1.00,-40.19,9.19,-9.56,-2.00,21.93,2.54
79.00,2.00,30.56,-18.44,14.56,11.94,-12.94,-0.94,21.93,2.54
79.00,0.00,299.00,-5.75,-114.06,86.25,4.62,15.00,24.26,2.56
79.00,1.00,291.75,-0.88,-40.38,9.12,-9.62,-1.94,24.26,2.56
79.00,2.00,30.56,-18.12,14.31,8.69,-16.62,-0.38,24.26,2.56
79.00,0.00,298.88,-5.44,-115.69,82.50,2.62,15.69,26.47,2.58
79.00,1.00,291.81,-0.75,-40.56,9.12,-11.94,-0.31,26.47,2.58
79.00,2.00,30.56,-17.81,14.12,9.12,-16.56,-0.75,26.47,2.58
79.00,0.00,299.00,-5.25,-117.19,79.56,-4.31,11.69,28.62,2.60
79.00,1.00,291.94,-0.56,-40.69,8.38,-12.50,0.06,28.62,2.60
79.00,2.00,30.62,-17.50,13.94,8.25,-16.06,-1.69,28.62,2.60
79.00,0.00,299.25,-5.19,-118.69,77.56,-6.56,7.94,30.71,2.62
79.00,1.00,292.00,-0.38,-40.88,9.56,-11.69,-0.75,30.71,2.62
79.00,2.00,30.62,-17.25,13.81,8.12,-13.56,-3.44,30.71,2.62
79.00,0.00,299.62,-5.12,-120.19,79.06,-10.88,8.00,32.87,2.64
79.00,1.00,292.12,-0.19,-41.06,8.19,-12.50,-0.62,32.87,2.64
79.00,2.00,30.75,-16.94,13.75,7.38,-13.94,-4.25,32.87,2.64
79.00,0.00,300.25,-5.12,-121.62,76.56,-14.31,8.25,34.86,2.66
79.00,1.00,292.19,-0.06,-41.19,8.75,-13.25,-0.88,34.86,2.66
79.00,2.00,30.81,-16.75,13.56,10.75,-10.31,-5.25,34.86,2.66
79.00,0.00,300.88,-5.12,-123.06,73.31,-15.25,9.56,36.68,2.68
79.00,1.00,292.38,0.06,-41.38,9.31,-14.38,-2.69,36.68,2.68
79.00,2.00,30.94,-16.50,13.44,12.56,-12.00,-5.94,36.68,2.68
79.00,0.00,301.31,-5.12,-124.38,69.88,-11.12,10.69,38.42,2.70
79.00,1.00,292.50,0.25,-41.56,10.12,-14.00,-3.12,38.42,2.70
79.00,2.00,31.06,-16.25,13.19,12.19,-12.12,-7.25,38.42,2.70
79.00,0.00,301.75,-5.06,-125.69,65.50,-9.50,11.38,40.02,2.72
79.00,1.00,292.69,0.44,-41.75,10.00,-14.56,-2.94,40.02,2.72
79.00,2.00,31.25,-16.00,13.00,12.44,-13.06,-7.06,40.02,2.72
79.00,0.00,302.06,-4.94,-126.88,63.75,-8.50,13.81,41.53,2.74
79.00,1.00,292.88,0.56,-42.00,10.38,-15.50,-2.94,41.53,2.74
79.00,2.00,31.38,-15.75,12.81,13.62,-13.06,-7.44,41.53,2.74
79.00,0.00,302.25,-4.75,-128.00,58.00,-5.62,15.56,42.77,2.76
79.00,1.00,293.06,0.75,-42.19,12.38,-17.81,-3.88,42.77,2.76
79.00,2.00,31.56,-15.44,12.56,16.94,-12.38,-9.75,42.77,2.76
79.00,0.00,302.38,-4.56,-129.06,52.81,-4.50,16.19,43.77,2.78
79.00,1.00,293.25,1.00,-42.44,12.88,-18.31,-3.69,43.77,2.78
79.00,2.00,31.81,-15.19,12.25,19.62,-11.81,-12.44,43.77,2.78
79.00,0.00,302.44,-4.50,-129.50,49.69,-5.06,17.06,44.67,2.80
79.00,1.00,293.44,1.19,-42.69,11.19,-18.00,-4.12,44.67,2.80
79.00,2.00,32.12,-14.88,11.94,19.56,-13.12,-13.06,44.67,2.80
79.00,0.00,302.50,-4.19,-130.88,45.31,-3.88,18.19,45.42,2.82
79.00,1.00,293.69,1.38,-42.94,11.50,-19.06,-4.69,45.42,2.82
79.00,2.00,32.44,-14.62,11.62,20.38,-10.88,-14.44,45.42,2.82
79.00,0.00,302.44,-4.06,-131.25,39.12,-4.44,17.00,45.97,2.84
79.00,1.00,293.94,1.62,-43.12,11.88,-17.62,-5.00,45.97,2.84
79.00,2.00,32.75,-14.38,11.25,21.12,-10.56,-16.31,45.97,2.84
79.00,0.00,302.56,-3.81,-132.19,33.06,-5.62,14.12,46.36,2.86
79.00,1.00,294.19,1.75,-43.38,10.94,-18.06,-5.69,46.36,2.86
79.00,2.00,33.12,-14.06,10.94,20.12,-10.81,-16.19,46.36,2.86
79.00,0.00,302.62,-3.81,-132.50,30.56,-8.81,12.75,46.64,2.88
79.00,1.00,294.44,1.94,-43.56,10.12,-17.56,-5.56,46.64,2.88
79.00,2.00,33.44,-13.81,10.62,21.12,-11.50,-16.19,46.64,2.88
79.00,0.00,302.88,-3.75,-133.06,29.75,-12.25,14.31,46.88,2.90
79.00,1.00,294.69,2.12,-43.81,10.38,-17.50,-5.38,46.88,2.90
79.00,2.00,33.75,-13.56,10.25,21.88,-9.31,-15.94,46.88,2.90
79.00,0.00,303.25,-3.69,-133.56,24.38,-14.31,13.12,47.01,2.92
79.00,1.00,294.88,2.31,-44.00,10.69,-16.81,-4.06,47.01,2.92
79.00,2.00,34.12,-13.38,9.94,20.06,-7.75,-15.06,47.01,2.92
79.00,0.00,303.81,-3.75,-134.00,19.81,-17.38,9.81,47.05,2.94
79.00,1.00,295.06,2.50,-44.25,9.19,-16.94,-4.50,47.05,2.94
79.00,2.00,34.44,-13.19,9.62,18.50,-6.62,-14.50,47.05,2.94
79.00,0.00,304.50,-3.81,-134.38,18.19,-18.06,7.88,47.09,2.96
79.00,1.00,295.31,2.62,-44.38,7.75,-16.25,-4.44,47.09,2.96
79.00,2.00,34.75,-13.06,9.31,16.94,-5.88,-14.56,47.09,2.96
79.00,0.00,305.25,-4.00,-134.69,16.00,-16.38,7.56,47.07,2.98
79.00,1.00,295.50,2.81,-44.56,6.19,-15.56,-3.75,47.07,2.98
79.00,2.00,35.00,-12.94,9.06,16.56,-5.25,-12.94,47.07,2.98
79.00,0.00,305.94,-4.06,-134.94,12.00,-13.06,5.88,46.91,3.00
79.00,1.00,295.69,2.94,-44.69,6.31,-15.19,-4.25,46.91,3.00
79.00,2.00,35.25,-12.81,8.75,17.25,-4.12,-11.12,46.91,3.00
79.00,0.00,114.50,-4.19,-135.12,10.00,-9.25,3.94,46.60,3.02
79.00,1.00,295.88,3.12,-44.81,6.69,-14.25,-3.69,46.60,3.02
79.00,2.00,35.50,-12.75,8.44,20.19,-3.19,-9.19,46.60,3.02
79.00,0.00,114.69,-4.25,-135.31,9.81,-7.38,4.38,46.39,3.04
79.00,1.00,296.06,3.25,-44.94,4.75,-13.06,-3.81,46.39,3.04
79.00,2.00,35.69,-12.56,8.12,16.75,-6.19,-7.94,46.39,3.04
79.00,0.00,114.81,-4.19,-135.50,8.19,-0.50,6.50,46.22,3.06
79.00,1.00,296.25,3.38,-45.00,4.06,-12.31,-3.94,46.22,3.06
79.00,2.00,35.88,-12.44,7.88,13.94,-7.06,-6.44,46.22,3.06
79.00,0.00,115.00,-4.00,-135.81,8.75,2.50,4.81,46.05,3.08
79.00,1.00,296.38,3.44,-45.12,4.50,-11.00,-3.31,46.05,3.08
79.00,2.00,36.00,-12.31,7.56,14.44,-7.62,-5.12,46.05,3.08
79.00,0.00,115.06,-3.88,-136.19,9.25,3.69,3.38,45.90,3.10
79.00,1.00,296.50,3.56,-45.25,5.94,-10.75,-2.44,45.90,3.10
79.00,2.00,36.06,-12.19,7.31,14.06,-5.38,-4.00,45.90,3.10
79.00,0.00,115.06,-3.69,-136.56,10.81,6.38,0.62,45.81,3.12
79.00,1.00,296.69,3.69,-45.44,7.12,-11.00,-2.81,45.81,3.12
79.00,2.00,36.19,-12.06,7.06,13.94,-3.31,-2.69,45.81,3.12
79.00,0.00,115.06,-3.50,-137.00,11.44,8.00,0.06,45.68,3.14
79.00,1.00,296.81,3.81,-45.62,9.50,-11.75,-3.19,45.68,3.14
79.00,2.00,36.25,-12.00,6.81,15.69,-2.81,-2.38,45.68,3.14
79.00,0.00,115.00,-3.31,-137.44,13.75,11.50,1.50,45.58,3.16
79.00,1.00,296.94,3.94,-45.81,10.00,-11.12,-2.38,45.58,3.16
79.00,2.00,36.31,-11.94,6.50,17.12,-2.56,-3.00,45.58,3.16
79.00,0.00,115.00,-3.00,-137.81,14.25,14.00,2.94,45.51,3.18
79.00,1.00,297.06,4.06,-46.06,9.69,-8.56,-0.50,45.51,3.18
79.00,2.00,36.38,-11.88,6.12,16.62,-3.88,-2.56,45.51,3.18
79.00,0.00,114.75,-2.69,-138.19,14.56,14.62,3.50,45.55,3.20
79.00,1.00,297.12,4.12,-46.31,8.19,-8.31,0.44,45.55,3.20
79.00,2.00,36.44,-11.81,5.88,13.25,-6.44,-0.12,45.55,3.20
79.00,0.00,114.69,-2.38,-138.56,15.62,17.00,3.62,45.74,3.22
79.00,1.00,297.12,4.25,-46.50,7.56,-7.06,1.19,45.74,3.22
79.00,2.00,36.44,-11.62,5.69,9.31,-8.94,1.25,45.74,3.22
79.00,0.00,114.62,-2.12,-138.94,18.31,16.56,3.38,46.05,3.24
79.00,1.00,297.12,4.38,-46.69,6.56,-6.12,1.50,46.05,3.24
79.00,2.00,36.38,-11.50,5.50,8.12,-7.62,2.38,46.05,3.24
79.00,0.00,114.31,-1.81,-139.31,21.38,14.94,3.56,46.48,3.26
79.00,1.00,297.12,4.50,-46.81,6.12,-5.19,1.62,46.48,3.26
79.00,2.00,36.38,-11.38,5.31,7.12,-5.25,2.31,46.48,3.26
79.00,0.00,114.31,-1.56,-139.81,23.25,12.88,3.62,47.06,3.28
79.00,1.00,297.12,4.56,-46.94,5.38,-3.00,1.88,47.06,3.28
79.00,2.00,36.31,-11.31,5.19,3.88,-2.81,2.75,47.06,3.28
79.00,0.00,114.06,-1.50,-140.38,24.50,9.56,2.62,47.78,3.30
79.00,1.00,297.12,4.62,-47.06,3.25,-1.00,1.94,47.78,3.30
79.00,2.00,36.25,-11.31,5.12,0.62,-2.44,3.56,47.78,3.30
79.00,0.00,114.00,-1.50,-141.00,25.31,3.19,1.25,48.62,3.32
79.00,1.00,297.06,4.62,-47.12,2.00,1.50,2.62,48.62,3.32
79.00,2.00,36.19,-11.25,5.12,-2.75,-1.88,5.12,48.62,3.32
79.00,0.00,114.00,-1.62,-141.56,24.50,-1.69,0.56,49.51,3.34
79.00,1.00,296.94,4.69,-47.19,-0.50,2.81,2.62,49.51,3.34
79.00,2.00,36.00,-11.25,5.12,-4.81,-2.56,6.06,49.51,3.34
79.00,0.00,113.88,-1.75,-142.00,20.81,-6.44,-1.75,50.28,3.36
79.00,1.00,296.88,4.69,-47.25,-1.00,3.69,2.94,50.28,3.36
79.00,2.00,35.88,-11.25,5.06,-4.81,-1.12,6.00,50.28,3.36
79.00,0.00,113.88,-1.94,-142.38,16.44,-10.19,-4.31,50.97,3.38
79.00,1.00,296.75,4.69,-47.31,-3.50,5.56,3.00,50.97,3.38
79.00,2.00,35.75,-11.25,5.00,-6.50,0.12,6.19,50.97,3.38
79.00,0.00,113.56,-2.19,-142.69,12.94,-11.38,-5.62,51.59,3.40
79.00,1.00,296.62,4.69,-47.25,-4.12,7.25,2.81,51.59,3.40
79.00,2.00,35.56,-11.31,5.06,-7.56,0.44,7.94,51.59,3.40
79.00,0.00,113.56,-2.38,-143.00,11.31,-10.69,-4.88,52.18,3.42
79.00,1.00,296.50,4.62,-47.25,-3.00,8.56,5.44,52.18,3.42
79.00,2.00,35.38,-11.31,5.12,-8.25,0.38,9.56,52.18,3.42
79.00,0.00,113.56,-2.56,-143.19,7.50,-9.62,-5.12,52.68,3.44
79.00,1.00,296.31,4.62,-47.19,-2.44,8.69,5.62,52.68,3.44
79.00,2.00,35.19,-11.31,5.25,-9.12,0.06,10.62,52.68,3.44
79.00,0.00,113.31,-2.69,-143.25,1.69,-6.75,-6.50,52.95,3.46
79.00,1.00,296.12,4.56,-47.12,-3.12,8.56,4.69,52.95,3.46
79.00,2.00,34.94,-11.38,5.38,-7.50,0.94,10.75,52.95,3.46
79.00,0.00,113.19,-2.75,-143.25,-3.88,-2.56,-8.25,53.05,3.48
79.00,1.00,296.00,4.50,-47.06,-3.38,9.25,4.69,53.05,3.48
79.00,2.00,34.69,-11.44,5.44,-7.25,1.31,11.12,53.05,3.48
79.00,0.00,112.94,-2.75,-143.12,-8.81,1.19,-8.19,53.04,3.50
79.00,1.00,295.81,4.50,-47.00,-4.50,10.62,5.94,53.04,3.50
79.00,2.00,34.50,-11.50,5.50,-8.31,2.38,11.75,53.04,3.50
79.00,0.00,112.81,-2.81,-142.94,-11.25,3.88,-6.25,53.03,3.52
79.00,1.00,295.56,4.44,-46.94,-5.44,12.69,7.12,53.03,3.52
79.00,2.00,34.19,-11.56,5.62,-11.00,2.50,13.19,53.03,3.52
79.00,0.00,112.69,-2.75,-142.69,-11.75,5.62,-3.88,53.11,3.54
79.00,1.00,295.31,4.38,-46.81,-7.12,13.69,7.06,53.11,3.54
79.00,2.00,33.88,-11.62,5.81,-14.44,1.00,14.44,53.11,3.54
79.00,0.00,112.25,-2.69,-142.44,-16.44,9.69,-4.62,53.09,3.56
79.00,1.00,295.06,4.31,-46.62,-8.12,13.81,7.31,53.09,3.56
79.00,2.00,33.62,-11.62,6.06,-15.56,-0.25,13.44,53.09,3.56
79.00,0.00,112.00,-2.62,-142.06,-21.94,12.44,-11.19,52.82,3.58
79.00,1.00,294.81,4.25,-46.50,-8.94,14.06,7.12,52.82,3.58
79.00,2.00,33.31,-11.69,6.25,-13.06,2.50,11.81,52.82,3.58
79.00,0.00,111.50,-2.56,-141.56,-25.56,17.12,-16.25,52.46,3.60
79.00,1.00,294.56,4.12,-46.25,-9.19,14.00,6.06,52.46,3.60
79.00,2.00,33.06,-11.75,6.50,-13.56,1.62,12.56,52.46,3.60
79.00,0.00,111.06,-2.50,-141.12,-25.75,19.62,-16.25,52.08,3.62
79.00,1.00,294.31,4.00,-46.06,-9.06,14.06,5.50,52.08,3.62
79.00,2.00,32.81,-11.81,6.69,-13.06,1.69,12.44,52.08,3.62
79.00,0.00,110.56,-2.38,-140.62,-25.75,21.19,-17.44,51.75,3.64
79.00,1.00,294.12,3.94,-45.88,-9.06,14.62,5.44,51.75,3.64
79.00,2.00,32.56,-11.94,6.94,-14.88,2.88,12.19,51.75,3.64
79.00,0.00,109.88,-2.25,-140.12,-24.81,21.62,-19.38,51.50,3.66
79.00,1.00,293.88,3.81,-45.69,-9.44,13.75,5.19,51.50,3.66
79.00,2.00,32.31,-12.00,7.19,-16.50,4.12,11.25,51.50,3.66
79.00,0.00,109.31,-2.25,-139.69,-22.75,21.44,-21.19,51.31,3.68
79.00,1.00,293.69,3.69,-45.50,-11.00,13.88,4.44,51.31,3.68
79.00,2.00,32.06,-12.12,7.44,-16.62,4.31,11.31,51.31,3.68
79.00,0.00,108.25,-2.19,-139.38,-19.88,19.44,-21.06,51.17,3.70
79.00,1.00,293.50,3.56,-45.25,-10.62,13.81,4.38,51.17,3.70
79.00,2.00,31.81,-12.25,7.75,-15.19,3.56,11.38,51.17,3.70
79.00,0.00,107.75,-2.19,-139.06,-17.50,19.94,-19.38,51.10,3.72
79.00,1.00,293.31,3.44,-45.06,-10.94,14.31,4.50,51.10,3.72
79.00,2.00,31.56,-12.38,8.00,-15.12,3.50,11.81,51.10,3.72
79.00,0.00,107.19,-2.12,-138.75,-16.94,20.19,-19.25,51.07,3.74
79.00,1.00,293.12,3.25,-44.81,-11.56,14.25,4.25,51.07,3.74
79.00,2.00,31.25,-12.50,8.25,-15.81,2.19,13.50,51.07,3.74
79.00,0.00,106.50,-2.06,-138.44,-17.75,20.56,-20.62,50.98,3.76
79.00,1.00,292.94,3.12,-44.56,-11.19,14.06,3.88,50.98,3.76
79.00,2.00,30.94,-12.56,8.44,-15.00,1.31,13.62,50.98,3.76
79.00,0.00,105.94,-2.00,-138.19,-15.31,19.44,-20.50,50.92,3.78
79.00,1.00,292.75,3.00,-44.38,-10.88,15.38,4.62,50.92,3.78
79.00,2.00,30.69,-12.62,8.69,-13.25,2.12,13.31,50.92,3.78
79.00,0.00,105.19,-1.94,-138.00,-11.06,19.25,-16.94,50.98,3.80
79.00,1.00,292.56,2.81,-44.12,-10.31,16.12,4.81,50.98,3.80
79.00,2.00,30.38,-12.75,8.88,-12.88,2.94,13.88,50.98,3.80
79.00,0.00,104.75,-1.88,-137.81,-9.06,18.81,-13.69,51.13,3.82
79.00,1.00,292.31,2.69,-43.94,-11.19,16.06,5.19,51.13,3.82
79.00,2.00,30.06,-12.81,9.06,-14.25,1.50,15.75,51.13,3.82
79.00,0.00,104.38,-1.81,-137.69,-9.69,18.44,-14.94,51.28,3.84
79.00,1.00,292.12,2.50,-43.69,-11.56,15.81,5.06,51.28,3.84
79.00,2.00,29.69,-12.88,9.31,-14.50,0.75,16.00,51.28,3.84
79.00,0.00,103.81,-1.75,-137.50,-7.75,17.62,-15.75,51.48,3.86
79.00,1.00,291.88,2.38,-43.44,-10.75,16.94,5.50,51.48,3.86
79.00,2.00,29.38,-12.94,9.50,-14.56,0.81,15.75,51.48,3.86
79.00,0.00,103.38,-1.69,-137.38,-6.38,17.25,-14.81,51.71,3.88
79.00,1.00,291.62,2.19,-43.25,-10.81,17.44,4.31,51.71,3.88
79.00,2.00,29.06,-13.00,9.69,-13.81,1.88,15.88,51.71,3.88
79.00,0.00,102.75,-1.62,-137.31,-6.25,16.69,-14.62,51.96,3.90
79.00,1.00,291.44,2.00,-43.00,-11.38,18.31,3.00,51.96,3.90
79.00,2.00,28.69,-13.12,9.94,-14.81,2.12,16.00,51.96,3.90
79.00,0.00,102.31,-1.56,-137.19,-4.44,15.94,-15.00,52.38,3.92
79.00,1.00,291.25,1.81,-42.75,-11.69,17.94,2.50,52.38,3.92
79.00,2.00,28.38,-13.19,10.19,-18.38,2.00,15.56,52.38,3.92
79.00,0.00,101.94,-1.56,-137.12,-1.88,14.38,-14.94,52.81,3.94
79.00,1.00,291.06,1.56,-42.56,-10.19,17.31,2.62,52.81,3.94
79.00,2.00,28.06,-13.31,10.50,-15.94,2.75,13.06,52.81,3.94
79.00,0.00,101.25,-1.56,-137.12,-1.44,12.75,-14.38,53.18,3.96
79.00,1.00,290.94,1.38,-42.38,-8.81,15.62,1.38,53.18,3.96
79.00,2.00,27.81,-13.44,10.69,-13.81,3.06,11.19,53.18,3.96
79.00,0.00,100.94,-1.56,-137.12,-1.94,11.12,-13.19,53.50,3.98
79.00,1.00,290.81,1.12,-42.19,-8.31,13.06,-1.50,53.50,3.98
79.00,2.00,27.62,-13.50,10.94,-12.56,3.12,9.81,53.50,3.98
79.00,0.00,100.56,-1.62,-137.06,-2.44,9.38,-12.81,53.81,4.00
79.00,1.00,290.81,0.94,-42.06,-7.62,12.00,-1.62,53.81,4.00
79.00,2.00,27.38,-13.62,11.25,-12.81,1.38,8.81,53.81,4.00
79.00,0.00,100.31,-1.69,-136.94,-0.81,7.06,-11.38,54.11,4.02
79.00,1.00,290.75,0.75,-41.94,-5.50,10.38,-2.31,54.11,4.02
79.00,2.00,27.25,-13.69,11.56,-10.56,1.12,7.06,54.11,4.02
79.00,0.00,100.06,-1.75,-136.81,-2.12,5.75,-10.81,54.32,4.04
79.00,1.00,290.75,0.56,-41.81,-3.88,9.38,-4.19,54.32,4.04
79.00,2.00,27.19,-13.69,11.69,-9.19,2.38,5.38,54.32,4.04
79.00,0.00,99.69,-1.81,-136.69,-4.06,4.12,-12.25,54.44,4.06
79.00,1.00,290.75,0.38,-41.69,-5.69,7.69,-4.88,54.44,4.06
79.00,2.00,27.00,-13.81,12.00,-8.19,2.81,4.50,54.44,4.06
79.00,0.00,99.38,-1.94,-136.56,-4.56,3.00,-12.69,54.52,4.08
79.00,1.00,290.81,0.19,-41.56,-6.38,7.50,-5.81,54.52,4.08
79.00,2.00,27.00,-13.88,12.12,-7.12,4.19,2.62,54.52,4.08
79.00,0.00,99.12,-2.06,-136.50,-2.81,0.69,-10.94,54.63,4.10
79.00,1.00,290.88,0.00,-41.44,-5.94,7.38,-5.62,54.63,4.10
79.00,2.00,26.94,-14.00,12.38,-6.38,3.94,2.00,54.63,4.10
79.00,0.00,99.00,-2.19,-136.50,-0.12,-1.50,-6.94,54.82,4.12
79.00,1.00,290.94,-0.12,-41.25,-6.12,7.25,-4.94,54.82,4.12
79.00,2.00,26.88,-14.12,12.50,-6.44,4.00,2.38,54.82,4.12
79.00,0.00,98.88,-2.25,-136.44,-1.69,-1.19,-4.81,54.98,4.14
79.00,1.00,291.00,-0.25,-41.12,-7.44,6.75,-4.56,54.98,4.14
79.00,2.00,26.81,-14.19,12.69,-7.12,2.25,3.06,54.98,4.14
79.00,0.00,98.81,-2.38,-136.38,-2.88,-3.12,-4.38,55.11,4.16
79.00,1.00,291.00,-0.44,-40.94,-7.56,7.75,-4.06,55.11,4.16
79.00,2.00,26.75,-14.25,12.81,-7.00,0.44,2.94,55.11,4.16
79.00,0.00,98.75,-2.44,-136.31,-3.06,-1.88,-3.69,55.24,4.18
79.00,1.00,291.06,-0.62,-40.75,-5.75,6.75,-3.31,55.24,4.18
79.00,2.00,26.62,-14.25,13.00,-7.50,-0.44,3.25,55.24,4.18
79.00,0.00,98.69,-2.50,-136.19,-3.12,-1.25,-3.06,55.29,4.20
79.00,1.00,291.06,-0.75,-40.62,-4.00,5.69,-2.81,55.29,4.20
79.00,2.00,26.56,-14.25,13.06,-4.75,0.50,2.62,55.29,4.20
79.00,0.00,98.62,-2.56,-136.06,-2.88,-1.38,-3.25,55.33,4.22
79.00,1.00,291.06,-0.88,-40.50,-3.81,5.19,-2.50,55.33,4.22
79.00,2.00,26.50,-14.31,13.25,-4.12,-0.06,2.38,55.33,4.22
79.00,0.00,98.56,-2.62,-135.94,-2.12,-0.94,-2.56,55.39,4.24
79.00,1.00,291.12,-1.00,-40.38,-4.12,4.56,-2.62,55.39,4.24
79.00,2.00,26.50,-14.38,13.38,-4.19,-0.75,2.44,55.39,4.24
79.00,0.00,98.25,-2.62,-135.88,-1.00,-0.31,-2.69,55.48,4.26
79.00,1.00,291.12,-1.06,-40.31,-3.38,4.31,-2.50,55.48,4.26
79.00,2.00,26.44,-14.38,13.50,-3.94,0.25,2.38,55.48,4.26
79.00,0.00,98.19,-2.69,-135.88,0.50,0.50,-3.25,55.56,4.28
79.00,1.00,291.12,-1.19,-40.25,-2.12,4.50,-2.50,55.56,4.28
79.00,2.00,26.38,-14.44,13.56,-2.25,2.50,2.44,55.56,4.28
79.00,0.00,98.12,-2.75,-135.88,0.88,1.38,-3.50,55.64,4.30
79.00,1.00,291.19,-1.31,-40.19,-1.69,4.44,-2.81,55.64,4.30
79.00,2.00,26.31,-14.50,13.62,-1.75,2.88,2.12,55.64,4.30
79.00,0.00,98.06,-2.81,-135.81,0.81,1.38,-4.31,55.71,4.32
79.00,1.00,291.19,-1.44,-40.12,-1.06,4.12,-2.75,55.71,4.32
79.00,2.00,26.31,-14.56,13.69,-1.50,2.38,3.00,55.71,4.32
79.00,0.00,97.94,-2.88,-135.81,1.00,1.56,-5.12,55.78,4.34
79.00,1.00,291.25,-1.50,-40.06,-1.38,3.31,-2.94,55.78,4.34
79.00,2.00,26.25,-14.69,13.75,-1.31,2.12,3.12,55.78,4.34
79.00,0.00,97.81,-2.94,-135.88,1.75,0.94,-4.88,55.85,4.36
79.00,1.00,291.25,-1.62,-40.06,-1.31,3.19,-3.31,55.85,4.36
79.00,2.00,26.19,-14.75,13.75,-0.75,2.69,2.88,55.85,4.36
79.00,0.00,97.69,-3.00,-135.88,2.44,0.38,-4.69,55.95,4.38
79.00,1.00,291.31,-1.75,-40.00,-1.75,3.44,-3.38,55.95,4.38
79.00,2.00,26.12,-14.81,13.75,-0.75,3.12,2.56,55.95,4.38
79.00,0.00,97.62,-3.12,-135.88,2.19,0.25,-5.25,56.05,4.40
79.00,1.00,291.38,-1.81,-40.00,-1.50,3.00,-3.56,56.05,4.40
79.00,2.00,26.06,-14.94,13.81,-1.00,2.62,2.94,56.05,4.40
79.00,0.00,97.50,-3.19,-135.88,1.69,-0.19,-5.94,56.11,4.42
79.00,1.00,291.38,-1.88,-39.94,-1.25,2.81,-3.38,56.11,4.42
79.00,2.00,26.00,-15.00,13.81,-0.38,2.69,2.50,56.11,4.42
79.00,0.00,97.38,-3.31,-135.88,1.44,-1.12,-6.00,56.17,4.44
79.00,1.00,291.44,-2.00,-39.94,-1.19,3.19,-3.00,56.17,4.44
79.00,2.00,26.00,-15.06,13.81,-0.69,3.00,2.44,56.17,4.44
79.00,0.00,97.31,-3.38,-135.88,1.69,-1.25,-5.88,56.24,4.46
79.00,1.00,291.50,-2.06,-39.88,-0.69,1.88,-3.12,56.24,4.46
79.00,2.00,25.94,-15.19,13.88,-0.44,2.19,2.56,56.24,4.46
79.00,0.00,97.12,-3.56,-135.94,1.62,-1.38,-6.38,56.27,4.48
79.00,1.00,291.56,-2.12,-39.88,-0.62,1.69,-3.00,56.27,4.48
79.00,2.00,25.94,-15.19,13.88,0.50,2.50,2.50,56.27,4.48
79.00,0.00,97.06,-3.62,-135.94,0.62,-1.06,-6.25,56.28,4.50
79.00,1.00,291.56,-2.19,-39.88,-0.88,2.00,-2.19,56.28,4.50
79.00,2.00,25.88,-15.31,13.88,0.12,2.25,2.25,56.28,4.50
79.00,0.00,96.94,-3.75,-135.88,-0.50,0.19,-6.06,56.27,4.52
79.00,1.00,291.62,-2.25,-39.81,-0.69,2.06,-1.31,56.27,4.52
79.00,2.00,25.81,-15.38,13.81,-0.12,1.38,2.69,56.27,4.52
79.00,0.00,96.81,-3.81,-135.88,-0.69,1.25,-6.00,56.26,4.54
79.00,1.00,291.62,-2.31,-39.81,-0.44,1.56,-1.00,56.26,4.54
79.00,2.00,25.75,-15.44,13.81,-0.31,0.19,3.12,56.26,4.54
79.00,0.00,96.69,-3.81,-135.88,-0.12,1.81,-5.12,56.25,4.56
79.00,1.00,291.62,-2.31,-39.81,-0.50,1.44,-0.31,56.25,4.56
79.00,2.00,25.69,-15.44,13.81,0.25,-0.31,3.31,56.25,4.56
79.00,0.00,96.62,-3.88,-135.88,-1.06,3.31,-4.12,56.21,4.58
79.00,1.00,291.62,-2.38,-39.81,-0.81,1.56,0.00,56.21,4.58
79.00,2.00,25.62,-15.44,13.81,0.44,-0.44,3.12,56.21,4.58
79.00,0.00,96.50,-3.88,-135.88,-1.62,4.06,-3.94,56.14,4.60
79.00,1.00,291.62,-2.38,-39.81,-1.19,2.00,0.50,56.14,4.60
79.00,2.00,25.56,-15.50,13.75,0.50,-0.56,3.44,56.14,4.60
79.00,0.00,96.44,-3.81,-135.81,-1.75,4.69,-4.12,56.08,4.62
79.00,1.00,291.56,-2.44,-39.81,-0.69,2.00,0.81,56.08,4.62
79.00,2.00,25.50,-15.50,13.75,0.38,-1.31,3.25,56.08,4.62
79.00,0.00,96.31,-3.81,-135.81,-1.56,4.31,-3.50,56.02,4.64
79.00,1.00,291.56,-2.44,-39.81,-0.75,2.06,1.06,56.02,4.64
79.00,2.00,25.44,-15.50,13.75,0.50,-1.56,3.25,56.02,4.64
79.00,0.00,96.19,-3.81,-135.75,-1.75,4.12,-2.62,55.95,4.66
79.00,1.00,291.50,-2.44,-39.75,-0.69,2.00,0.94,55.95,4.66
79.00,2.00,25.31,-15.50,13.69,0.31,-1.94,3.31,55.95,4.66
79.00,0.00,96.12,-3.75,-135.75,-1.62,4.25,-1.81,55.89,4.68
79.00,1.00,291.50,-2.50,-39.75,-0.81,1.88,1.69,55.89,4.68
79.00,2.00,25.25,-15.44,13.69,0.44,-1.94,3.12,55.89,4.68
79.00,0.00,96.06,-3.75,-135.69,-1.88,4.19,-1.69,55.83,4.70
79.00,1.00,291.44,-2.50,-39.75,-1.00,2.00,2.12,55.83,4.70
79.00,2.00,25.19,-15.44,13.69,0.12,-1.75,3.25,55.83,4.70
79.00,0.00,96.00,-3.69,-135.69,-1.62,3.19,-1.81,55.79,4.72
79.00,1.00,291.38,-2.50,-39.75,-1.44,1.94,1.81,55.79,4.72
79.00,2.00,25.12,-15.44,13.62,-0.12,-1.50,3.19,55.79,4.72
79.00,0.00,95.94,-3.69,-135.62,-1.50,2.44,-1.88,55.75,4.74
79.00,1.00,291.31,-2.50,-39.69,-1.31,2.25,1.88,55.75,4.74
79.00,2.00,25.06,-15.44,13.62,-0.44,-1.56,3.31,55.75,4.74
79.00,0.00,95.88,-3.69,-135.62,-1.38,1.94,-1.81,55.73,4.76
79.00,1.00,291.25,-2.50,-39.69,-1.62,2.44,1.94,55.73,4.76
79.00,2.00,25.00,-15.44,13.62,-0.56,-1.12,3.56,55.73,4.76
79.00,0.00,95.81,-3.69,-135.56,-1.62,1.31,-1.94,55.71,4.78
79.00,1.00,291.25,-2.50,-39.62,-1.94,2.44,1.88,55.71,4.78
79.00,2.00,24.94,-15.44,13.62,-0.88,-0.94,3.38,55.71,4.78
79.00,0.00,95.75,-3.75,-135.56,-1.56,1.06,-1.94,55.70,4.80
79.00,1.00,291.19,-2.50,-39.62,-2.19,2.81,1.94,55.70,4.80
79.00,2.00,24.88,-15.44,13.62,-1.44,-0.25,2.94,55.70,4.80
79.00,0.00,95.69,-3.75,-135.50,-2.19,0.25,-2.19,55.70,4.82
79.00,1.00,291.12,-2.56,-39.56,-2.25,2.94,2.12,55.70,4.82
79.00,2.00,24.81,-15.44,13.62,-2.12,-1.12,3.50,55.70,4.82
79.00,0.00,95.69,-3.81,-135.44,-2.56,-0.31,-2.81,55.68,4.84
79.00,1.00,291.06,-2.56,-39.56,-1.94,2.62,2.31,55.68,4.84
79.00,2.00,24.69,-15.44,13.62,-1.94,-0.94,3.44,55.68,4.84
79.00,0.00,95.62,-3.81,-135.38,-2.88,-0.19,-3.19,55.68,4.86
79.00,1.00,291.00,-2.56,-39.50,-2.06,2.50,2.56,55.68,4.86
79.00,2.00,24.69,-15.44,13.69,-2.81,-0.19,3.75,55.68,4.86
79.00,0.00,95.56,-3.88,-135.31,-3.62,-0.31,-3.75,55.67,4.88
79.00,1.00,290.88,-2.56,-39.44,-2.50,3.25,2.69,55.67,4.88
79.00,2.00,24.56,-15.44,13.75,-3.31,-0.81,3.88,55.67,4.88
79.00,0.00,95.44,-3.94,-135.25,-3.94,0.06,-4.12,55.64,4.90
79.00,1.00,290.81,-2.62,-39.44,-2.31,3.31,2.75,55.64,4.90
79.00,2.00,24.44,-15.50,13.75,-2.94,-0.50,4.19,55.64,4.90
79.00,0.00,95.38,-4.00,-135.12,-3.69,1.06,-4.81,55.60,4.92
79.00,1.00,290.75,-2.62,-39.38,-2.25,3.12,2.44,55.60,4.92
79.00,2.00,24.38,-15.50,13.81,-2.44,0.19,3.75,55.60,4.92
79.00,0.00,286.69,-4.00,-135.06,-3.50,1.56,-4.62,55.60,4.94
79.00,1.00,290.69,-2.62,-39.38,-2.56,2.94,2.19,55.60,4.94
79.00,2.00,24.31,-15.50,13.81,-3.31,0.06,4.00,55.60,4.94
79.00,0.00,286.62,-4.06,-135.00,-3.31,2.31,-4.62,55.61,4.96
79.00,1.00,290.62,-2.62,-39.31,-2.56,3.12,2.12,55.61,4.96
79.00,2.00,24.25,-15.50,13.88,-3.56,0.12,4.12,55.61,4.96
79.00,0.00,286.56,-4.06,-134.94,-3.12,2.94,-4.56,55.61,4.98
79.00,1.00,290.56,-2.69,-39.25,-2.38,3.56,2.44,55.61,4.98
79.00,2.00,24.12,-15.56,13.94,-3.31,0.00,4.06,55.61,4.98
79.00,0.00,286.50,-4.06,-134.88,-3.06,2.56,-4.50,55.61,5.00
79.00,1.00,290.50,-2.69,-39.19,-2.44,3.38,2.69,55.61,5.00
79.00,2.00,24.00,-15.56,14.00,-2.88,-0.19,3.94,55.61,5.00
79.00,0.00,286.50,-4.12,-134.81,-2.94,2.31,-4.19,55.62,5.02
79.00,1.00,290.38,-2.69,-39.19,-2.25,3.38,2.25,55.62,5.02
79.00,2.00,23.94,-15.62,14.00,-3.38,-0.44,4.00,55.62,5.02
79.00,0.00,286.38,-4.12,-134.75,-3.00,2.44,-3.88,55.60,5.04
79.00,1.00,290.31,-2.75,-39.12,-2.19,3.25,2.00,55.60,5.04
79.00,2.00,23.88,-15.62,14.06,-2.44,0.00,4.06,55.60,5.04
79.00,0.00,286.31,-4.12,-134.75,-2.62,2.12,-3.75,55.59,5.06
79.00,1.00,290.25,-2.75,-39.06,-2.44,3.06,1.88,55.59,5.06
79.00,2.00,23.81,-15.62,14.06,-2.12,0.19,3.44,55.59,5.06
79.00,0.00,286.31,-4.19,-134.69,-1.94,1.56,-3.06,55.60,5.08
79.00,1.00,290.25,-2.75,-39.06,-2.19,3.06,1.62,55.60,5.08
79.00,2.00,23.69,-15.69,14.12,-2.44,-0.12,3.38,55.60,5.08
79.00,0.00,286.25,-4.19,-134.62,-1.50,1.31,-2.00,55.60,5.10
79.00,1.00,290.19,-2.81,-39.00,-2.12,3.06,1.50,55.60,5.10
79.00,2.00,23.62,-15.69,14.12,-1.50,0.19,3.44,55.60,5.10
79.00,0.00,286.25,-4.19,-134.62,-0.62,0.69,-1.69,55.62,5.12
79.00,1.00,290.12,-2.81,-39.00,-1.38,3.31,1.19,55.62,5.12
79.00,2.00,23.56,-15.69,14.12,-1.12,0.00,2.88,55.62,5.12
79.00,0.00,286.25,-4.19,-134.62,-0.12,-0.06,-1.12,55.65,5.14
79.00,1.00,290.06,-2.88,-38.94,-1.81,3.19,0.94,55.65,5.14
79.00,2.00,23.50,-15.69,14.19,-1.31,-0.06,2.75,55.65,5.14
79.00,0.00,286.19,-4.19,-134.62,-0.19,-0.44,-0.56,55.69,5.16
79.00,1.00,290.06,-2.94,-38.94,-1.56,3.06,0.81,55.69,5.16
79.00,2.00,23.44,-15.75,14.19,-1.31,0.19,2.62,55.69,5.16
79.00,0.00,286.19,-4.19,-134.62,0.06,-0.50,-0.50,55.71,5.18
79.00,1.00,290.00,-2.94,-38.88,-1.69,3.12,0.50,55.71,5.18
79.00,2.00,23.44,-15.75,14.19,-0.69,0.56,2.25,55.71,5.18
79.00,0.00,286.25,-4.19,-134.62,0.19,-1.56,-0.38,55.74,5.20
79.00,1.00,290.00,-3.00,-38.88,-1.75,2.94,0.56,55.74,5.20
79.00,2.00,23.38,-15.75,14.19,-0.94,0.31,2.12,55.74,5.20
79.00,0.00,286.38,-4.25,-134.62,0.31,-2.31,0.06,55.78,5.22
79.00,1.00,289.94,-3.06,-38.81,-1.50,2.75,0.38,55.78,5.22
79.00,2.00,23.31,-15.75,14.19,-0.94,0.06,2.12,55.78,5.22
79.00,0.00,286.44,-4.25,-134.56,0.56,-2.06,0.31,55.81,5.24
79.00,1.00,289.94,-3.06,-38.81,-1.25,2.75,0.38,55.81,5.24
79.00,2.00,23.31,-15.75,14.19,-0.38,0.56,2.25,55.81,5.24
79.00,0.00,286.56,-4.31,-134.56,0.38,-2.62,0.44,55.85,5.26
79.00,1.00,289.94,-3.12,-38.81,-1.44,2.88,0.38,55.85,5.26
79.00,2.00,23.25,-15.81,14.19,-0.88,0.31,1.94,55.85,5.26
79.00,0.00,286.69,-4.31,-134.56,0.31,-2.81,0.62,55.89,5.28
79.00,1.00,289.88,-3.19,-38.75,-1.88,2.56,0.31,55.89,5.28
79.00,2.00,23.19,-15.81,14.25,-1.06,0.19,2.12,55.89,5.28
79.00,0.00,286.81,-4.38,-134.56,0.38,-2.56,0.75,55.93,5.30
79.00,1.00,289.88,-3.19,-38.75,-1.81,2.56,0.12,55.93,5.30
79.00,2.00,23.19,-15.81,14.25,-1.00,0.31,1.94,55.93,5.30
79.00,0.00,286.94,-4.38,-134.56,0.19,-2.94,0.25,55.97,5.32
79.00,1.00,289.88,-3.25,-38.69,-1.69,2.75,0.00,55.97,5.32
79.00,2.00,23.12,-15.81,14.25,-1.19,0.62,2.06,55.97,5.32
79.00,0.00,287.06,-4.44,-134.56,0.31,-2.75,-0.06,56.01,5.34
79.00,1.00,289.81,-3.25,-38.69,-1.75,2.69,-0.25,56.01,5.34
79.00,2.00,23.06,-15.88,14.31,-1.12,0.62,2.06,56.01,5.34
79.00,0.00,287.19,-4.44,-134.50,0.25,-2.25,-0.06,56.05,5.36
79.00,1.00,289.81,-3.31,-38.62,-1.19,2.31,-0.31,56.05,5.36
79.00,2.00,23.06,-15.88,14.31,-0.81,0.25,2.19,56.05,5.36
79.00,0.00,287.31,-4.50,-134.50,0.06,-1.75,-0.25,56.06,5.38
79.00,1.00,289.81,-3.38,-38.62,-1.12,2.19,-0.06,56.06,5.38
79.00,2.00,23.00,-15.88,14.31,-0.50,0.56,1.81,56.06,5.38
79.00,0.00,287.31,-4.50,-134.50,-0.06,-1.19,-0.50,56.09,5.40
79.00,1.00,289.81,-3.38,-38.56,-1.75,1.94,-0.31,56.09,5.40
79.00,2.00,22.94,-15.94,14.31,-0.88,0.00,2.00,56.09,5.40
79.00,0.00,287.44,-4.50,-134.50,-0.12,-0.94,-0.94,56.09,5.42
79.00,1.00,289.75,-3.38,-38.56,-1.62,1.69,-0.38,56.09,5.42
79.00,2.00,22.94,-15.94,14.31,-0.31,0.06,1.75,56.09,5.42
79.00,0.00,287.44,-4.56,-134.50,0.19,-0.50,-1.56,56.12,5.44
79.00,1.00,289.75,-3.44,-38.50,-1.19,1.56,-0.06,56.12,5.44
79.00,2.00,22.88,-15.94,14.31,-0.56,-0.25,1.81,56.12,5.44
79.00,0.00,287.50,-4.56,-134.50,0.31,-0.38,-1.75,56.13,5.46
79.00,1.00,289.75,-3.44,-38.50,-1.56,1.38,-0.06,56.13,5.46
79.00,2.00,22.88,-15.94,14.31,-0.25,0.00,1.81,56.13,5.46
79.00,0.00,287.50,-4.56,-134.44,-0.19,0.75,-1.31,56.13,5.48
79.00,1.00,289.75,-3.50,-38.44,-1.56,1.38,-0.38,56.13,5.48
79.00,2.00,22.81,-16.00,14.31,-0.19,-0.25,2.00,56.13,5.48
79.00,0.00,287.50,-4.56,-134.44,0.00,1.38,-1.50,56.15,5.50
79.00,1.00,289.75,-3.50,-38.44,-1.25,2.06,0.19,56.15,5.50
79.00,2.00,22.75,-16.00,14.31,-0.44,-0.81,2.25,56.15,5.50
79.00,0.00,287.44,-4.56,-134.44,0.31,1.62,-1.81,56.18,5.52
79.00,1.00,289.75,-3.50,-38.44,-1.31,1.38,0.00,56.18,5.52
79.00,2.00,22.75,-16.00,14.31,-0.88,-0.56,2.38,56.18,5.52
79.00,0.00,287.38,-4.56,-134.50,1.12,1.81,-1.69,56.23,5.54
79.00,1.00,289.69,-3.56,-38.38,-1.50,1.50,-0.62,56.23,5.54
79.00,2.00,22.69,-16.00,14.31,-0.44,0.38,2.00,56.23,5.54
79.00,0.00,287.38,-4.56,-134.50,0.88,1.25,-1.38,56.26,5.56
79.00,1.00,289.69,-3.56,-38.38,-1.25,1.94,-0.44,56.26,5.56
79.00,2.00,22.62,-16.06,14.31,-0.31,0.62,1.81,56.26,5.56
79.00,0.00,287.44,-4.62,-134.50,0.75,0.06,-1.38,56.31,5.58
79.00,1.00,289.69,-3.62,-38.31,-1.75,1.88,0.19,56.31,5.58
79.00,2.00,22.62,-16.06,14.31,-0.94,0.19,2.19,56.31,5.58
79.00,0.00,287.50,-4.62,-134.50,-0.06,0.00,-1.62,56.36,5.60
79.00,1.00,289.69,-3.62,-38.31,-1.62,2.06,0.06,56.36,5.60
79.00,2.00,22.56,-16.06,14.31,-1.50,0.31,2.38,56.36,5.60
79.00,0.00,287.62,-4.69,-134.50,-0.50,-0.69,-2.12,56.38,5.62
79.00,1.00,289.69,-3.69,-38.25,-1.81,1.75,0.19,56.38,5.62
79.00,2.00,22.50,-16.12,14.38,-1.38,0.19,2.50,56.38,5.62
79.00,0.00,287.75,-4.75,-134.44,-0.50,-0.75,-2.38,56.40,5.64
79.00,1.00,289.62,-3.69,-38.25,-1.62,2.12,0.06,56.40,5.64
79.00,2.00,22.44,-16.12,14.38,-0.94,0.56,2.38,56.40,5.64
79.00,0.00,287.94,-4.75,-134.44,-0.62,-0.69,-2.44,56.40,5.66
79.00,1.00,289.62,-3.75,-38.19,-1.56,2.44,0.00,56.40,5.66
79.00,2.00,22.44,-16.12,14.38,-0.81,0.12,2.25,56.40,5.66
79.00,0.00,288.00,-4.81,-134.44,-0.56,-0.56,-2.06,56.41,5.68
79.00,1.00,289.62,-3.75,-38.19,-1.25,1.88,0.12,56.41,5.68
79.00,2.00,22.38,-16.19,14.44,-0.88,0.31,2.44,56.41,5.68
79.00,0.00,288.06,-4.81,-134.44,-0.62,-0.25,-1.94,56.42,5.70
79.00,1.00,289.62,-3.81,-38.19,-1.62,1.94,0.31,56.42,5.70
79.00,2.00,22.31,-16.19,14.44,-0.81,0.38,2.31,56.42,5.70
79.00,0.00,288.12,-4.88,-134.44,-0.44,0.06,-1.88,56.44,5.72
79.00,1.00,289.62,-3.81,-38.12,-2.00,1.75,0.12,56.44,5.72
79.00,2.00,22.25,-16.19,14.44,-1.06,0.44,2.25,56.44,5.72
79.00,0.00,288.12,-4.88,-134.38,-0.69,0.56,-1.75,56.45,5.74
79.00,1.00,289.56,-3.88,-38.06,-1.75,1.88,0.62,56.45,5.74
79.00,2.00,22.19,-16.25,14.44,-1.25,-0.44,2.38,56.45,5.74
79.00,0.00,288.25,-4.88,-134.38,-1.31,0.31,-1.62,56.43,5.76
79.00,1.00,289.56,-3.88,-38.06,-1.31,1.88,0.62,56.43,5.76
79.00,2.00,22.19,-16.25,14.50,-0.56,-0.12,2.38,56.43,5.76
79.00,0.00,288.25,-4.94,-134.31,-1.50,0.69,-1.44,56.42,5.78
79.00,1.00,289.50,-3.88,-38.06,-1.06,1.75,0.50,56.42,5.78
79.00,2.00,22.12,-16.25,14.50,-1.25,-0.69,2.75,56.42,5.78
79.00,0.00,288.19,-4.94,-134.31,-1.31,1.31,-1.38,56.41,5.80
79.00,1.00,289.50,-3.94,-38.00,-1.31,1.25,0.75,56.41,5.80
79.00,2.00,22.06,-16.25,14.50,-0.94,-0.38,2.25,56.41,5.80
79.00,0.00,288.19,-4.94,-134.25,-1.62,1.06,-1.62,56.39,5.82
79.00,1.00,289.50,-3.94,-38.00,-1.25,1.19,0.75,56.39,5.82
79.00,2.00,22.00,-16.31,14.50,-0.94,-0.44,2.31,56.39,5.82
79.00,0.00,288.12,-4.94,-134.25,-1.62,1.38,-1.44,56.37,5.84
79.00,1.00,289.44,-3.94,-38.00,-0.94,1.19,1.12,56.37,5.84
79.00,2.00,22.00,-16.31,14.50,-1.00,-0.62,2.38,56.37,5.84
79.00,0.00,288.25,-4.94,-134.19,-1.88,1.81,-1.25,56.35,5.86
79.00,1.00,289.44,-3.94,-37.94,-1.00,1.25,0.75,56.35,5.86
79.00,2.00,21.94,-16.31,14.50,-1.00,-1.12,2.25,56.35,5.86
79.00,0.00,288.25,-4.94,-134.19,-2.00,0.19,-1.75,56.31,5.88
79.00,1.00,289.38,-3.94,-37.94,-1.12,0.94,1.00,56.31,5.88
79.00,2.00,21.88,-16.31,14.56,-0.81,-0.81,2.25,56.31,5.88
79.00,0.00,288.38,-5.00,-134.12,-0.62,-2.06,-0.88,56.31,5.90
79.00,1.00,289.38,-3.94,-37.94,-1.12,1.25,0.88,56.31,5.90
79.00,2.00,21.81,-16.31,14.56,-0.44,-0.25,2.06,56.31,5.90
79.00,0.00,288.44,-5.00,-134.12,-0.31,-1.06,-0.12,56.34,5.92
79.00,1.00,289.38,-3.94,-37.94,-0.62,1.00,0.75,56.34,5.92
79.00,2.00,21.81,-16.31,14.56,-1.31,-0.19,2.06,56.34,5.92
79.00,0.00,288.44,-5.00,-134.12,0.00,-1.19,-0.31,56.38,5.94
79.00,1.00,289.31,-4.00,-37.88,-1.00,1.56,0.56,56.38,5.94
79.00,2.00,21.75,-16.31,14.56,-1.50,-0.19,1.88,56.38,5.94
79.00,0.00,288.56,-5.00,-134.12,0.06,-2.00,-0.44,56.42,5.96
79.00,1.00,289.31,-4.00,-37.88,-1.00,1.25,0.50,56.42,5.96
79.00,2.00,21.69,-16.38,14.56,-1.25,0.38,1.75,56.42,5.96
79.00,0.00,288.56,-5.06,-134.12,0.19,-1.44,-0.06,56.48,5.98
79.00,1.00,289.31,-4.00,-37.88,-1.19,1.06,0.25,56.48,5.98
79.00,2.00,21.69,-16.38,14.62,-1.75,0.31,1.56,56.48,5.98
79.00,0.00,288.62,-5.06,-134.06,0.31,-1.12,0.62,56.51,6.00
79.00,1.00,289.31,-4.00,-37.81,-0.75,0.69,0.31,56.51,6.00
79.00,2.00,21.62,-16.38,14.62,-0.62,-0.12,1.25,56.51,6.00
79.00,0.00,288.62,-5.06,-134.06,0.31,-1.12,1.12,56.52,6.02
79.00,1.00,289.31,-4.00,-37.81,-0.75,0.50,0.56,56.52,6.02
79.00,2.00,21.62,-16.38,14.62,-0.25,-0.06,1.12,56.52,6.02
79.00,0.00,288.62,-5.00,-134.06,-0.25,-0.62,0.81,56.53,6.04
79.00,1.00,289.31,-4.00,-37.81,-0.44,0.44,0.56,56.53,6.04
79.00,2.00,21.56,-16.38,14.69,-0.50,-0.62,0.88,56.53,6.04
79.00,0.00,288.62,-5.00,-134.06,-0.44,-0.12,0.75,56.53,6.06
79.00,1.00,289.31,-4.00,-37.81,-0.38,0.12,0.19,56.53,6.06
79.00,2.00,21.56,-16.38,14.69,-0.31,-1.00,1.00,56.53,6.06
79.00,0.00,288.56,-5.00,-134.00,-0.38,0.25,0.88,56.51,6.08
79.00,1.00,289.31,-4.00,-37.81,-0.25,-0.06,0.38,56.51,6.08
79.00,2.00,21.56,-16.38,14.69,0.12,-0.88,0.31,56.51,6.08
79.00,0.00,288.56,-5.00,-134.00,-0.25,-0.19,0.81,56.49,6.10
79.00,1.00,289.31,-4.00,-37.81,-0.12,-0.06,0.19,56.49,6.10
79.00,2.00,21.56,-16.38,14.69,0.38,-0.56,0.25,56.49,6.10
79.00,0.00,288.50,-5.00,-134.00,-0.25,0.19,0.50,56.47,6.12
79.00,1.00,289.31,-4.00,-37.81,-0.06,-0.38,0.00,56.47,6.12
79.00,2.00,21.56,-16.38,14.69,0.38,-0.38,0.25,56.47,6.12
79.00,0.00,288.50,-5.00,-134.00,0.00,0.44,0.31,56.46,6.14
79.00,1.00,289.31,-4.00,-37.81,0.25,-0.62,0.06,56.46,6.14
79.00,2.00,21.56,-16.38,14.69,0.44,-0.50,0.19,56.46,6.14
79.00,0.00,288.50,-5.00,-134.00,0.06,-0.31,0.25,56.44,6.16
79.00,1.00,289.31,-4.00,-37.81,0.12,-1.06,-0.19,56.44,6.16
79.00,2.00,21.56,-16.38,14.75,0.75,-0.38,-0.12,56.44,6.16
79.00,0.00,288.50,-5.00,-134.00,0.19,0.00,0.19,56.42,6.18
79.00,1.00,289.31,-4.00,-37.81,0.19,-1.56,-0.31,56.42,6.18
79.00,2.00,21.56,-16.44,14.75,1.00,-0.75,-0.50,56.42,6.18
79.00,0.00,288.50,-5.00,-133.94,0.31,-0.06,0.00,56.38,6.20
79.00,1.00,289.31,-3.94,-37.81,0.56,-2.38,-0.62,56.38,6.20
79.00,2.00,21.56,-16.44,14.75,1.50,-0.56,-0.81,56.38,6.20
79.00,0.00,288.50,-4.94,-133.94,0.75,-0.38,0.06,56.33,6.22
79.00,1.00,289.38,-3.94,-37.81,1.38,-3.12,-0.81,56.33,6.22
79.00,2.00,21.62,-16.38,14.75,2.56,-0.81,-1.62,56.33,6.22
