Iteration,IMUNo,OrientationX (deg),OrientationY,OrientationZ,GyroX (20rad/sec),GyroY,GyroZ,Elbow_Pos (rad),Time (sec)
110.00,0.00,228.00,10.12,-114.44,-0.56,0.06,0.00,-0.03,1.02
110.00,1.00,230.12,-4.38,-64.44,0.06,0.12,0.31,-0.03,1.02
110.00,2.00,225.88,-27.25,23.06,0.12,-0.44,0.00,-0.03,1.02
110.00,0.00,228.00,10.12,-114.44,-0.56,0.06,0.00,-0.03,1.02
110.00,1.00,230.12,-4.38,-64.44,0.06,0.12,0.31,-0.03,1.02
110.00,2.00,225.88,-27.25,23.06,0.12,-0.44,0.00,-0.03,1.02
110.00,0.00,228.00,10.12,-114.44,-0.44,0.12,-0.44,-0.04,1.04
110.00,1.00,230.12,-4.38,-64.44,0.19,0.12,0.44,-0.04,1.04
110.00,2.00,225.88,-27.25,23.06,-0.25,-0.38,0.50,-0.04,1.04
110.00,0.00,228.00,10.12,-114.50,0.12,0.12,-0.56,-0.02,1.06
110.00,1.00,230.12,-4.38,-64.44,0.50,0.50,0.38,-0.02,1.06
110.00,2.00,225.88,-27.25,23.06,-0.19,-0.44,0.56,-0.02,1.06
110.00,0.00,228.00,10.12,-114.50,0.38,-0.06,-0.25,-0.01,1.08
110.00,1.00,230.12,-4.38,-64.44,0.44,0.38,0.31,-0.01,1.08
110.00,2.00,225.88,-27.25,23.06,-0.06,-0.56,0.56,-0.01,1.08
110.00,0.00,228.00,10.12,-114.50,0.75,0.19,-0.19,0.02,1.10
110.00,1.00,230.12,-4.38,-64.44,0.50,0.31,0.19,0.02,1.10
110.00,2.00,225.88,-27.25,23.00,0.25,-0.62,0.94,0.02,1.10
110.00,0.00,228.00,10.12,-114.50,0.81,0.75,-0.12,0.05,1.12
110.00,1.00,230.12,-4.38,-64.44,0.38,0.69,0.19,0.05,1.12
110.00,2.00,225.81,-27.25,23.00,-0.06,-0.62,0.88,0.05,1.12
110.00,0.00,227.94,10.12,-114.56,1.31,0.75,-0.31,0.11,1.14
110.00,1.00,230.12,-4.38,-64.44,0.19,0.38,0.25,0.11,1.14
110.00,2.00,225.81,-27.25,23.00,-0.12,-0.69,1.00,0.11,1.14
110.00,0.00,227.94,10.12,-114.56,1.31,0.50,-0.44,0.16,1.16
110.00,1.00,230.12,-4.38,-64.44,0.06,0.69,0.44,0.16,1.16
110.00,2.00,225.81,-27.25,23.00,0.00,-0.88,1.12,0.16,1.16
110.00,0.00,227.94,10.12,-114.62,1.38,-0.25,-0.50,0.22,1.18
110.00,1.00,230.12,-4.38,-64.44,0.00,0.62,0.56,0.22,1.18
110.00,2.00,225.75,-27.25,23.00,-0.06,-0.94,0.94,0.22,1.18
110.00,0.00,227.94,10.06,-114.69,1.50,-0.38,-0.31,0.28,1.20
110.00,1.00,230.12,-4.44,-64.44,-0.25,0.81,0.38,0.28,1.20
110.00,2.00,225.75,-27.25,22.94,0.12,-1.06,0.88,0.28,1.20
110.00,0.00,227.94,10.06,-114.75,2.44,-0.31,0.25,0.33,1.22
110.00,1.00,230.12,-4.44,-64.44,-0.69,1.19,0.50,0.33,1.22
110.00,2.00,225.75,-27.19,22.94,1.00,-1.62,1.06,0.33,1.22
110.00,0.00,227.88,10.12,-114.81,3.69,-0.56,0.88,0.42,1.24
110.00,1.00,230.12,-4.44,-64.44,-0.75,1.00,0.12,0.42,1.24
110.00,2.00,225.69,-27.19,22.88,1.50,-2.81,0.75,0.42,1.24
110.00,0.00,227.81,10.12,-114.94,5.56,-0.44,1.81,0.57,1.26
110.00,1.00,230.06,-4.44,-64.44,-0.44,0.00,0.00,0.57,1.26
110.00,2.00,225.69,-27.12,22.88,1.81,-3.62,-0.06,0.57,1.26
110.00,0.00,227.69,10.19,-115.12,7.94,-0.50,2.94,0.79,1.28
110.00,1.00,230.06,-4.44,-64.44,-0.81,-0.12,-0.38,0.79,1.28
110.00,2.00,225.69,-27.06,22.81,2.69,-4.06,-0.31,0.79,1.28
110.00,0.00,227.50,10.31,-115.44,10.81,-0.12,4.56,1.10,1.30
110.00,1.00,230.06,-4.44,-64.44,-0.94,-0.62,-0.44,1.10,1.30
110.00,2.00,225.69,-26.94,22.69,3.12,-4.56,-1.00,1.10,1.30
110.00,0.00,227.31,10.38,-115.75,15.44,0.38,6.88,1.70,1.32
110.00,1.00,230.12,-4.44,-64.38,-0.56,-1.56,-0.56,1.70,1.32
110.00,2.00,225.75,-26.88,22.69,0.56,-3.06,-1.00,1.70,1.32
110.00,0.00,227.00,10.56,-116.12,20.38,0.62,9.19,2.49,1.34
110.00,1.00,230.12,-4.44,-64.38,0.75,-2.25,-1.19,2.49,1.34
110.00,2.00,225.75,-26.88,22.69,0.75,-3.12,-0.56,2.49,1.34
110.00,0.00,226.62,10.75,-116.62,24.69,1.44,11.25,3.34,1.36
110.00,1.00,230.19,-4.44,-64.38,0.69,-2.44,-1.44,3.34,1.36
110.00,2.00,225.75,-26.81,22.62,3.56,-4.19,-0.69,3.34,1.36
110.00,0.00,226.12,11.00,-117.12,28.75,2.00,13.75,4.37,1.38
110.00,1.00,230.25,-4.44,-64.44,0.88,-2.69,-1.62,4.37,1.38
110.00,2.00,225.75,-26.69,22.56,3.25,-4.81,-0.25,4.37,1.38
110.00,0.00,225.50,11.25,-117.81,33.06,1.69,15.44,5.59,1.40
110.00,1.00,230.38,-4.44,-64.44,1.06,-3.81,-2.25,5.59,1.40
110.00,2.00,225.75,-26.62,22.50,3.06,-5.25,0.38,5.59,1.40
110.00,0.00,224.94,11.56,-118.56,38.69,-1.00,16.62,7.01,1.42
110.00,1.00,230.44,-4.44,-64.44,1.19,-3.62,-2.50,7.01,1.42
110.00,2.00,225.69,-26.56,22.38,3.38,-5.19,0.19,7.01,1.42
110.00,0.00,224.25,11.88,-119.69,45.31,-3.38,19.06,8.73,1.44
110.00,1.00,230.50,-4.44,-64.44,0.62,-2.94,-2.12,8.73,1.44
110.00,2.00,225.69,-26.50,22.31,2.81,-3.88,0.50,8.73,1.44
110.00,0.00,223.56,12.19,-120.62,45.69,-0.94,20.81,10.42,1.46
110.00,1.00,230.56,-4.50,-64.44,1.75,-2.44,-1.69,10.42,1.46
110.00,2.00,225.69,-26.44,22.25,3.81,-4.31,2.12,10.42,1.46
110.00,0.00,222.75,12.56,-121.50,44.75,2.94,20.44,12.07,1.48
110.00,1.00,230.62,-4.50,-64.50,1.88,-2.38,-1.75,12.07,1.48
110.00,2.00,225.62,-26.38,22.12,3.94,-4.88,2.62,12.07,1.48
110.00,0.00,221.81,12.94,-122.44,46.75,3.81,19.44,13.78,1.50
110.00,1.00,230.69,-4.50,-64.50,1.81,-1.31,-1.19,13.78,1.50
110.00,2.00,225.56,-26.31,21.94,4.38,-5.94,4.25,13.78,1.50
110.00,0.00,220.81,13.25,-123.38,49.25,3.88,19.81,15.59,1.52
110.00,1.00,230.75,-4.50,-64.56,2.12,-0.44,-0.88,15.59,1.52
110.00,2.00,225.44,-26.25,21.75,4.62,-6.50,6.38,15.59,1.52
110.00,0.00,219.81,13.62,-124.44,51.31,3.31,21.19,17.52,1.54
110.00,1.00,230.75,-4.50,-64.62,1.69,0.94,-0.38,17.52,1.54
110.00,2.00,225.25,-26.25,21.56,3.44,-6.44,7.81,17.52,1.54
110.00,0.00,218.69,14.06,-125.50,52.56,3.25,22.06,19.56,1.56
110.00,1.00,230.69,-4.50,-64.62,0.56,2.50,-0.06,19.56,1.56
110.00,2.00,225.06,-26.19,21.38,2.19,-6.94,9.19,19.56,1.56
110.00,0.00,217.56,14.44,-126.62,52.75,3.94,21.94,21.63,1.58
110.00,1.00,230.69,-4.56,-64.69,0.62,3.69,0.00,21.63,1.58
110.00,2.00,224.88,-26.12,21.19,1.31,-7.69,10.19,21.63,1.58
110.00,0.00,216.38,14.81,-127.69,52.06,5.38,21.31,23.69,1.60
110.00,1.00,230.62,-4.56,-64.69,0.31,4.31,-0.56,23.69,1.60
110.00,2.00,224.62,-26.06,21.00,1.19,-7.50,10.69,23.69,1.60
110.00,0.00,215.06,15.19,-128.69,52.00,6.06,20.25,25.69,1.62
110.00,1.00,230.56,-4.62,-64.69,0.56,4.19,-0.44,25.69,1.62
110.00,2.00,224.38,-26.00,20.88,2.56,-8.06,11.19,25.69,1.62
110.00,0.00,213.75,15.56,-129.75,53.38,5.50,19.25,27.67,1.64
110.00,1.00,230.50,-4.62,-64.75,0.62,4.44,-0.25,27.67,1.64
110.00,2.00,224.12,-25.94,20.62,4.31,-8.88,11.94,27.67,1.64
110.00,0.00,212.50,15.88,-130.88,53.94,3.94,18.81,29.65,1.66
110.00,1.00,230.44,-4.69,-64.75,-1.19,4.94,0.00,29.65,1.66
110.00,2.00,223.94,-25.88,20.44,4.81,-8.88,12.00,29.65,1.66
110.00,0.00,211.25,16.19,-132.00,54.56,2.88,18.44,31.70,1.68
110.00,1.00,230.38,-4.75,-64.75,-1.44,4.56,-0.44,31.70,1.68
110.00,2.00,223.69,-25.81,20.19,3.81,-8.81,12.25,31.70,1.68
110.00,0.00,210.00,16.50,-133.12,55.06,1.50,18.19,33.77,1.70
110.00,1.00,230.38,-4.81,-64.75,-1.75,4.69,-1.62,33.77,1.70
110.00,2.00,223.44,-25.69,20.00,4.00,-8.62,12.62,33.77,1.70
110.00,0.00,208.69,16.75,-134.25,55.31,1.38,17.19,35.78,1.72
110.00,1.00,230.31,-4.88,-64.75,-1.25,4.94,-1.69,35.78,1.72
110.00,2.00,223.12,-25.62,19.75,5.62,-9.44,12.88,35.78,1.72
110.00,0.00,207.38,17.00,-135.38,54.44,2.00,15.00,37.72,1.74
110.00,1.00,230.31,-4.94,-64.75,-0.31,4.62,-2.00,37.72,1.74
110.00,2.00,222.88,-25.56,19.44,6.38,-9.44,13.62,37.72,1.74
110.00,0.00,206.00,17.19,-136.50,54.69,2.44,13.81,39.66,1.76
110.00,1.00,230.25,-5.00,-64.75,-0.19,5.12,-1.88,39.66,1.76
110.00,2.00,222.62,-25.50,19.19,6.50,-8.25,14.06,39.66,1.76
110.00,0.00,204.56,17.44,-137.62,56.12,2.12,13.69,41.66,1.78
110.00,1.00,230.25,-5.06,-64.75,-0.31,5.19,-2.12,41.66,1.78
110.00,2.00,222.31,-25.44,18.88,6.75,-7.81,14.94,41.66,1.78
110.00,0.00,74.62,17.62,-138.75,56.94,1.75,12.81,43.64,1.80
110.00,1.00,230.25,-5.19,-64.81,-0.81,5.00,-2.38,43.64,1.80
110.00,2.00,222.06,-25.38,18.56,7.81,-7.62,15.75,43.64,1.80
110.00,0.00,74.62,17.75,-139.94,56.50,-0.94,11.12,45.62,1.82
110.00,1.00,230.25,-5.25,-64.81,-0.62,4.69,-2.81,45.62,1.82
110.00,2.00,221.75,-25.38,18.25,7.62,-6.44,16.12,45.62,1.82
110.00,0.00,74.62,17.81,-141.06,55.81,-1.44,9.88,47.55,1.84
110.00,1.00,230.25,-5.38,-64.81,-1.62,4.25,-3.38,47.55,1.84
110.00,2.00,221.44,-25.38,17.94,8.00,-6.44,16.44,47.55,1.84
110.00,0.00,74.62,17.88,-142.19,55.50,-1.31,8.12,49.41,1.86
110.00,1.00,230.25,-5.44,-64.81,-2.25,4.50,-3.88,49.41,1.86
110.00,2.00,221.12,-25.38,17.62,9.50,-6.06,16.62,49.41,1.86
110.00,0.00,74.56,17.94,-143.25,54.38,-1.69,5.81,51.14,1.88
110.00,1.00,230.31,-5.56,-64.75,-2.12,4.31,-4.88,51.14,1.88
110.00,2.00,220.88,-25.38,17.25,11.50,-4.81,16.94,51.14,1.88
110.00,0.00,74.50,17.94,-144.31,53.00,-3.62,3.94,52.75,1.90
110.00,1.00,230.31,-5.69,-64.69,-3.62,5.12,-4.00,52.75,1.90
110.00,2.00,220.56,-25.38,16.81,13.19,-3.75,18.38,52.75,1.90
110.00,0.00,74.44,17.88,-145.38,51.94,-5.00,2.94,54.30,1.92
110.00,1.00,230.31,-5.81,-64.69,-3.94,5.88,-4.44,54.30,1.92
110.00,2.00,220.19,-25.44,16.38,13.69,-4.56,20.56,54.30,1.92
110.00,0.00,74.31,17.81,-146.38,51.94,-5.69,1.25,55.91,1.94
110.00,1.00,230.31,-5.94,-64.62,-4.44,6.19,-5.00,55.91,1.94
110.00,2.00,219.81,-25.44,15.88,12.00,-4.94,22.69,55.91,1.94
110.00,0.00,74.19,17.69,-147.44,54.12,-7.75,0.50,57.62,1.96
110.00,1.00,230.38,-6.12,-64.56,-3.81,5.56,-6.19,57.62,1.96
110.00,2.00,219.44,-25.50,15.44,11.81,-4.25,23.56,57.62,1.96
110.00,0.00,74.00,17.56,-148.50,53.69,-7.44,-0.88,59.30,1.98
110.00,1.00,230.38,-6.25,-64.50,-3.19,6.62,-5.38,59.30,1.98
110.00,2.00,219.00,-25.56,14.94,12.19,-3.69,23.31,59.30,1.98
110.00,0.00,73.81,17.38,-149.50,52.62,-7.00,-2.62,61.04,2.00
110.00,1.00,230.38,-6.38,-64.44,-5.75,6.94,-4.06,61.04,2.00
110.00,2.00,218.56,-25.62,14.50,9.38,-1.81,23.81,61.04,2.00
110.00,0.00,73.62,17.25,-150.44,51.12,-6.19,-4.25,62.82,2.02
110.00,1.00,230.38,-6.56,-64.31,-6.81,6.88,-5.19,62.82,2.02
110.00,2.00,218.12,-25.69,14.12,7.06,-2.12,24.62,62.82,2.02
110.00,0.00,73.38,17.06,-151.38,49.81,-6.06,-5.06,64.57,2.04
110.00,1.00,230.38,-6.69,-64.25,-5.56,7.50,-3.62,64.57,2.04
110.00,2.00,217.69,-25.75,13.75,6.50,-3.69,24.88,64.57,2.04
110.00,0.00,73.12,16.88,-152.31,47.88,-6.38,-5.69,66.31,2.06
110.00,1.00,230.31,-6.81,-64.19,-5.75,7.38,-3.56,66.31,2.06
110.00,2.00,217.19,-25.81,13.44,5.00,-3.50,24.44,66.31,2.06
110.00,0.00,72.88,16.75,-153.12,45.62,-5.88,-6.62,67.97,2.08
110.00,1.00,230.31,-6.94,-64.06,-4.38,6.56,-5.88,67.97,2.08
110.00,2.00,216.75,-25.88,13.12,4.50,-4.06,23.50,67.97,2.08
110.00,0.00,72.62,16.56,-153.81,43.00,-5.50,-7.25,69.53,2.10
110.00,1.00,230.31,-7.06,-64.00,-5.25,6.44,-2.75,69.53,2.10
110.00,2.00,216.31,-25.88,12.81,4.31,-4.62,22.00,69.53,2.10
110.00,0.00,72.50,16.44,-154.19,40.94,-5.44,-7.50,71.08,2.12
110.00,1.00,230.25,-7.12,-63.94,-5.56,7.19,-1.25,71.08,2.12
110.00,2.00,215.94,-25.88,12.50,2.69,-5.38,20.62,71.08,2.12
110.00,0.00,72.25,16.31,-154.81,39.75,-5.38,-7.69,72.69,2.14
110.00,1.00,230.19,-7.25,-63.81,-5.06,5.94,-1.12,72.69,2.14
110.00,2.00,215.56,-25.88,12.31,-0.25,-5.81,19.81,72.69,2.14
110.00,0.00,72.00,16.12,-155.56,40.75,-5.44,-6.56,74.33,2.16
110.00,1.00,230.12,-7.31,-63.75,-5.12,5.31,-0.81,74.33,2.16
110.00,2.00,215.12,-25.81,12.12,0.19,-7.44,18.44,74.33,2.16
110.00,0.00,71.81,16.00,-156.38,42.62,-4.06,-4.00,76.05,2.18
110.00,1.00,230.06,-7.38,-63.69,-4.50,4.56,-0.69,76.05,2.18
110.00,2.00,214.81,-25.75,12.00,0.06,-8.38,16.81,76.05,2.18
110.00,0.00,71.62,15.94,-157.19,43.06,-1.25,-2.38,77.85,2.20
110.00,1.00,230.06,-7.38,-63.62,-4.44,4.12,0.31,77.85,2.20
110.00,2.00,214.50,-25.62,11.81,-1.50,-8.62,15.31,77.85,2.20
110.00,0.00,71.44,15.88,-158.00,42.31,0.44,-2.44,79.68,2.22
110.00,1.00,230.00,-7.44,-63.56,-4.19,2.19,-0.25,79.68,2.22
110.00,2.00,214.19,-25.50,11.75,-3.00,-8.69,13.56,79.68,2.22
110.00,0.00,71.25,15.88,-158.62,40.94,1.38,-2.88,81.41,2.24
110.00,1.00,230.00,-7.44,-63.50,-3.31,1.38,-0.50,81.41,2.24
110.00,2.00,213.94,-25.44,11.69,-1.88,-9.50,11.88,81.41,2.24
110.00,0.00,71.06,15.94,-159.25,37.81,3.00,-3.38,83.01,2.26
110.00,1.00,229.94,-7.50,-63.44,-3.62,1.31,0.94,83.01,2.26
110.00,2.00,213.69,-25.25,11.62,-1.75,-10.19,10.06,83.01,2.26
110.00,0.00,70.88,16.00,-159.94,35.62,2.75,-4.00,84.58,2.28
110.00,1.00,229.94,-7.50,-63.38,-3.81,1.50,1.19,84.58,2.28
110.00,2.00,213.50,-25.12,11.56,-3.12,-10.31,8.81,84.58,2.28
110.00,0.00,70.69,16.00,-160.62,35.06,3.69,-3.81,86.10,2.30
110.00,1.00,229.88,-7.44,-63.31,-2.38,0.06,1.31,86.10,2.30
110.00,2.00,213.31,-24.94,11.50,-2.56,-11.19,8.06,86.10,2.30
110.00,0.00,70.50,16.06,-161.19,31.50,4.62,-2.62,87.49,2.32
110.00,1.00,229.88,-7.44,-63.25,-2.25,0.38,0.69,87.49,2.32
110.00,2.00,213.12,-24.75,11.50,-2.88,-10.88,7.69,87.49,2.32
110.00,0.00,70.38,16.12,-161.81,30.12,5.00,-2.19,88.86,2.34
110.00,1.00,229.88,-7.44,-63.25,-3.06,0.81,0.94,88.86,2.34
110.00,2.00,212.94,-24.56,11.50,-3.81,-9.44,6.19,88.86,2.34
110.00,0.00,70.25,16.25,-162.25,24.50,5.31,-3.19,89.98,2.36
110.00,1.00,229.81,-7.44,-63.19,-3.00,0.56,1.12,89.98,2.36
110.00,2.00,212.81,-24.44,11.50,-3.38,-9.31,4.50,89.98,2.36
110.00,0.00,70.06,16.31,-162.44,18.12,4.19,-4.25,90.86,2.38
110.00,1.00,229.81,-7.44,-63.12,-3.25,0.50,1.44,90.86,2.38
110.00,2.00,212.69,-24.25,11.50,-3.69,-8.25,3.38,90.86,2.38
110.00,0.00,69.88,16.31,-162.50,15.88,3.75,-4.19,91.66,2.40
110.00,1.00,229.75,-7.44,-63.06,-4.38,1.19,1.31,91.66,2.40
110.00,2.00,212.56,-24.19,11.50,-3.81,-6.38,5.81,91.66,2.40
110.00,0.00,69.75,16.38,-162.56,11.19,3.19,-4.06,92.30,2.42
110.00,1.00,229.69,-7.44,-63.00,-4.62,2.75,1.19,92.30,2.42
110.00,2.00,212.44,-24.12,11.56,-4.56,-4.88,5.25,92.30,2.42
110.00,0.00,69.62,16.38,-162.50,5.94,2.75,-3.00,92.72,2.44
110.00,1.00,229.62,-7.44,-62.94,-4.50,2.62,1.56,92.72,2.44
110.00,2.00,212.31,-24.06,11.56,-4.69,-3.12,4.25,92.72,2.44
110.00,0.00,69.50,16.38,-162.31,-0.06,1.25,-2.88,92.92,2.46
110.00,1.00,229.56,-7.44,-62.88,-4.25,3.31,1.62,92.92,2.46
110.00,2.00,212.25,-24.06,11.69,-4.88,-0.06,1.44,92.92,2.46
110.00,0.00,69.44,16.31,-162.06,-5.88,-0.06,-3.44,92.87,2.48
110.00,1.00,229.50,-7.44,-62.75,-4.81,2.75,0.69,92.87,2.48
110.00,2.00,212.19,-24.06,11.75,-4.69,0.81,0.75,92.87,2.48
110.00,0.00,69.38,16.25,-161.81,-10.75,-2.12,-3.94,92.64,2.50
110.00,1.00,229.44,-7.44,-62.69,-4.44,2.75,0.19,92.64,2.50
110.00,2.00,212.19,-24.12,11.81,-5.00,2.88,0.00,92.64,2.50
110.00,0.00,69.38,16.19,-161.56,-11.94,-3.56,-3.31,92.38,2.52
110.00,1.00,229.44,-7.50,-62.62,-4.75,3.19,-0.56,92.38,2.52
110.00,2.00,212.19,-24.19,11.94,-5.44,3.75,-0.81,92.38,2.52
110.00,0.00,69.38,16.12,-161.31,-11.62,-3.12,-1.94,92.15,2.54
110.00,1.00,229.38,-7.50,-62.50,-5.25,3.06,-0.50,92.15,2.54
110.00,2.00,212.19,-24.25,12.12,-6.06,4.94,-1.75,92.15,2.54
110.00,0.00,69.38,16.00,-161.06,-12.56,-3.69,-1.75,91.87,2.56
110.00,1.00,229.38,-7.56,-62.44,-5.25,2.12,-0.88,91.87,2.56
110.00,2.00,212.19,-24.38,12.25,-5.62,5.31,-1.75,91.87,2.58
110.00,0.00,69.38,15.94,-160.81,-13.06,-4.00,-2.06,91.54,2.58
110.00,1.00,229.38,-7.62,-62.31,-4.62,1.12,-1.62,91.54,2.58
110.00,2.00,212.25,-24.44,12.38,-4.94,4.94,-1.94,91.54,2.58
110.00,0.00,69.38,15.88,-160.56,-12.62,-4.38,-2.44,91.18,2.60
110.00,1.00,229.38,-7.62,-62.25,-4.62,0.88,-2.06,91.18,2.60
110.00,2.00,212.25,-24.56,12.50,-3.75,5.38,-2.88,91.18,2.60
110.00,0.00,69.38,15.75,-160.38,-11.06,-4.12,-2.25,90.87,2.62
110.00,1.00,229.44,-7.69,-62.19,-3.75,0.50,-2.12,90.87,2.62
110.00,2.00,212.31,-24.62,12.62,-3.38,4.50,-2.75,90.87,2.62
110.00,0.00,69.38,15.69,-160.31,-9.12,-3.31,-1.88,90.62,2.64
110.00,1.00,229.44,-7.75,-62.12,-3.44,0.00,-2.00,90.62,2.64
110.00,2.00,212.38,-24.69,12.69,-2.88,3.75,-2.12,90.62,2.64
110.00,0.00,69.44,15.62,-160.19,-7.50,-1.75,-0.69,90.43,2.66
110.00,1.00,229.50,-7.75,-62.06,-3.31,0.25,-1.69,90.43,2.66
110.00,2.00,212.38,-24.75,12.75,-2.88,3.31,-1.75,90.43,2.66
110.00,0.00,69.44,15.62,-160.12,-7.31,-0.81,-0.38,90.24,2.68
110.00,1.00,229.50,-7.81,-61.94,-3.50,0.31,-1.31,90.24,2.68
110.00,2.00,212.44,-24.81,12.81,-2.50,3.12,-1.88,90.24,2.68
110.00,0.00,69.44,15.62,-160.00,-8.19,-0.88,-0.75,90.00,2.70
110.00,1.00,229.50,-7.81,-61.94,-2.88,0.50,-0.88,90.00,2.70
110.00,2.00,212.44,-24.81,12.88,-2.19,2.38,-1.62,90.00,2.70
110.00,0.00,69.44,15.56,-159.75,-12.06,-1.69,-2.69,89.57,2.72
110.00,1.00,229.50,-7.81,-61.88,-2.88,0.56,-0.50,89.57,2.72
110.00,2.00,212.50,-24.88,12.94,-1.38,2.06,-1.69,89.57,2.72
110.00,0.00,69.44,15.50,-159.50,-11.88,-3.38,-2.44,89.20,2.74
110.00,1.00,229.50,-7.81,-61.81,-3.62,1.62,0.06,89.20,2.74
110.00,2.00,212.50,-24.88,13.00,-2.81,2.44,-1.31,89.20,2.74
110.00,0.00,69.44,15.44,-159.31,-8.81,-1.19,-0.62,89.03,2.76
110.00,1.00,229.44,-7.88,-61.75,-4.38,2.31,0.00,89.03,2.76
110.00,2.00,212.50,-24.94,13.06,-4.50,3.19,-0.81,89.03,2.76
110.00,0.00,69.50,15.50,-159.19,-6.62,0.50,1.81,88.92,2.78
110.00,1.00,229.44,-7.88,-61.69,-4.25,2.12,-0.25,88.92,2.78
110.00,2.00,212.50,-25.00,13.12,-4.00,3.56,-0.38,88.92,2.78
110.00,0.00,69.56,15.50,-159.00,-10.38,-0.62,0.56,88.65,2.80
110.00,1.00,229.38,-7.88,-61.62,-4.81,2.38,-0.44,88.65,2.80
110.00,2.00,212.50,-25.06,13.25,-3.81,3.56,-1.19,88.65,2.80
110.00,0.00,69.56,15.44,-158.81,-11.62,-3.00,-1.50,88.31,2.82
110.00,1.00,229.38,-7.94,-61.50,-4.44,2.06,-0.56,88.31,2.82
110.00,2.00,212.50,-25.12,13.31,-3.12,3.56,-1.50,88.31,2.82
110.00,0.00,69.56,15.31,-158.62,-10.62,-2.69,-2.31,88.04,2.84
110.00,1.00,229.31,-7.94,-61.44,-4.56,2.12,-0.81,88.04,2.84
110.00,2.00,212.56,-25.19,13.38,-3.81,3.56,-1.31,88.04,2.84
110.00,0.00,69.56,15.25,-158.50,-9.19,-3.00,-2.50,87.84,2.86
110.00,1.00,229.31,-8.00,-61.38,-4.81,2.38,-0.88,87.84,2.86
110.00,2.00,212.56,-25.25,13.50,-4.31,3.88,-0.88,87.84,2.86
110.00,0.00,69.56,15.12,-158.38,-8.06,-3.19,-2.25,87.68,2.88
110.00,1.00,229.31,-8.00,-61.31,-5.00,1.94,-1.12,87.68,2.88
110.00,2.00,212.56,-25.31,13.56,-4.12,4.12,-0.88,87.68,2.88
110.00,0.00,69.56,15.06,-158.31,-7.50,-2.38,-1.50,87.54,2.90
110.00,1.00,229.31,-8.06,-61.19,-4.69,1.75,-1.56,87.54,2.90
110.00,2.00,212.56,-25.44,13.69,-4.00,4.25,-0.56,87.54,2.90
110.00,0.00,69.56,15.00,-158.19,-8.75,-2.31,-2.19,87.33,2.92
110.00,1.00,229.31,-8.12,-61.12,-4.81,1.94,-1.56,87.33,2.92
110.00,2.00,212.56,-25.50,13.75,-3.56,3.94,-0.62,87.33,2.92
110.00,0.00,69.56,14.94,-158.06,-8.56,-2.56,-2.94,87.11,2.94
110.00,1.00,229.31,-8.19,-61.00,-4.69,1.88,-1.31,87.11,2.94
110.00,2.00,212.56,-25.56,13.81,-3.12,3.75,-0.69,87.11,2.94
110.00,0.00,69.50,14.94,-157.94,-7.75,-0.75,-2.94,86.96,2.96
110.00,1.00,229.31,-8.19,-60.94,-4.88,2.25,-0.88,86.96,2.96
110.00,2.00,212.56,-25.62,13.88,-4.19,3.75,-0.06,86.96,2.96
110.00,0.00,69.50,14.94,-157.81,-7.44,0.94,-2.38,86.86,2.98
110.00,1.00,229.25,-8.25,-60.88,-5.44,2.75,-0.12,86.86,2.98
110.00,2.00,212.56,-25.69,14.00,-4.88,3.12,0.44,86.86,2.98
110.00,0.00,69.44,14.88,-157.62,-8.69,0.88,-3.00,86.73,3.00
110.00,1.00,229.19,-8.25,-60.75,-5.44,2.69,-0.31,86.73,3.00
110.00,2.00,212.50,-25.75,14.06,-5.38,2.88,0.31,86.73,3.00
110.00,0.00,69.38,14.88,-157.44,-9.56,0.88,-3.81,86.55,3.02
110.00,1.00,229.19,-8.25,-60.69,-5.56,2.50,-0.56,86.55,3.02
110.00,2.00,212.50,-25.81,14.19,-5.19,3.12,0.00,86.55,3.02
110.00,0.00,69.31,14.88,-157.25,-9.50,0.38,-4.25,86.36,3.04
110.00,1.00,229.12,-8.31,-60.56,-5.69,2.88,-0.62,86.36,3.04
110.00,2.00,212.50,-25.88,14.31,-4.75,3.69,0.06,86.36,3.04
110.00,0.00,69.25,14.81,-157.06,-9.81,1.38,-4.31,86.18,3.06
110.00,1.00,229.12,-8.38,-60.50,-6.44,3.44,-0.25,86.18,3.06
110.00,2.00,212.44,-25.94,14.38,-5.44,3.75,0.12,86.18,3.06
110.00,0.00,69.19,14.81,-156.88,-10.25,1.31,-5.00,86.02,3.08
110.00,1.00,229.06,-8.38,-60.38,-6.06,3.69,-0.31,86.02,3.08
110.00,2.00,212.44,-26.00,14.50,-6.12,3.44,0.25,86.02,3.08
110.00,0.00,69.12,14.75,-156.69,-10.56,-0.12,-5.25,85.79,3.10
110.00,1.00,229.00,-8.44,-60.25,-5.38,3.12,-0.12,85.79,3.10
110.00,2.00,212.44,-26.06,14.62,-5.06,3.38,1.00,85.79,3.10
110.00,0.00,69.06,14.69,-156.50,-10.00,-0.75,-5.25,85.57,3.12
110.00,1.00,228.94,-8.44,-60.19,-5.56,3.31,-0.19,85.57,3.12
110.00,2.00,212.38,-26.19,14.69,-4.56,3.38,1.19,85.57,3.12
110.00,0.00,69.00,14.62,-156.31,-9.44,-1.19,-5.12,85.39,3.14
110.00,1.00,228.88,-8.50,-60.06,-6.31,3.81,-0.38,85.39,3.14
110.00,2.00,212.38,-26.25,14.81,-4.88,4.12,0.81,85.39,3.14
110.00,0.00,68.94,14.56,-156.12,-9.25,-1.62,-5.00,85.25,3.16
110.00,1.00,228.88,-8.50,-59.94,-6.00,3.38,-0.38,85.25,3.16
110.00,2.00,212.31,-26.31,14.88,-5.75,3.88,1.00,85.25,3.16
110.00,0.00,68.88,14.50,-156.00,-8.88,-1.25,-4.75,85.10,3.18
110.00,1.00,228.81,-8.56,-59.88,-5.75,3.25,-0.88,85.10,3.18
110.00,2.00,212.25,-26.38,15.00,-5.31,3.44,1.19,85.10,3.18
110.00,0.00,68.81,14.44,-155.81,-7.88,-0.12,-4.31,85.00,3.20
110.00,1.00,228.81,-8.62,-59.75,-6.00,3.38,-0.75,85.00,3.20
110.00,2.00,212.25,-26.44,15.12,-5.31,3.56,0.62,85.00,3.20
110.00,0.00,68.75,14.44,-155.75,-6.12,-0.12,-3.31,84.95,3.22
110.00,1.00,228.75,-8.69,-59.69,-5.94,3.25,-0.94,84.95,3.22
110.00,2.00,212.25,-26.50,15.19,-4.81,3.56,0.69,84.95,3.22
110.00,0.00,68.75,14.44,-155.62,-5.06,0.25,-2.12,84.93,3.24
110.00,1.00,228.75,-8.69,-59.62,-5.81,3.31,-0.94,84.93,3.24
110.00,2.00,212.19,-26.56,15.31,-4.75,3.44,0.56,84.93,3.24
110.00,0.00,68.69,14.44,-155.56,-5.06,0.62,-1.62,84.95,3.26
110.00,1.00,228.69,-8.75,-59.50,-5.94,3.25,-0.69,84.95,3.26
110.00,2.00,212.19,-26.62,15.44,-5.44,3.38,0.50,84.95,3.26
110.00,0.00,68.69,14.44,-155.44,-6.06,0.56,-2.38,84.93,3.28
110.00,1.00,228.69,-8.81,-59.38,-5.81,2.50,-1.19,84.93,3.28
110.00,2.00,212.19,-26.69,15.56,-5.69,2.50,0.19,84.93,3.28
110.00,0.00,68.62,14.38,-155.38,-5.38,-0.19,-2.31,84.88,3.30
110.00,1.00,228.69,-8.81,-59.31,-5.69,2.19,-1.44,84.88,3.30
110.00,2.00,212.12,-26.75,15.62,-4.12,2.31,0.00,84.88,3.30
110.00,0.00,68.62,14.38,-155.31,-3.88,0.62,-1.19,84.92,3.32
110.00,1.00,228.69,-8.88,-59.19,-5.88,2.62,-1.12,84.92,3.32
110.00,2.00,212.12,-26.81,15.69,-4.69,2.50,0.19,84.92,3.32
110.00,0.00,68.62,14.38,-155.25,-4.69,0.81,-1.12,84.94,3.34
110.00,1.00,228.62,-8.94,-59.06,-5.62,2.44,-0.88,84.94,3.34
110.00,2.00,212.12,-26.88,15.81,-5.38,2.19,0.62,84.94,3.34
110.00,0.00,68.62,14.38,-155.12,-5.44,0.00,-0.75,84.90,3.36
110.00,1.00,228.62,-8.94,-58.94,-4.81,2.19,-0.75,84.90,3.36
110.00,2.00,212.06,-26.88,15.94,-4.31,1.94,0.88,84.90,3.36
110.00,0.00,68.62,14.38,-155.06,-5.50,-0.81,-0.69,84.84,3.38
110.00,1.00,228.62,-9.00,-58.88,-5.06,2.56,-0.75,84.84,3.38
110.00,2.00,212.06,-26.94,16.00,-4.12,2.31,0.50,84.84,3.38
110.00,0.00,68.62,14.31,-154.94,-5.19,-1.31,-0.69,84.84,3.40
110.00,1.00,228.56,-9.06,-58.81,-5.56,2.69,-0.88,84.84,3.40
110.00,2.00,212.06,-27.00,16.12,-5.12,2.75,0.25,84.84,3.40
110.00,0.00,68.62,14.31,-154.81,-5.31,-1.69,-0.88,84.85,3.42
110.00,1.00,228.56,-9.06,-58.69,-5.06,2.56,-1.12,84.85,3.42
110.00,2.00,212.00,-27.06,16.19,-5.50,2.88,0.25,84.85,3.42
110.00,0.00,68.62,14.25,-154.75,-5.69,-1.62,-0.88,84.82,3.44
110.00,1.00,228.56,-9.12,-58.56,-4.75,2.31,-1.25,84.82,3.44
110.00,2.00,212.00,-27.06,16.31,-4.88,2.75,-0.19,84.82,3.44
110.00,0.00,68.62,14.25,-154.62,-5.44,-1.38,-0.94,84.76,3.46
110.00,1.00,228.50,-9.19,-58.50,-4.06,1.88,-1.25,84.76,3.46
110.00,2.00,212.00,-27.12,16.44,-4.00,2.56,-0.69,84.76,3.46
110.00,0.00,68.62,14.19,-154.56,-4.44,-1.31,-1.00,84.72,3.48
110.00,1.00,228.50,-9.19,-58.44,-3.81,1.56,-1.25,84.72,3.48
110.00,2.00,212.00,-27.19,16.50,-3.62,1.75,-0.88,84.72,3.48
110.00,0.00,68.62,14.12,-154.50,-3.44,-1.19,-0.62,84.72,3.50
110.00,1.00,228.50,-9.25,-58.38,-3.12,0.62,-1.31,84.72,3.50
110.00,2.00,212.00,-27.19,16.62,-3.25,1.38,-0.88,84.72,3.50
110.00,0.00,68.62,14.12,-154.44,-1.56,-0.06,-0.19,84.79,3.52
110.00,1.00,228.56,-9.25,-58.31,-2.50,0.06,-1.12,84.79,3.52
110.00,2.00,212.00,-27.25,16.69,-3.38,1.81,-0.94,84.79,3.52
110.00,0.00,68.62,14.12,-154.50,1.94,0.12,0.38,84.97,3.54
110.00,1.00,228.56,-9.25,-58.25,-1.81,-0.75,-1.25,84.97,3.54
110.00,2.00,212.06,-27.31,16.81,-2.62,0.69,-1.12,84.97,3.54
110.00,0.00,68.62,14.12,-154.62,6.31,0.88,1.56,85.34,3.56
110.00,1.00,228.62,-9.31,-58.19,-0.88,-2.19,-1.56,85.34,3.56
110.00,2.00,212.06,-27.25,16.94,-2.62,-1.88,-1.25,85.34,3.56
110.00,0.00,68.69,14.19,-154.94,11.19,2.56,2.44,85.85,3.58
110.00,1.00,228.69,-9.31,-58.12,-0.62,-2.75,-1.69,85.85,3.58
110.00,2.00,212.06,-27.25,17.00,-1.50,-3.50,-1.88,85.85,3.58
110.00,0.00,68.69,14.25,-155.12,15.19,4.38,3.31,86.49,3.60
110.00,1.00,228.75,-9.31,-58.12,0.75,-3.31,-1.62,86.49,3.60
110.00,2.00,212.06,-27.12,17.06,-0.69,-5.56,-1.56,86.49,3.60
110.00,0.00,68.75,14.44,-155.69,18.06,5.81,4.12,87.24,3.62
110.00,1.00,228.81,-9.31,-58.12,1.69,-3.62,-1.38,87.24,3.62
110.00,2.00,212.12,-27.06,17.06,-0.38,-6.62,-1.31,87.24,3.62
110.00,0.00,68.75,14.56,-155.88,19.81,6.75,4.88,88.03,3.64
110.00,1.00,228.94,-9.31,-58.12,2.00,-3.94,-1.12,88.03,3.64
110.00,2.00,212.12,-26.94,17.06,0.25,-7.50,-1.50,88.03,3.64
110.00,0.00,68.75,14.69,-156.31,21.06,7.19,5.38,88.81,3.66
110.00,1.00,229.00,-9.31,-58.12,3.25,-4.81,-0.75,88.81,3.66
110.00,2.00,212.12,-26.75,17.06,1.62,-9.19,-1.38,88.81,3.66
110.00,0.00,68.75,14.88,-156.75,21.75,7.81,6.00,89.59,3.68
110.00,1.00,229.06,-9.25,-58.19,3.56,-5.00,-0.56,89.59,3.68
110.00,2.00,212.12,-26.56,17.00,2.38,-10.69,-1.00,89.59,3.68
110.00,0.00,68.81,15.06,-157.19,22.62,8.12,6.50,90.43,3.70
110.00,1.00,229.12,-9.19,-58.25,3.75,-4.56,0.00,90.43,3.70
110.00,2.00,212.12,-26.38,16.94,1.94,-11.12,-1.19,90.43,3.70
110.00,0.00,68.88,15.25,-157.62,23.38,9.81,7.62,91.31,3.72
110.00,1.00,229.19,-9.19,-58.25,4.50,-4.12,-0.06,91.31,3.72
110.00,2.00,212.12,-26.19,16.88,1.69,-10.69,-1.06,91.31,3.72
110.00,0.00,68.88,15.50,-158.12,22.12,9.75,7.25,92.15,3.74
110.00,1.00,229.25,-9.12,-58.38,4.44,-4.19,0.06,92.15,3.74
110.00,2.00,212.12,-26.00,16.88,1.25,-9.56,-1.94,92.15,3.74
110.00,0.00,68.94,15.69,-158.50,20.69,8.50,6.69,92.94,3.76
110.00,1.00,229.25,-9.06,-58.44,4.38,-3.31,0.00,92.94,3.76
110.00,2.00,212.19,-25.81,16.88,1.00,-8.12,-2.44,92.94,3.76
110.00,0.00,68.94,15.81,-158.81,15.19,6.81,4.38,93.49,3.78
110.00,1.00,229.31,-9.06,-58.50,5.31,-3.62,0.00,93.49,3.78
110.00,2.00,212.19,-25.69,16.81,1.81,-8.50,-2.00,93.49,3.78
110.00,0.00,68.94,15.94,-159.00,11.19,6.06,3.19,93.83,3.80
110.00,1.00,229.38,-9.00,-58.62,5.62,-3.94,0.06,93.83,3.80
110.00,2.00,212.19,-25.50,16.75,2.69,-8.31,-1.88,93.83,3.80
110.00,0.00,68.94,15.88,-159.06,6.62,0.81,2.00,93.93,3.82
110.00,1.00,229.44,-9.00,-58.69,6.06,-3.38,0.12,93.93,3.82
110.00,2.00,212.25,-25.38,16.69,4.19,-7.44,-2.50,93.93,3.82
110.00,0.00,68.94,15.94,-159.19,8.50,2.00,3.88,94.12,3.84
110.00,1.00,229.50,-8.94,-58.81,5.69,-2.75,0.19,94.12,3.84
110.00,2.00,212.31,-25.25,16.62,3.75,-6.44,-2.50,94.12,3.84
110.00,0.00,69.00,16.00,-159.38,8.69,1.88,4.75,94.37,3.86
110.00,1.00,229.50,-8.94,-58.94,5.31,-2.06,0.25,94.37,3.86
110.00,2.00,212.31,-25.12,16.56,2.44,-3.31,-1.31,94.37,3.86
110.00,0.00,69.06,16.06,-159.56,4.69,0.88,5.19,94.43,3.88
110.00,1.00,229.56,-8.94,-59.00,5.31,-2.31,0.06,94.43,3.88
110.00,2.00,212.38,-25.06,16.50,3.19,-1.88,-0.69,94.43,3.88
110.00,0.00,69.12,16.12,-159.62,2.75,0.38,4.06,94.38,3.90
110.00,1.00,229.56,-8.88,-59.12,5.94,-1.94,-0.19,94.38,3.90
110.00,2.00,212.38,-25.06,16.44,4.12,-1.44,-1.12,94.38,3.90
110.00,0.00,69.19,16.12,-159.69,1.19,-1.25,1.12,94.25,3.92
110.00,1.00,229.62,-8.88,-59.25,5.69,-1.50,0.12,94.25,3.92
110.00,2.00,212.44,-25.06,16.31,4.25,-1.44,-1.12,94.25,3.92
110.00,0.00,69.19,16.12,-159.75,1.88,-0.88,0.88,94.17,3.94
110.00,1.00,229.62,-8.88,-59.38,5.75,-1.81,0.19,94.17,3.94
110.00,2.00,212.44,-25.00,16.25,3.88,-1.75,-0.50,94.17,3.94
110.00,0.00,69.25,16.12,-159.75,0.94,0.06,1.44,94.08,3.96
110.00,1.00,229.69,-8.88,-59.50,5.44,-1.31,0.38,94.08,3.96
110.00,2.00,212.44,-24.94,16.19,3.12,-1.25,-0.75,94.08,3.96
110.00,0.00,69.25,16.12,-159.81,0.81,-0.25,2.12,94.01,3.98
110.00,1.00,229.69,-8.88,-59.56,4.62,-0.75,0.50,94.01,3.98
110.00,2.00,212.50,-24.94,16.12,2.56,-1.25,-0.75,94.01,3.98
110.00,0.00,69.31,16.12,-159.94,1.19,-0.75,2.44,93.90,4.00
110.00,1.00,229.75,-8.81,-59.69,5.38,-1.81,0.31,93.90,4.00
110.00,2.00,212.50,-24.94,16.06,3.94,-1.94,-0.56,93.90,4.00
110.00,0.00,69.38,16.12,-160.00,1.75,-0.69,2.50,93.77,4.02
110.00,1.00,229.75,-8.81,-59.81,6.00,-1.19,0.50,93.77,4.02
110.00,2.00,212.50,-24.88,15.94,5.06,-1.81,-0.06,93.77,4.02
110.00,0.00,69.44,16.19,-160.12,3.00,0.56,2.44,93.72,4.04
110.00,1.00,229.75,-8.81,-59.94,5.81,-0.69,0.69,93.72,4.04
110.00,2.00,212.50,-24.81,15.81,4.19,-2.06,-0.06,93.72,4.04
110.00,0.00,69.44,16.19,-160.25,3.94,0.50,1.81,93.74,4.06
110.00,1.00,229.75,-8.81,-60.06,5.06,-0.44,1.19,93.74,4.06
110.00,2.00,212.50,-24.81,15.75,3.44,-2.19,0.00,93.74,4.06
110.00,0.00,69.50,16.25,-160.38,4.19,1.31,1.88,93.76,4.08
110.00,1.00,229.75,-8.75,-60.12,5.31,-1.44,0.81,93.76,4.08
110.00,2.00,212.50,-24.75,15.62,3.69,-3.31,0.44,93.76,4.08
110.00,0.00,69.56,16.31,-160.56,4.19,1.69,2.62,93.78,4.10
110.00,1.00,229.81,-8.75,-60.25,5.50,-1.38,0.69,93.78,4.10
110.00,2.00,212.50,-24.69,15.56,3.62,-2.94,0.56,93.78,4.10
110.00,0.00,69.56,16.38,-160.69,3.88,2.19,2.62,93.79,4.12
110.00,1.00,229.81,-8.69,-60.38,4.81,-0.75,0.88,93.79,4.12
110.00,2.00,212.56,-24.62,15.44,3.69,-2.62,0.44,93.79,4.12
110.00,0.00,69.62,16.44,-160.75,2.69,2.00,2.06,93.76,4.14
110.00,1.00,229.75,-8.69,-60.50,5.00,-0.69,1.25,93.76,4.14
110.00,2.00,212.56,-24.56,15.31,3.44,-3.12,0.62,93.76,4.14
110.00,0.00,69.62,16.44,-160.75,0.81,2.00,1.50,93.67,4.16
110.00,1.00,229.75,-8.69,-60.62,4.81,-0.81,1.88,93.67,4.16
110.00,2.00,212.56,-24.50,15.25,2.94,-2.44,0.50,93.67,4.16
110.00,0.00,69.62,16.50,-160.75,-0.75,2.31,0.62,93.56,4.18
110.00,1.00,229.75,-8.62,-60.75,4.44,-0.56,2.38,93.56,4.18
110.00,2.00,212.50,-24.50,15.19,2.00,-2.38,0.69,93.56,4.18
110.00,0.00,69.62,16.56,-160.75,-2.38,2.38,0.00,93.40,4.20
110.00,1.00,229.69,-8.56,-60.81,3.75,-0.19,2.12,93.40,4.20
110.00,2.00,212.50,-24.44,15.12,1.75,-1.62,0.62,93.40,4.20
110.00,0.00,69.62,16.56,-160.69,-2.94,0.75,-0.31,93.17,4.22
110.00,1.00,229.69,-8.56,-60.94,3.31,0.00,1.69,93.17,4.22
110.00,2.00,212.50,-24.44,15.06,2.62,-1.19,-0.06,93.17,4.22
110.00,0.00,69.62,16.56,-160.69,-2.38,-0.12,0.00,93.00,4.24
110.00,1.00,229.62,-8.50,-61.00,3.19,0.44,1.25,93.00,4.24
110.00,2.00,212.50,-24.44,15.00,2.00,-0.44,-0.19,93.00,4.24
110.00,0.00,69.62,16.50,-160.69,-0.81,-0.62,0.56,92.91,4.26
110.00,1.00,229.62,-8.50,-61.06,2.56,0.31,0.81,92.91,4.26
110.00,2.00,212.50,-24.44,14.94,1.25,-0.50,-0.31,92.91,4.28
110.00,0.00,69.69,16.50,-160.69,1.81,-1.44,0.81,92.92,4.28
110.00,1.00,229.62,-8.50,-61.12,2.19,-0.50,0.19,92.92,4.28
110.00,2.00,212.56,-24.38,14.94,1.56,-1.69,-0.38,92.92,4.28
110.00,0.00,69.69,16.50,-160.81,5.50,-0.19,1.56,93.07,4.30
110.00,1.00,229.69,-8.50,-61.19,3.00,-1.88,-0.75,93.07,4.30
110.00,2.00,212.56,-24.38,14.88,1.94,-2.19,0.19,93.07,4.30
110.00,0.00,69.69,16.56,-161.00,10.62,2.88,2.75,93.28,4.32
110.00,1.00,229.69,-8.50,-61.25,4.38,-2.00,-1.00,93.28,4.32
110.00,2.00,212.56,-24.31,14.81,5.25,-5.31,0.56,93.28,4.32
110.00,0.00,69.69,16.69,-161.25,13.88,5.75,3.81,93.68,4.34
110.00,1.00,229.75,-8.50,-61.31,4.44,-1.50,-0.50,93.68,4.34
110.00,2.00,212.56,-24.19,14.69,4.00,-6.94,0.50,93.68,4.34
110.00,0.00,69.75,16.81,-161.62,16.25,7.06,4.69,94.18,4.36
110.00,1.00,229.81,-8.50,-61.44,4.75,-1.94,-0.06,94.18,4.36
110.00,2.00,212.56,-24.00,14.56,3.88,-8.00,0.00,94.18,4.36
110.00,0.00,69.75,17.06,-162.06,18.00,8.81,5.62,94.70,4.38
110.00,1.00,229.81,-8.44,-61.50,5.81,-2.62,0.12,94.70,4.38
110.00,2.00,212.56,-23.88,14.44,5.12,-9.56,0.06,94.70,4.38
110.00,0.00,69.81,17.25,-162.44,18.69,9.75,6.75,95.26,4.40
110.00,1.00,229.88,-8.44,-61.62,6.31,-2.69,0.31,95.26,4.40
110.00,2.00,212.50,-23.69,14.31,5.00,-9.94,-0.38,95.26,4.40
110.00,0.00,69.88,17.44,-162.81,17.31,7.75,6.62,95.81,4.42
110.00,1.00,229.94,-8.44,-61.75,5.44,-2.50,0.44,95.81,4.42
110.00,2.00,212.56,-23.50,14.25,3.56,-10.00,-0.94,95.81,4.42
110.00,0.00,69.94,17.62,-163.19,17.38,6.00,6.12,96.41,4.44
110.00,1.00,229.94,-8.38,-61.81,5.00,-2.56,0.62,96.41,4.44
110.00,2.00,212.56,-23.31,14.19,2.56,-9.25,-0.25,96.41,4.44
110.00,0.00,70.00,17.75,-163.50,16.62,5.25,5.69,96.96,4.46
110.00,1.00,230.00,-8.38,-61.94,4.75,-3.12,0.94,96.96,4.46
110.00,2.00,212.50,-23.12,14.06,3.06,-8.94,0.31,96.96,4.46
110.00,0.00,70.00,17.88,-163.88,15.50,4.69,5.19,97.46,4.48
110.00,1.00,230.00,-8.31,-62.00,4.75,-2.62,1.06,97.46,4.48
110.00,2.00,212.50,-23.00,14.00,3.06,-8.25,0.31,97.46,4.48
110.00,0.00,70.06,17.94,-164.12,14.56,4.06,4.88,97.97,4.50
110.00,1.00,230.00,-8.25,-62.12,5.00,-2.06,1.19,97.97,4.50
110.00,2.00,212.50,-22.88,13.94,2.00,-6.12,0.19,97.97,4.50
110.00,0.00,70.06,18.00,-164.38,12.12,3.06,3.88,98.34,4.52
110.00,1.00,230.00,-8.25,-62.19,4.94,-2.69,1.00,98.34,4.52
110.00,2.00,212.50,-22.75,13.88,2.94,-5.25,0.12,98.34,4.52
110.00,0.00,70.06,18.06,-164.56,8.94,2.00,2.62,98.51,4.54
110.00,1.00,230.06,-8.19,-62.31,5.81,-3.19,0.56,98.51,4.54
110.00,2.00,212.50,-22.69,13.81,4.69,-4.81,-0.12,98.51,4.54
110.00,0.00,70.06,18.06,-164.56,4.50,2.00,0.69,98.51,4.56
110.00,1.00,230.12,-8.19,-62.44,5.81,-2.12,0.75,98.51,4.56
110.00,2.00,212.50,-22.56,13.69,4.50,-3.50,-0.75,98.51,4.56
110.00,0.00,70.06,18.06,-164.50,-0.75,-0.31,-2.12,98.32,4.58
110.00,1.00,230.12,-8.12,-62.50,5.75,-2.19,0.94,98.32,4.58
110.00,2.00,212.56,-22.56,13.62,3.88,-2.75,-0.69,98.32,4.58
110.00,0.00,70.00,18.00,-164.50,0.12,-1.31,-2.31,98.20,4.60
110.00,1.00,230.12,-8.12,-62.62,5.50,-2.31,0.81,98.20,4.60
110.00,2.00,212.56,-22.50,13.56,3.19,-1.38,-0.31,98.20,4.60
110.00,0.00,69.94,18.00,-164.50,1.44,0.69,-0.56,98.17,4.62
110.00,1.00,230.19,-8.06,-62.75,4.94,-1.44,0.56,98.17,4.62
110.00,2.00,212.56,-22.50,13.50,2.25,1.19,-0.31,98.17,4.62
110.00,0.00,69.94,18.00,-164.50,-1.25,1.00,0.31,98.03,4.64
110.00,1.00,230.19,-8.06,-62.81,3.19,-0.31,0.50,98.03,4.64
110.00,2.00,212.62,-22.56,13.44,2.25,2.44,-1.25,98.03,4.64
110.00,0.00,70.00,18.00,-164.38,-6.81,-1.88,-1.50,97.65,4.66
110.00,1.00,230.19,-8.06,-62.88,3.00,-0.75,0.06,97.65,4.66
110.00,2.00,212.62,-22.56,13.38,2.50,2.06,-1.31,97.65,4.66
110.00,0.00,69.94,17.94,-164.25,-8.38,-2.81,-2.75,97.24,4.68
110.00,1.00,230.19,-8.06,-62.94,3.62,-0.56,0.19,97.24,4.68
110.00,2.00,212.69,-22.62,13.38,1.88,2.25,-1.00,97.24,4.68
110.00,0.00,69.94,17.88,-164.06,-8.06,-1.75,-2.81,96.89,4.70
110.00,1.00,230.19,-8.06,-63.00,2.50,0.44,0.44,96.89,4.70
110.00,2.00,212.69,-22.69,13.31,0.44,3.56,-0.62,96.89,4.70
110.00,0.00,69.88,17.88,-163.88,-8.88,-1.44,-3.25,96.50,4.72
110.00,1.00,230.19,-8.06,-63.06,1.88,0.44,0.44,96.50,4.72
110.00,2.00,212.69,-22.75,13.31,0.81,4.06,-0.19,96.50,4.72
110.00,0.00,69.88,17.81,-163.75,-10.50,-2.50,-2.31,96.02,4.74
110.00,1.00,230.19,-8.06,-63.12,1.50,0.50,0.19,96.02,4.74
110.00,2.00,212.69,-22.81,13.25,1.44,4.19,-0.62,96.02,4.74
110.00,0.00,69.88,17.75,-163.56,-11.31,-2.62,-1.88,95.52,4.76
110.00,1.00,230.19,-8.06,-63.19,0.56,1.38,-0.19,95.52,4.76
110.00,2.00,212.75,-22.88,13.19,1.06,3.69,-0.25,95.52,4.76
110.00,0.00,69.94,17.69,-163.38,-11.69,-2.94,-1.56,95.04,4.78
110.00,1.00,230.12,-8.06,-63.25,0.44,1.19,0.06,95.04,4.78
110.00,2.00,212.75,-22.94,13.12,0.19,4.62,0.12,95.04,4.78
110.00,0.00,69.94,17.62,-163.19,-12.81,-3.00,-1.81,94.54,4.80
110.00,1.00,230.12,-8.06,-63.25,-0.31,2.19,0.56,94.54,4.80
110.00,2.00,212.75,-23.06,13.06,-0.50,4.81,0.06,94.54,4.80
110.00,0.00,69.94,17.56,-162.94,-14.31,-4.06,-3.50,93.98,4.82
110.00,1.00,230.06,-8.12,-63.31,-1.12,2.19,0.56,93.98,4.82
110.00,2.00,212.75,-23.12,13.00,-0.50,4.81,-0.12,93.98,4.82
110.00,0.00,69.94,17.44,-162.75,-13.38,-4.75,-3.56,93.46,4.84
110.00,1.00,230.06,-8.12,-63.38,-1.50,2.00,0.69,93.46,4.84
110.00,2.00,212.75,-23.19,13.00,-0.56,5.38,-0.12,93.46,4.84
110.00,0.00,69.94,17.31,-162.62,-11.88,-3.56,-3.06,93.06,4.86
110.00,1.00,230.00,-8.12,-63.38,-2.25,2.56,0.50,93.06,4.86
110.00,2.00,212.75,-23.31,12.94,-1.81,5.38,0.31,93.06,4.86
110.00,0.00,69.94,17.25,-162.44,-12.12,-4.06,-2.88,92.65,4.88
110.00,1.00,229.94,-8.12,-63.38,-3.06,2.38,-0.12,92.65,4.88
110.00,2.00,212.69,-23.38,13.00,-2.12,5.31,0.56,92.65,4.88
110.00,0.00,69.94,17.12,-162.31,-12.31,-4.69,-3.25,92.24,4.90
110.00,1.00,229.88,-8.12,-63.38,-3.62,2.88,-0.50,92.24,4.90
110.00,2.00,212.69,-23.50,13.00,-1.94,5.94,0.00,92.24,4.90
110.00,0.00,69.94,17.06,-162.12,-11.25,-4.12,-3.56,91.90,4.92
110.00,1.00,229.88,-8.12,-63.31,-4.44,2.69,-0.25,91.90,4.92
110.00,2.00,212.69,-23.56,13.00,-3.00,5.00,0.81,91.90,4.92
110.00,0.00,69.94,17.00,-162.00,-10.38,-3.19,-4.06,91.61,4.94
110.00,1.00,229.81,-8.19,-63.25,-4.06,2.19,-0.12,91.61,4.94
110.00,2.00,212.69,-23.69,13.00,-3.19,4.56,0.88,91.61,4.94
110.00,0.00,69.88,16.94,-161.88,-9.19,-2.31,-4.00,91.42,4.96
110.00,1.00,229.75,-8.19,-63.19,-4.88,2.88,0.19,91.42,4.96
110.00,2.00,212.62,-23.75,13.06,-4.50,4.50,1.31,91.42,4.96
110.00,0.00,69.88,16.88,-161.75,-8.19,-1.12,-3.94,91.28,4.98
110.00,1.00,229.75,-8.19,-63.12,-5.38,2.81,0.12,91.28,4.98
110.00,2.00,212.56,-23.81,13.12,-4.62,4.00,1.81,91.28,4.98
110.00,0.00,69.81,16.88,-161.56,-8.75,0.25,-4.25,91.08,5.00
110.00,1.00,229.69,-8.25,-63.06,-4.94,2.50,0.06,91.08,5.00
110.00,2.00,212.56,-23.94,13.19,-3.94,3.69,1.38,91.08,5.00
110.00,0.00,69.75,16.88,-161.38,-8.88,0.06,-4.25,90.91,5.02
110.00,1.00,229.62,-8.25,-62.94,-5.38,2.81,0.19,90.91,5.02
110.00,2.00,212.50,-24.00,13.25,-4.62,3.88,1.44,90.91,5.02
110.00,0.00,69.69,16.81,-161.19,-7.88,0.69,-4.19,90.84,5.04
110.00,1.00,229.62,-8.25,-62.81,-6.38,3.06,0.38,90.84,5.04
110.00,2.00,212.44,-24.06,13.38,-6.19,3.44,1.69,90.84,5.04
110.00,0.00,69.62,16.81,-161.00,-7.56,1.50,-3.94,90.80,5.06
110.00,1.00,229.56,-8.31,-62.75,-6.31,2.94,0.62,90.80,5.06
110.00,2.00,212.38,-24.12,13.50,-6.38,2.94,1.88,90.80,5.06
110.00,0.00,69.56,16.81,-160.81,-8.38,0.62,-3.94,90.71,5.08
110.00,1.00,229.50,-8.31,-62.62,-6.00,2.50,0.50,90.71,5.08
110.00,2.00,212.38,-24.19,13.62,-6.19,3.38,1.00,90.71,5.08
110.00,0.00,69.50,16.81,-160.62,-9.62,-0.69,-4.69,90.55,5.10
110.00,1.00,229.44,-8.38,-62.50,-6.44,2.75,0.31,90.55,5.10
110.00,2.00,212.31,-24.25,13.75,-5.75,3.44,0.62,90.55,5.10
110.00,0.00,69.44,16.75,-160.44,-8.44,-1.50,-4.75,90.43,5.12
110.00,1.00,229.44,-8.38,-62.38,-6.00,2.25,-0.06,90.43,5.12
110.00,2.00,212.31,-24.38,13.81,-5.38,3.31,0.81,90.43,5.12
110.00,0.00,69.38,16.69,-160.25,-7.56,-1.06,-4.06,90.36,5.14
110.00,1.00,229.38,-8.38,-62.25,-6.25,2.69,-0.19,90.36,5.14
110.00,2.00,212.25,-24.44,13.94,-5.81,4.12,0.44,90.36,5.14
110.00,0.00,69.38,16.69,-160.19,-7.19,-1.06,-3.38,90.31,5.16
110.00,1.00,229.31,-8.44,-62.12,-6.44,2.75,-0.44,90.31,5.16
110.00,2.00,212.25,-24.50,14.12,-6.06,3.75,-0.12,90.31,5.16
110.00,0.00,69.31,16.62,-160.06,-6.31,-1.69,-2.56,90.27,5.18
110.00,1.00,229.31,-8.44,-62.00,-6.38,1.81,-0.94,90.27,5.18
110.00,2.00,212.25,-24.56,14.25,-5.25,3.00,-0.62,90.27,5.18
110.00,0.00,69.31,16.56,-159.94,-5.06,-1.31,-1.75,90.28,5.20
110.00,1.00,229.31,-8.50,-61.88,-6.19,1.62,-1.31,90.28,5.20
110.00,2.00,212.25,-24.62,14.38,-5.25,2.62,-1.25,90.28,5.20
110.00,0.00,69.31,16.56,-159.81,-3.94,-1.12,-1.38,90.31,5.22
110.00,1.00,229.31,-8.56,-61.75,-6.69,0.94,-1.75,90.31,5.22
110.00,2.00,212.25,-24.69,14.50,-4.69,1.44,-1.31,90.31,5.22
110.00,0.00,69.25,16.50,-159.81,-0.69,-0.38,-1.38,90.41,5.24
110.00,1.00,229.38,-8.56,-61.62,-5.12,-1.00,-2.25,90.41,5.24
110.00,2.00,212.25,-24.69,14.56,-3.31,0.25,-0.88,90.41,5.24
110.00,0.00,69.25,16.50,-159.81,0.50,0.00,-1.19,90.55,5.26
110.00,1.00,229.38,-8.62,-61.56,-4.75,-0.69,-2.00,90.55,5.26
110.00,2.00,212.25,-24.69,14.62,-2.88,-0.31,-0.50,90.55,5.26
110.00,0.00,69.25,16.56,-159.88,3.00,1.81,-0.69,90.81,5.28
110.00,1.00,229.44,-8.62,-61.44,-4.69,0.06,-1.19,90.81,5.28
110.00,2.00,212.25,-24.69,14.69,-3.38,-0.25,-0.38,90.81,5.28
110.00,0.00,69.19,16.56,-159.94,2.00,2.12,-0.81,91.02,5.30
110.00,1.00,229.44,-8.62,-61.38,-4.62,0.25,-0.81,91.02,5.30
110.00,2.00,212.25,-24.69,14.75,-3.38,-0.44,0.19,91.02,5.30
110.00,0.00,69.19,16.62,-159.94,1.00,2.38,-0.69,91.21,5.32
110.00,1.00,229.44,-8.62,-61.25,-4.50,0.56,-0.50,91.21,5.32
110.00,2.00,212.19,-24.69,14.81,-3.69,-0.44,0.62,91.21,5.32
110.00,0.00,69.19,16.62,-159.94,-2.94,2.50,-0.75,91.27,5.34
110.00,1.00,229.38,-8.69,-61.19,-4.50,1.19,-0.38,91.27,5.34
110.00,2.00,212.19,-24.69,14.88,-4.31,0.31,0.56,91.27,5.34
110.00,0.00,69.12,16.69,-159.81,-4.44,2.38,-1.00,91.28,5.36
110.00,1.00,229.38,-8.69,-61.12,-4.69,2.00,0.06,91.28,5.36
110.00,2.00,212.12,-24.75,15.00,-4.69,0.69,0.69,91.28,5.36
110.00,0.00,69.12,16.69,-159.62,-8.56,-0.38,-2.06,91.10,5.38
110.00,1.00,229.31,-8.69,-61.00,-4.81,2.25,0.31,91.10,5.38
110.00,2.00,212.12,-24.75,15.06,-4.25,1.94,0.31,91.10,5.38
110.00,0.00,69.12,16.62,-159.44,-8.50,-1.31,-1.88,90.97,5.40
110.00,1.00,229.31,-8.75,-60.94,-5.50,2.81,0.38,90.97,5.40
110.00,2.00,212.12,-24.81,15.19,-5.31,3.44,0.12,90.97,5.40
110.00,0.00,69.06,16.56,-159.25,-8.12,-1.88,-1.81,90.91,5.42
110.00,1.00,229.25,-8.75,-60.81,-5.69,2.75,-0.31,90.91,5.42
110.00,2.00,212.06,-24.88,15.31,-6.62,4.06,0.00,90.91,5.42
110.00,0.00,69.06,16.50,-159.12,-9.75,-4.00,-2.19,90.74,5.44
110.00,1.00,229.25,-8.81,-60.69,-5.25,1.94,-1.00,90.74,5.44
110.00,2.00,212.06,-25.00,15.44,-5.44,4.81,-0.75,90.74,5.44
110.00,0.00,69.06,16.38,-158.88,-10.25,-4.94,-2.75,90.48,5.46
110.00,1.00,229.25,-8.81,-60.62,-4.75,1.94,-1.25,90.48,5.46
110.00,2.00,212.12,-25.06,15.56,-3.81,4.88,-0.88,90.48,5.46
110.00,0.00,69.06,16.25,-158.69,-9.56,-6.38,-3.56,90.23,5.48
110.00,1.00,229.25,-8.88,-60.50,-4.69,1.25,-1.25,90.23,5.48
110.00,2.00,212.12,-25.19,15.62,-3.31,4.56,-1.00,90.23,5.48
110.00,0.00,69.06,16.12,-158.56,-7.25,-5.94,-3.25,90.10,5.50
110.00,1.00,229.25,-8.94,-60.44,-4.56,1.12,-1.06,90.10,5.50
110.00,2.00,212.12,-25.25,15.75,-4.00,4.25,-0.81,90.10,5.50
110.00,0.00,69.00,16.00,-158.44,-5.69,-3.81,-2.25,90.01,5.52
110.00,1.00,229.25,-8.94,-60.38,-4.12,0.38,-1.31,90.01,5.52
110.00,2.00,212.12,-25.31,15.88,-3.62,3.62,-0.94,90.01,5.52
110.00,0.00,69.00,15.94,-158.31,-5.50,-2.44,-1.44,89.90,5.54
110.00,1.00,229.25,-9.00,-60.25,-3.62,0.38,-1.69,89.90,5.54
110.00,2.00,212.12,-25.38,15.94,-2.75,2.94,-0.88,89.90,5.54
110.00,0.00,69.00,15.94,-158.25,-5.56,-1.38,-1.06,89.78,5.56
110.00,1.00,229.25,-9.00,-60.25,-3.06,0.62,-1.19,89.78,5.56
110.00,2.00,212.19,-25.44,16.00,-2.44,2.50,-1.19,89.78,5.56
110.00,0.00,69.06,15.94,-158.12,-4.19,-0.44,-0.44,89.70,5.58
110.00,1.00,229.31,-9.00,-60.12,-3.31,0.50,-0.69,89.70,5.58
110.00,2.00,212.19,-25.44,16.06,-2.38,1.69,-1.19,89.70,5.58
110.00,0.00,69.06,15.94,-158.12,-3.25,1.06,0.25,89.68,5.60
110.00,1.00,229.31,-9.00,-60.06,-2.75,0.31,-0.25,89.68,5.60
110.00,2.00,212.19,-25.50,16.12,-2.62,1.56,-0.81,89.68,5.60
110.00,0.00,69.06,16.00,-158.00,-4.12,1.38,0.75,89.61,5.62
110.00,1.00,229.31,-9.00,-60.06,-2.75,0.62,-0.44,89.61,5.62
110.00,2.00,212.19,-25.50,16.19,-2.50,1.56,-0.62,89.61,5.62
110.00,0.00,69.06,16.00,-157.94,-5.38,0.69,0.12,89.46,5.64
110.00,1.00,229.25,-9.06,-59.94,-2.62,0.75,-0.06,89.46,5.64
110.00,2.00,212.19,-25.56,16.19,-1.69,1.38,-0.56,89.46,5.64
110.00,0.00,69.06,16.00,-157.81,-5.81,-0.44,-0.69,89.30,5.66
110.00,1.00,229.25,-9.06,-59.94,-2.31,1.06,0.19,89.30,5.66
110.00,2.00,212.19,-25.56,16.25,-1.75,1.12,0.00,89.30,5.66
110.00,0.00,69.06,16.00,-157.69,-5.56,-0.38,-0.31,89.16,5.68
110.00,1.00,229.25,-9.06,-59.88,-2.50,1.69,0.44,89.16,5.68
110.00,2.00,212.19,-25.62,16.31,-2.06,1.88,0.12,89.16,5.68
110.00,0.00,69.12,16.00,-157.56,-6.06,-0.25,0.00,89.01,5.70
110.00,1.00,229.19,-9.06,-59.81,-3.19,2.00,0.38,89.01,5.70
110.00,2.00,212.19,-25.62,16.31,-2.44,2.00,0.12,89.01,5.70
110.00,0.00,69.12,15.94,-157.44,-6.81,-1.81,-0.31,88.85,5.72
110.00,1.00,229.19,-9.06,-59.81,-3.19,1.81,0.19,88.85,5.72
110.00,2.00,212.19,-25.69,16.38,-2.81,2.38,0.38,88.85,5.72
110.00,0.00,69.19,15.94,-157.31,-6.81,-2.44,-0.50,88.70,5.74
110.00,1.00,229.12,-9.12,-59.75,-2.81,1.88,0.06,88.70,5.74
110.00,2.00,212.12,-25.75,16.44,-3.12,2.38,0.19,88.70,5.74
110.00,0.00,69.19,15.88,-157.19,-6.69,-2.12,-0.69,88.52,5.76
110.00,1.00,229.12,-9.12,-59.69,-2.31,1.88,0.00,88.52,5.76
110.00,2.00,212.12,-25.81,16.50,-2.25,2.69,-0.12,88.52,5.76
110.00,0.00,69.19,15.81,-157.06,-6.56,-2.06,-0.94,88.34,5.78
110.00,1.00,229.12,-9.12,-59.62,-2.56,1.94,-0.25,88.34,5.78
110.00,2.00,212.12,-25.81,16.56,-2.00,2.56,-0.06,88.34,5.78
110.00,0.00,69.19,15.75,-156.94,-6.88,-2.75,-1.31,88.17,5.80
110.00,1.00,229.06,-9.19,-59.62,-2.19,1.69,-0.44,88.17,5.80
110.00,2.00,212.12,-25.88,16.62,-2.81,2.81,-0.25,88.17,5.80
110.00,0.00,69.19,15.69,-156.81,-6.56,-2.94,-1.44,88.00,5.82
110.00,1.00,229.06,-9.19,-59.56,-2.00,0.94,-0.94,88.00,5.82
110.00,2.00,212.12,-25.94,16.69,-2.38,2.75,-0.50,88.00,5.82
110.00,0.00,69.19,15.62,-156.69,-6.44,-2.81,-1.19,87.81,5.84
110.00,1.00,229.06,-9.25,-59.50,-2.06,0.88,-1.25,87.81,5.84
110.00,2.00,212.12,-26.00,16.75,-1.62,2.44,-0.94,87.81,5.84
110.00,0.00,69.19,15.62,-156.62,-5.19,-1.88,-0.44,87.66,5.86
110.00,1.00,229.06,-9.25,-59.50,-2.19,1.00,-1.06,87.66,5.86
110.00,2.00,212.19,-26.06,16.81,-1.56,2.56,-1.25,87.66,5.86
110.00,0.00,69.25,15.56,-156.56,-3.56,-0.88,-0.12,87.57,5.88
110.00,1.00,229.12,-9.25,-59.44,-1.94,0.12,-1.44,87.57,5.88
110.00,2.00,212.19,-26.06,16.81,-1.25,2.19,-1.00,87.57,5.88
110.00,0.00,69.25,15.56,-156.50,-2.75,-0.38,0.00,87.51,5.90
110.00,1.00,229.12,-9.31,-59.44,-1.75,-0.06,-1.31,87.51,5.90
110.00,2.00,212.19,-26.12,16.88,-1.31,1.44,-1.00,87.51,5.90
110.00,0.00,69.25,15.56,-156.50,-2.56,-0.44,-0.31,87.44,5.92
110.00,1.00,229.12,-9.31,-59.38,-1.81,0.00,-1.31,87.44,5.92
110.00,2.00,212.25,-26.12,16.88,-0.81,1.56,-1.25,87.44,5.92
110.00,0.00,69.25,15.56,-156.50,-1.94,-0.56,-0.38,87.39,5.94
110.00,1.00,229.19,-9.31,-59.31,-1.50,-0.62,-1.44,87.39,5.94
110.00,2.00,212.25,-26.19,16.94,-0.69,1.31,-1.12,87.39,5.94
110.00,0.00,69.25,15.56,-156.44,-2.00,0.00,-0.38,87.34,5.96
110.00,1.00,229.19,-9.31,-59.31,-1.38,-0.62,-1.31,87.34,5.96
110.00,2.00,212.25,-26.19,16.94,-0.69,0.88,-0.94,87.34,5.96
110.00,0.00,69.25,15.56,-156.44,-2.44,-1.06,-0.56,87.28,5.98
110.00,1.00,229.19,-9.38,-59.25,-1.38,0.12,-0.69,87.28,5.98
110.00,2.00,212.31,-26.19,17.00,-1.06,0.88,-0.88,87.28,5.98
110.00,0.00,69.31,15.56,-156.38,-1.69,-0.88,-0.25,87.26,6.00
110.00,1.00,229.25,-9.38,-59.25,-1.50,0.38,-0.56,87.26,6.00
110.00,2.00,212.31,-26.19,17.00,-1.12,1.06,-0.62,87.26,6.00
110.00,0.00,69.31,15.56,-156.38,-1.75,-0.25,-0.25,87.25,6.02
110.00,1.00,229.19,-9.38,-59.25,-1.44,0.62,-0.69,87.25,6.02
110.00,2.00,212.31,-26.25,17.06,-1.44,1.06,-0.12,87.25,6.02
110.00,0.00,69.31,15.56,-156.31,-2.25,-0.75,-0.62,87.21,6.04
110.00,1.00,229.25,-9.38,-59.19,-1.25,1.06,-0.62,87.21,6.04
110.00,2.00,212.31,-26.25,17.06,-1.31,0.75,0.00,87.21,6.04
110.00,0.00,69.31,15.56,-156.31,-2.56,-0.38,-0.81,87.14,6.06
110.00,1.00,229.25,-9.44,-59.19,-1.38,0.81,-0.69,87.14,6.06
110.00,2.00,212.31,-26.25,17.06,-1.00,0.94,0.06,87.14,6.06
110.00,0.00,69.31,15.50,-156.25,-2.69,-0.31,-0.75,87.08,6.08
110.00,1.00,229.19,-9.44,-59.12,-1.31,1.44,-0.69,87.08,6.08
110.00,2.00,212.31,-26.31,17.12,-1.06,1.38,0.56,87.08,6.08
110.00,0.00,69.31,15.50,-156.19,-2.75,-0.62,-0.94,87.01,6.10
110.00,1.00,229.19,-9.44,-59.12,-1.44,2.06,-0.38,87.01,6.10
110.00,2.00,212.25,-26.31,17.12,-1.00,1.50,0.75,87.01,6.10
110.00,0.00,69.25,15.50,-156.12,-2.69,-1.06,-1.06,86.95,6.12
110.00,1.00,229.19,-9.50,-59.12,-1.44,2.31,-0.19,86.95,6.12
110.00,2.00,212.25,-26.38,17.12,-1.31,1.50,1.00,86.95,6.12
110.00,0.00,69.25,15.44,-156.12,-2.38,-1.69,-1.12,86.91,6.14
110.00,1.00,229.12,-9.50,-59.06,-1.44,2.19,-0.31,86.91,6.14
110.00,2.00,212.25,-26.38,17.12,-1.25,1.38,1.25,86.91,6.14
110.00,0.00,69.25,15.38,-156.12,-1.69,-1.69,-1.06,86.87,6.16
110.00,1.00,229.12,-9.50,-59.06,-1.44,2.19,-0.50,86.87,6.16
110.00,2.00,212.19,-26.44,17.19,-0.69,1.62,1.31,86.87,6.16
110.00,0.00,69.25,15.38,-156.06,-1.44,-1.62,-1.12,86.85,6.18
110.00,1.00,229.06,-9.56,-59.06,-1.75,2.69,-0.56,86.85,6.18
110.00,2.00,212.19,-26.44,17.19,-1.12,1.62,1.12,86.85,6.18
110.00,0.00,69.25,15.31,-156.06,-1.00,-1.88,-1.38,86.86,6.20
110.00,1.00,229.06,-9.56,-59.00,-1.75,2.69,-0.56,86.86,6.20
110.00,2.00,212.19,-26.50,17.19,-1.25,1.38,1.50,86.86,6.20
110.00,0.00,69.25,15.25,-156.06,-1.00,-1.38,-1.38,86.88,6.22
110.00,1.00,229.00,-9.62,-59.00,-1.69,2.50,-0.56,86.88,6.22
110.00,2.00,212.12,-26.56,17.19,-1.44,1.25,1.81,86.88,6.22
110.00,0.00,69.19,15.25,-156.06,-0.75,-1.75,-1.56,86.91,6.24
110.00,1.00,229.00,-9.62,-58.94,-1.69,2.56,-0.56,86.91,6.24
110.00,2.00,212.06,-26.56,17.19,-1.44,1.50,1.62,86.91,6.24
110.00,0.00,69.19,15.19,-156.06,-0.75,-1.44,-1.56,86.96,6.26
110.00,1.00,228.94,-9.62,-58.94,-2.25,2.50,-0.38,86.96,6.26
110.00,2.00,212.06,-26.62,17.25,-2.00,1.69,1.56,86.96,6.26
110.00,0.00,69.12,15.12,-156.00,-1.69,-1.31,-1.69,86.98,6.28
110.00,1.00,228.94,-9.69,-58.88,-2.56,2.44,-0.38,86.98,6.28
110.00,2.00,212.00,-26.62,17.25,-2.25,1.69,1.75,86.98,6.28
110.00,0.00,69.12,15.12,-156.00,-1.75,-0.88,-1.81,87.03,6.30
110.00,1.00,228.88,-9.69,-58.81,-2.56,2.19,-0.69,87.03,6.30
110.00,2.00,212.00,-26.69,17.31,-2.81,1.38,1.56,87.03,6.30
110.00,0.00,69.12,15.12,-155.94,-2.19,-0.75,-1.69,87.05,6.32
110.00,1.00,228.88,-9.75,-58.81,-3.25,2.56,-0.88,87.05,6.32
110.00,2.00,211.94,-26.75,17.38,-2.88,2.12,1.12,87.05,6.32
110.00,0.00,69.06,15.06,-155.88,-2.50,-0.69,-1.69,87.09,6.34
110.00,1.00,228.88,-9.81,-58.75,-3.31,2.50,-0.81,87.09,6.34
110.00,2.00,211.94,-26.75,17.38,-3.31,2.19,0.75,87.09,6.34
110.00,0.00,69.06,15.06,-155.81,-3.44,-0.75,-1.88,87.06,6.36
110.00,1.00,228.88,-9.81,-58.69,-3.31,2.19,-0.94,87.06,6.36
110.00,2.00,211.88,-26.81,17.50,-2.81,1.94,0.56,87.06,6.36
110.00,0.00,69.06,15.00,-155.75,-4.19,-1.38,-2.00,86.98,6.38
110.00,1.00,228.81,-9.88,-58.62,-2.94,1.81,-1.00,86.98,6.38
110.00,2.00,211.88,-26.88,17.56,-2.25,2.00,0.44,86.98,6.38
110.00,0.00,69.00,14.94,-155.62,-4.38,-1.50,-1.62,86.92,6.40
110.00,1.00,228.81,-9.88,-58.56,-3.44,2.00,-1.12,86.92,6.40
110.00,2.00,211.88,-26.88,17.56,-2.88,2.50,0.44,86.92,6.40
110.00,0.00,69.00,14.94,-155.56,-4.06,-1.88,-1.50,86.89,6.42
110.00,1.00,228.81,-9.94,-58.50,-3.69,2.00,-1.00,86.89,6.42
110.00,2.00,211.88,-26.94,17.69,-3.31,2.38,0.50,86.89,6.42
110.00,0.00,69.00,14.88,-155.50,-3.44,-1.81,-1.44,86.87,6.44
110.00,1.00,228.81,-10.00,-58.44,-3.12,2.06,-0.88,86.87,6.44
110.00,2.00,211.88,-26.94,17.69,-2.81,2.25,0.50,86.87,6.44
110.00,0.00,69.00,14.81,-155.50,-1.62,-1.62,-0.25,86.89,6.46
110.00,1.00,228.81,-10.00,-58.38,-3.06,1.94,-1.00,86.89,6.46
110.00,2.00,211.88,-27.06,17.81,-2.25,2.38,0.62,86.89,6.46
110.00,0.00,69.00,14.81,-155.44,-2.38,-1.38,-0.62,86.89,6.48
110.00,1.00,228.81,-10.06,-58.31,-3.38,1.44,-1.31,86.89,6.48
110.00,2.00,211.81,-27.06,17.81,-2.38,2.25,0.25,86.89,6.48
110.00,0.00,69.00,14.81,-155.44,-2.06,-1.62,-0.31,86.89,6.50
110.00,1.00,228.81,-10.06,-58.25,-3.12,1.38,-1.31,86.89,6.50
110.00,2.00,211.81,-27.12,17.88,-2.06,2.00,-0.19,86.89,6.50
110.00,0.00,69.06,14.75,-155.44,-2.06,-0.88,-0.19,86.90,6.52
110.00,1.00,228.81,-10.12,-58.19,-3.12,1.12,-1.31,86.90,6.52
110.00,2.00,211.81,-27.12,17.94,-2.19,1.88,0.12,86.90,6.52
110.00,0.00,69.06,14.75,-155.38,-1.50,-0.75,0.50,86.93,6.54
110.00,1.00,228.81,-10.12,-58.12,-2.88,1.38,-1.19,86.93,6.54
110.00,2.00,211.81,-27.19,17.94,-2.25,1.50,0.12,86.93,6.54
110.00,0.00,69.06,14.75,-155.38,-0.88,-0.75,0.62,86.97,6.56
110.00,1.00,228.81,-10.19,-58.06,-3.00,1.38,-0.94,86.97,6.56
110.00,2.00,211.81,-27.19,18.00,-1.88,1.00,0.12,86.97,6.56
110.00,0.00,69.06,14.75,-155.38,-0.81,-0.12,0.69,87.01,6.58
110.00,1.00,228.81,-10.19,-58.00,-2.62,1.19,-1.00,87.01,6.58
110.00,2.00,211.81,-27.25,18.06,-1.81,0.75,0.38,87.01,6.58
110.00,0.00,69.06,14.75,-155.38,-1.12,-0.12,0.50,87.05,6.60
110.00,1.00,228.81,-10.25,-58.00,-2.38,1.19,-0.88,87.05,6.60
110.00,2.00,211.81,-27.25,18.06,-2.12,0.94,0.62,87.05,6.60
110.00,0.00,69.06,14.75,-155.38,-1.44,-0.44,0.19,87.06,6.62
110.00,1.00,228.81,-10.25,-57.94,-2.81,1.06,-0.69,87.06,6.62
110.00,2.00,211.81,-27.25,18.12,-1.81,0.75,0.69,87.06,6.62
110.00,0.00,69.06,14.75,-155.31,-0.50,-0.56,0.12,87.09,6.64
110.00,1.00,228.81,-10.31,-57.88,-2.00,1.06,-0.88,87.09,6.64
110.00,2.00,211.81,-27.25,18.12,-1.19,0.62,0.50,87.09,6.64
110.00,0.00,69.06,14.75,-155.31,-0.38,-0.81,0.19,87.12,6.66
110.00,1.00,228.81,-10.31,-57.88,-1.56,0.75,-0.81,87.12,6.66
110.00,2.00,211.75,-27.31,18.19,-1.00,0.62,0.31,87.12,6.66
110.00,0.00,69.06,14.75,-155.31,-0.25,-0.69,0.12,87.14,6.68
110.00,1.00,228.81,-10.31,-57.81,-0.75,0.62,-1.06,87.14,6.68
110.00,2.00,211.75,-27.31,18.25,-0.88,0.81,0.38,87.14,6.68
110.00,0.00,69.06,14.75,-155.31,0.06,-0.31,-0.06,87.16,6.70
110.00,1.00,228.81,-10.38,-57.81,-0.56,-0.06,-0.94,87.16,6.70
110.00,2.00,211.75,-27.38,18.25,-0.44,0.75,0.19,87.16,6.70
110.00,0.00,69.06,14.75,-155.31,0.44,-0.19,0.25,87.18,6.72
110.00,1.00,228.88,-10.38,-57.81,-0.50,-0.56,-0.62,87.18,6.72
110.00,2.00,211.75,-27.38,18.25,-0.12,0.25,0.00,87.18,6.72
110.00,0.00,69.06,14.75,-155.31,1.31,0.06,0.56,87.25,6.74
110.00,1.00,228.88,-10.38,-57.81,-0.19,-0.81,-0.69,87.25,6.74
110.00,2.00,211.75,-27.38,18.31,-0.25,-0.38,-0.38,87.25,6.74
110.00,0.00,69.06,14.75,-155.38,1.75,0.44,1.19,87.30,6.76
110.00,1.00,228.94,-10.38,-57.81,0.88,-1.38,-0.56,87.30,6.76
110.00,2.00,211.81,-27.38,18.31,0.44,-0.69,-1.00,87.30,6.76
110.00,0.00,69.12,14.75,-155.38,2.00,0.75,1.12,87.32,6.78
110.00,1.00,228.94,-10.38,-57.75,1.44,-1.94,-0.50,87.32,6.78
110.00,2.00,211.81,-27.38,18.31,1.50,-1.31,-1.25,87.32,6.78
110.00,0.00,69.12,14.75,-155.44,1.31,0.19,2.75,87.28,6.80
110.00,1.00,229.00,-10.38,-57.81,1.88,-2.50,-0.19,87.28,6.80
110.00,2.00,211.88,-27.38,18.31,2.44,-1.81,-1.56,87.28,6.80
