Iteration,IMUNo,OrientationX (deg),OrientationY,OrientationZ,GyroX (20rad/sec),GyroY,GyroZ,Elbow_Pos (rad),Time (sec)
15.00,0.00,285.38,7.06,-111.81,-1.81,-4.25,0.75,-0.07,1.02
15.00,1.00,305.19,-5.94,-67.94,-0.31,-0.12,-0.56,-0.07,1.02
15.00,2.00,291.06,-27.44,15.00,-0.19,0.31,-1.44,-0.07,1.02
15.00,0.00,285.44,7.06,-111.81,-1.44,-1.81,0.56,-0.12,1.04
15.00,1.00,305.19,-5.94,-67.94,-0.44,-0.38,-0.75,-0.12,1.04
15.00,2.00,291.06,-27.44,15.00,-0.38,0.06,-1.25,-0.12,1.04
15.00,0.00,285.44,7.06,-111.81,-0.81,-0.69,0.31,-0.14,1.06
15.00,1.00,305.25,-5.94,-67.94,-0.50,-0.62,-0.94,-0.14,1.06
15.00,2.00,291.12,-27.44,15.00,-0.31,0.25,-1.12,-0.14,1.06
15.00,0.00,285.44,7.06,-111.81,-0.88,-0.25,0.12,-0.18,1.08
15.00,1.00,305.25,-6.00,-67.94,-0.81,0.06,-1.25,-0.18,1.08
15.00,2.00,291.12,-27.44,15.00,0.06,0.94,-1.06,-0.18,1.08
15.00,0.00,285.44,7.06,-111.81,-0.75,0.06,-0.50,-0.21,1.10
15.00,1.00,305.25,-6.00,-67.94,-1.12,0.69,-0.88,-0.21,1.10
15.00,2.00,291.12,-27.44,15.00,-0.06,0.75,-0.69,-0.21,1.10
15.00,0.00,285.50,7.06,-111.81,-0.81,0.44,-1.06,-0.23,1.12
15.00,1.00,305.25,-6.00,-67.88,-0.81,0.88,-0.44,-0.23,1.12
15.00,2.00,291.12,-27.44,15.00,-0.38,0.38,0.00,-0.23,1.12
15.00,0.00,285.50,7.06,-111.81,-0.62,0.75,-1.50,-0.24,1.14
15.00,1.00,305.19,-6.00,-67.94,-0.19,0.69,-0.12,-0.24,1.14
15.00,2.00,291.12,-27.44,15.00,-0.44,0.31,0.38,-0.24,1.14
15.00,0.00,285.50,7.00,-111.81,-0.25,1.19,-1.75,-0.23,1.16
15.00,1.00,305.19,-6.00,-67.94,-0.19,1.06,-0.25,-0.23,1.16
15.00,2.00,291.12,-27.44,15.00,-0.31,0.38,0.94,-0.23,1.16
15.00,0.00,285.50,7.00,-111.88,0.00,1.69,-1.69,-0.21,1.18
15.00,1.00,305.19,-6.00,-67.94,-0.44,1.50,-0.31,-0.21,1.18
15.00,2.00,291.06,-27.50,14.94,-0.44,0.50,1.25,-0.21,1.18
15.00,0.00,285.44,7.00,-111.88,0.44,2.25,-1.69,-0.18,1.20
15.00,1.00,305.12,-6.00,-67.94,0.00,1.75,-0.19,-0.18,1.20
15.00,2.00,291.06,-27.50,14.94,-0.31,0.56,1.50,-0.18,1.20
15.00,0.00,285.38,7.00,-111.88,0.62,2.25,-1.44,-0.14,1.22
15.00,1.00,305.12,-6.00,-67.94,0.25,1.56,0.00,-0.14,1.22
15.00,2.00,291.00,-27.50,14.94,-0.31,0.56,1.31,-0.14,1.22
15.00,0.00,285.31,7.00,-111.88,0.81,2.75,-1.25,-0.08,1.24
15.00,1.00,305.12,-6.00,-67.94,-0.06,1.56,0.19,-0.08,1.24
15.00,2.00,291.00,-27.56,14.88,-0.50,0.00,1.50,-0.08,1.24
15.00,0.00,285.25,7.00,-111.94,1.00,3.06,-1.19,-0.02,1.26
15.00,1.00,305.06,-6.00,-67.94,0.00,1.81,0.19,-0.02,1.26
15.00,2.00,290.94,-27.56,14.88,-0.50,-0.38,1.81,-0.02,1.26
15.00,0.00,285.19,7.00,-111.94,1.25,3.25,-0.62,0.05,1.28
15.00,1.00,305.06,-6.00,-67.94,0.19,2.00,0.38,0.05,1.28
15.00,2.00,290.88,-27.56,14.88,-0.38,-0.38,2.25,0.05,1.28
15.00,0.00,285.06,7.06,-112.00,1.94,3.12,-0.12,0.17,1.30
15.00,1.00,305.00,-6.06,-67.94,0.38,1.88,0.69,0.17,1.30
15.00,2.00,290.88,-27.56,14.81,-0.81,-0.44,2.25,0.17,1.30
15.00,0.00,284.94,7.06,-112.06,2.88,3.50,0.25,0.31,1.32
15.00,1.00,304.94,-6.00,-68.00,0.69,1.94,1.00,0.31,1.32
15.00,2.00,290.81,-27.56,14.81,-0.25,-0.69,2.31,0.31,1.32
15.00,0.00,284.75,7.12,-112.12,4.44,4.38,1.19,0.43,1.34
15.00,1.00,304.94,-6.00,-68.00,0.88,1.88,0.50,0.43,1.34
15.00,2.00,290.75,-27.56,14.75,1.69,-1.81,2.06,0.43,1.34
15.00,0.00,284.50,7.25,-112.31,6.75,4.88,2.44,0.64,1.36
15.00,1.00,304.94,-6.06,-68.00,1.50,0.69,0.00,0.64,1.36
15.00,2.00,290.75,-27.56,14.69,1.94,-1.94,2.31,0.64,1.36
15.00,0.00,284.25,7.38,-112.56,10.06,5.62,3.31,0.97,1.38
15.00,1.00,304.94,-6.06,-68.06,2.19,0.38,0.19,0.97,1.38
15.00,2.00,290.69,-27.56,14.62,2.25,-2.81,2.62,0.97,1.38
15.00,0.00,283.94,7.50,-112.88,12.69,5.38,4.25,1.38,1.40
15.00,1.00,304.94,-6.06,-68.12,3.31,0.31,0.31,1.38,1.40
15.00,2.00,290.62,-27.50,14.56,3.31,-3.75,2.94,1.38,1.40
15.00,0.00,283.62,7.62,-113.25,15.88,4.69,4.94,1.90,1.42
15.00,1.00,304.94,-6.06,-68.19,4.44,-0.56,0.31,1.90,1.42
15.00,2.00,290.56,-27.44,14.44,3.94,-4.50,2.75,1.90,1.42
15.00,0.00,283.25,7.75,-113.69,18.81,4.50,5.81,2.50,1.44
15.00,1.00,304.94,-6.00,-68.31,5.38,-0.94,0.31,2.50,1.44
15.00,2.00,290.56,-27.38,14.31,5.06,-4.75,3.00,2.50,1.44
15.00,0.00,282.88,7.94,-114.19,22.56,3.81,7.12,3.24,1.46
15.00,1.00,304.94,-6.00,-68.38,5.50,-0.56,0.19,3.24,1.46
15.00,2.00,290.50,-27.31,14.12,5.56,-4.44,3.56,3.24,1.46
15.00,0.00,282.44,8.12,-114.75,26.00,3.69,8.81,4.11,1.48
15.00,1.00,305.00,-6.00,-68.50,5.38,-0.81,-0.12,4.11,1.48
15.00,2.00,290.44,-27.25,14.00,5.94,-4.44,3.88,4.11,1.48
15.00,0.00,282.06,8.31,-115.38,29.69,1.56,10.00,5.12,1.50
15.00,1.00,305.00,-6.00,-68.62,5.50,-0.88,0.00,5.12,1.50
15.00,2.00,290.38,-27.19,13.81,6.38,-4.69,3.88,5.12,1.50
15.00,0.00,281.69,8.50,-116.00,32.25,0.81,11.75,6.24,1.52
15.00,1.00,305.00,-6.00,-68.75,5.88,-0.38,-0.06,6.24,1.52
15.00,2.00,290.31,-27.12,13.62,6.50,-5.06,3.75,6.24,1.52
15.00,0.00,281.19,8.75,-116.62,31.50,2.12,12.38,7.30,1.54
15.00,1.00,305.00,-6.00,-68.88,6.06,-0.56,0.12,7.30,1.54
15.00,2.00,290.25,-27.00,13.44,7.12,-6.44,3.38,7.30,1.54
15.00,0.00,280.69,9.00,-117.25,31.06,3.50,12.25,8.33,1.56
15.00,1.00,305.00,-6.00,-68.94,5.69,-0.75,0.00,8.33,1.56
15.00,2.00,290.25,-26.88,13.25,7.38,-7.31,3.56,8.33,1.56
15.00,0.00,280.19,9.19,-117.88,32.56,2.94,12.62,9.42,1.58
15.00,1.00,305.00,-5.94,-69.06,5.69,-0.62,0.06,9.42,1.58
15.00,2.00,290.19,-26.75,13.06,7.44,-7.44,4.06,9.42,1.58
15.00,0.00,279.62,9.50,-118.56,35.19,2.50,14.12,10.68,1.60
15.00,1.00,305.00,-5.94,-69.19,4.94,-0.38,0.00,10.68,1.60
15.00,2.00,290.06,-26.62,12.88,6.12,-7.38,4.75,10.68,1.60
15.00,0.00,279.00,9.75,-119.31,37.00,3.19,15.56,12.04,1.62
15.00,1.00,305.00,-5.94,-69.25,4.50,-0.38,0.12,12.04,1.62
15.00,2.00,290.00,-26.56,12.69,5.75,-6.81,5.19,12.04,1.62
15.00,0.00,278.31,10.06,-120.06,37.81,4.25,16.38,13.39,1.64
15.00,1.00,305.00,-5.94,-69.38,4.62,0.12,0.44,13.39,1.64
15.00,2.00,289.94,-26.44,12.50,6.62,-6.75,5.62,13.39,1.64
15.00,0.00,277.56,10.38,-120.88,39.44,4.69,17.06,14.85,1.66
15.00,1.00,305.00,-5.94,-69.50,3.94,0.38,0.56,14.85,1.66
15.00,2.00,289.81,-26.38,12.31,5.88,-6.44,6.00,14.85,1.66
15.00,0.00,276.75,10.75,-121.69,41.44,4.88,17.88,16.42,1.68
15.00,1.00,305.00,-5.88,-69.56,3.38,0.44,0.75,16.42,1.68
15.00,2.00,289.69,-26.25,12.12,5.31,-6.38,6.44,16.42,1.68
15.00,0.00,275.88,11.12,-122.56,42.94,4.06,18.50,18.03,1.70
15.00,1.00,305.00,-5.88,-69.62,3.75,0.06,0.38,18.03,1.70
15.00,2.00,289.56,-26.12,11.94,5.88,-6.69,6.50,18.03,1.70
15.00,0.00,275.06,11.44,-123.44,44.56,2.81,18.50,19.69,1.72
15.00,1.00,305.00,-5.88,-69.75,3.12,0.62,0.12,19.69,1.72
15.00,2.00,289.44,-26.06,11.69,6.19,-6.31,6.75,19.69,1.72
15.00,0.00,274.25,11.75,-124.38,44.69,2.25,18.62,21.42,1.74
15.00,1.00,304.94,-5.81,-69.81,2.06,1.00,0.62,21.42,1.74
15.00,2.00,289.31,-25.94,11.50,5.06,-6.44,6.81,21.42,1.74
15.00,0.00,273.44,12.06,-125.25,43.88,2.88,17.62,23.12,1.76
15.00,1.00,304.88,-5.81,-69.88,1.50,1.12,0.81,23.12,1.76
15.00,2.00,289.19,-25.88,11.31,4.56,-6.25,7.25,23.12,1.76
15.00,0.00,272.62,12.31,-126.12,43.19,1.88,16.12,24.83,1.78
15.00,1.00,304.88,-5.75,-69.94,1.38,1.56,0.62,24.83,1.78
15.00,2.00,289.06,-25.81,11.12,3.81,-5.94,8.06,24.83,1.78
15.00,0.00,271.88,12.56,-127.00,43.81,0.88,15.19,26.58,1.80
15.00,1.00,304.81,-5.75,-69.94,1.00,1.50,0.75,26.58,1.80
15.00,2.00,288.88,-25.69,10.94,3.50,-6.69,8.50,26.58,1.80
15.00,0.00,271.06,12.81,-127.88,43.94,1.06,14.62,28.36,1.82
15.00,1.00,304.75,-5.75,-70.00,0.62,1.31,0.75,28.36,1.82
15.00,2.00,288.69,-25.62,10.75,3.12,-6.38,8.69,28.36,1.82
15.00,0.00,270.25,13.06,-128.75,43.62,1.75,14.12,30.11,1.84
15.00,1.00,304.75,-5.69,-70.00,0.50,1.81,0.94,30.11,1.84
15.00,2.00,288.56,-25.50,10.56,3.25,-6.06,8.62,30.11,1.84
15.00,0.00,269.44,13.31,-129.62,43.69,2.00,13.56,31.88,1.86
15.00,1.00,304.69,-5.69,-70.06,0.44,1.94,0.88,31.88,1.86
15.00,2.00,288.38,-25.44,10.44,3.00,-6.25,9.12,31.88,1.86
15.00,0.00,268.56,13.50,-130.50,42.31,3.31,12.81,33.63,1.88
15.00,1.00,304.62,-5.69,-70.06,-0.62,2.00,0.56,33.63,1.88
15.00,2.00,288.19,-25.38,10.25,2.06,-5.69,8.81,33.63,1.88
15.00,0.00,267.69,13.69,-131.31,41.38,3.81,11.75,35.31,1.90
15.00,1.00,304.56,-5.69,-70.06,-1.25,2.25,0.62,35.31,1.90
15.00,2.00,288.00,-25.25,10.12,2.56,-6.25,9.00,35.31,1.90
15.00,0.00,266.81,13.94,-132.12,41.25,3.38,10.94,37.00,1.92
15.00,1.00,304.50,-5.69,-70.06,-0.94,2.00,0.75,37.00,1.92
15.00,2.00,287.81,-25.19,9.94,2.38,-6.12,9.62,37.00,1.92
15.00,0.00,266.00,14.06,-132.88,40.88,3.44,10.00,38.72,1.94
15.00,1.00,304.44,-5.69,-70.06,-1.56,3.12,1.00,38.72,1.94
15.00,2.00,287.62,-25.12,9.81,1.31,-5.88,9.94,38.72,1.94
15.00,0.00,265.19,14.25,-133.62,40.06,3.25,9.31,40.45,1.96
15.00,1.00,304.38,-5.69,-70.06,-2.31,2.62,0.75,40.45,1.96
15.00,2.00,287.44,-25.00,9.69,0.25,-5.88,10.06,40.45,1.96
15.00,0.00,264.44,14.31,-134.38,39.31,2.19,8.69,42.14,1.98
15.00,1.00,304.38,-5.69,-70.00,-2.00,2.81,-0.12,42.14,1.98
15.00,2.00,287.25,-24.94,9.56,0.38,-5.56,10.00,42.14,1.98
15.00,0.00,263.75,14.44,-135.06,37.81,2.12,7.75,43.79,2.00
15.00,1.00,304.31,-5.69,-70.00,-2.25,3.25,-0.12,43.79,2.00
15.00,2.00,287.00,-24.88,9.50,-0.25,-4.19,9.38,43.79,2.00
15.00,0.00,263.06,14.56,-135.75,35.69,2.19,7.75,45.40,2.02
15.00,1.00,304.25,-5.69,-69.94,-1.94,3.50,0.31,45.40,2.02
15.00,2.00,286.88,-24.88,9.44,-1.31,-3.75,8.88,45.40,2.02
15.00,0.00,262.31,14.69,-136.38,34.31,1.56,7.50,46.94,2.04
15.00,1.00,304.25,-5.75,-69.94,-2.19,2.50,0.19,46.94,2.04
15.00,2.00,286.69,-24.81,9.38,-1.06,-3.19,8.56,46.94,2.04
15.00,0.00,124.00,14.75,-137.00,32.94,2.00,6.56,48.34,2.06
15.00,1.00,304.19,-5.75,-69.94,-2.50,2.12,-0.25,48.34,2.06
15.00,2.00,286.50,-24.75,9.25,0.56,-4.00,8.31,48.34,2.06
15.00,0.00,124.00,14.81,-137.62,32.94,0.56,5.81,49.73,2.08
15.00,1.00,304.12,-5.75,-69.88,-3.12,2.81,0.19,49.73,2.08
15.00,2.00,286.38,-24.75,9.19,1.00,-4.50,7.75,49.73,2.08
15.00,0.00,124.00,14.88,-138.25,33.69,0.00,6.19,51.23,2.10
15.00,1.00,304.12,-5.75,-69.81,-4.06,3.31,0.69,51.23,2.10
15.00,2.00,286.19,-24.69,9.12,-0.88,-4.44,7.38,51.23,2.10
15.00,0.00,124.00,14.94,-138.81,33.44,-0.25,6.44,52.75,2.12
15.00,1.00,304.00,-5.75,-69.75,-2.94,2.75,0.69,52.75,2.12
15.00,2.00,286.00,-24.62,9.06,-1.56,-4.94,7.44,52.75,2.12
15.00,0.00,124.00,15.00,-139.44,31.81,-0.19,5.94,54.22,2.14
15.00,1.00,304.00,-5.75,-69.69,-3.56,2.56,0.88,54.22,2.14
15.00,2.00,285.88,-24.50,9.00,-1.94,-4.81,7.06,54.22,2.14
15.00,0.00,124.00,15.06,-140.00,31.12,-0.69,5.38,55.69,2.16
15.00,1.00,303.94,-5.75,-69.62,-3.75,1.69,0.38,55.69,2.16
15.00,2.00,285.75,-24.44,9.00,-2.75,-4.88,6.88,55.69,2.16
15.00,0.00,124.06,15.12,-140.69,32.56,-0.94,5.56,57.19,2.18
15.00,1.00,303.88,-5.81,-69.56,-3.50,1.25,-0.25,57.19,2.18
15.00,2.00,285.56,-24.38,9.00,-2.06,-5.19,6.56,57.19,2.18
15.00,0.00,124.06,15.19,-141.38,35.19,0.81,5.50,58.74,2.20
15.00,1.00,303.88,-5.81,-69.50,-2.19,0.69,-0.25,58.74,2.20
15.00,2.00,285.44,-24.31,8.94,-0.56,-5.50,5.62,58.74,2.20
15.00,0.00,124.06,15.25,-142.06,36.19,1.12,5.44,60.31,2.22
15.00,1.00,303.88,-5.81,-69.50,-2.19,0.62,-0.06,60.31,2.22
15.00,2.00,285.31,-24.19,8.94,0.12,-5.88,5.25,60.31,2.22
15.00,0.00,124.00,15.38,-142.75,36.62,2.69,5.81,61.94,2.24
15.00,1.00,303.88,-5.81,-69.44,-2.00,0.12,-0.19,61.94,2.24
15.00,2.00,285.25,-24.12,8.88,-0.81,-6.31,4.75,61.94,2.24
15.00,0.00,124.00,15.44,-143.12,36.31,5.19,4.81,63.56,2.26
15.00,1.00,303.81,-5.81,-69.38,-1.75,-0.50,-0.38,63.56,2.26
15.00,2.00,285.12,-24.00,8.81,-1.12,-7.06,5.25,63.56,2.26
15.00,0.00,123.94,15.62,-144.19,37.88,4.38,4.25,65.27,2.28
15.00,1.00,303.81,-5.81,-69.38,-1.62,-0.75,-0.38,65.27,2.28
15.00,2.00,285.00,-23.88,8.81,-1.38,-7.31,5.50,65.27,2.28
15.00,0.00,123.88,15.75,-144.94,38.81,4.94,4.94,67.02,2.30
15.00,1.00,303.88,-5.81,-69.31,-1.38,-0.88,-0.69,67.02,2.30
15.00,2.00,284.88,-23.75,8.75,-1.62,-7.06,5.06,67.02,2.30
15.00,0.00,123.88,15.81,-145.31,39.19,5.44,5.25,68.83,2.32
15.00,1.00,303.88,-5.81,-69.31,-1.44,-1.06,-0.62,68.83,2.32
15.00,2.00,284.75,-23.62,8.75,-2.31,-7.62,4.81,68.83,2.32
15.00,0.00,123.81,15.94,-146.06,38.00,5.44,4.56,70.59,2.34
15.00,1.00,303.88,-5.75,-69.25,-2.19,-1.50,-0.44,70.59,2.34
15.00,2.00,284.62,-23.50,8.75,-2.56,-8.50,5.00,70.59,2.34
15.00,0.00,123.75,16.06,-146.75,37.19,5.56,4.44,72.35,2.36
15.00,1.00,303.94,-5.75,-69.25,-2.50,-2.12,-0.62,72.35,2.36
15.00,2.00,284.50,-23.38,8.75,-3.44,-8.62,5.00,72.35,2.36
15.00,0.00,123.69,16.19,-147.38,36.75,5.81,3.75,74.13,2.38
15.00,1.00,303.94,-5.75,-69.19,-2.31,-2.31,-0.69,74.13,2.38
15.00,2.00,284.38,-23.19,8.81,-4.12,-7.75,4.75,74.13,2.38
15.00,0.00,123.56,16.31,-148.12,37.25,3.56,3.00,75.96,2.40
15.00,1.00,304.00,-5.75,-69.12,-1.94,-2.31,-0.50,75.96,2.40
15.00,2.00,284.25,-23.12,8.88,-5.00,-6.62,5.00,75.96,2.40
15.00,0.00,123.50,16.38,-148.88,38.88,1.50,3.69,77.88,2.42
15.00,1.00,304.00,-5.75,-69.12,-2.12,-2.38,-0.75,77.88,2.42
15.00,2.00,284.12,-23.00,8.88,-5.38,-6.06,4.44,77.88,2.42
15.00,0.00,123.44,16.44,-149.62,39.88,2.31,4.56,79.83,2.44
15.00,1.00,304.06,-5.75,-69.06,-3.19,-3.25,-1.19,79.83,2.44
15.00,2.00,284.06,-22.88,8.94,-4.81,-6.00,4.00,79.83,2.44
15.00,0.00,123.44,16.50,-150.44,39.81,1.69,5.06,81.73,2.46
15.00,1.00,304.12,-5.75,-69.00,-3.56,-2.75,-1.75,81.73,2.46
15.00,2.00,283.94,-22.75,9.00,-4.06,-6.75,4.12,81.73,2.46
15.00,0.00,123.44,16.62,-151.19,38.56,1.50,6.06,83.58,2.48
15.00,1.00,304.19,-5.75,-68.94,-3.06,-2.38,-2.31,83.58,2.48
15.00,2.00,283.81,-22.69,9.06,-3.94,-6.75,3.81,83.58,2.48
15.00,0.00,123.44,16.69,-151.88,37.56,2.06,6.62,85.34,2.50
15.00,1.00,304.25,-5.75,-68.88,-2.56,-2.44,-2.44,85.34,2.50
15.00,2.00,283.75,-22.56,9.06,-2.94,-6.81,3.81,85.34,2.50
15.00,0.00,123.38,16.81,-152.56,36.81,2.19,6.19,87.05,2.52
15.00,1.00,304.31,-5.81,-68.81,-2.12,-2.38,-2.25,87.05,2.52
15.00,2.00,283.62,-22.44,9.06,-2.62,-7.44,3.56,87.05,2.52
15.00,0.00,123.38,16.88,-153.31,35.50,1.38,6.56,88.71,2.54
15.00,1.00,304.38,-5.81,-68.75,-1.81,-2.69,-1.12,88.71,2.54
15.00,2.00,283.56,-22.25,9.06,-2.75,-8.12,4.25,88.71,2.54
15.00,0.00,123.44,17.00,-154.00,34.56,1.19,7.06,90.34,2.56
15.00,1.00,304.44,-5.75,-68.75,-2.44,-2.25,-1.19,90.34,2.56
15.00,2.00,283.44,-22.12,9.06,-3.06,-8.25,4.25,90.34,2.56
15.00,0.00,123.44,17.06,-154.69,31.69,1.12,6.12,91.91,2.58
15.00,1.00,304.50,-5.75,-68.69,-3.00,-1.88,-1.00,91.91,2.58
15.00,2.00,283.31,-22.00,9.06,-4.25,-8.38,4.38,91.91,2.58
15.00,0.00,123.44,17.12,-155.31,30.69,0.81,5.50,93.35,2.60
15.00,1.00,304.50,-5.75,-68.62,-2.06,-2.44,-0.88,93.35,2.60
15.00,2.00,283.19,-21.81,9.06,-2.62,-8.69,4.44,93.35,2.60
15.00,0.00,123.44,17.12,-155.88,30.50,-1.25,5.31,94.75,2.62
15.00,1.00,304.56,-5.75,-68.56,-1.88,-2.25,-0.94,94.75,2.62
15.00,2.00,283.12,-21.69,9.06,-1.69,-8.75,4.44,94.75,2.62
15.00,0.00,123.50,17.19,-156.50,31.25,0.00,6.06,96.19,2.64
15.00,1.00,304.56,-5.75,-68.56,-1.62,-1.25,-0.69,96.19,2.64
15.00,2.00,283.00,-21.50,9.06,-1.88,-8.38,3.75,96.19,2.64
15.00,0.00,123.50,17.25,-157.12,30.94,2.12,7.00,97.61,2.66
15.00,1.00,304.62,-5.75,-68.50,-1.88,-1.00,-0.56,97.61,2.66
15.00,2.00,282.94,-21.38,9.00,-1.81,-7.88,3.81,97.61,2.66
15.00,0.00,123.56,17.38,-157.75,28.75,3.25,6.62,98.96,2.68
15.00,1.00,304.62,-5.75,-68.50,-2.25,-0.62,-0.44,98.96,2.68
15.00,2.00,282.81,-21.25,9.00,-2.38,-6.88,4.62,98.96,2.68
15.00,0.00,123.56,17.44,-158.19,24.69,3.31,4.62,100.11,2.70
15.00,1.00,304.62,-5.75,-68.44,-2.19,-0.06,-0.56,100.11,2.70
15.00,2.00,282.69,-21.12,9.00,-1.75,-6.56,4.38,100.11,2.70
15.00,0.00,123.50,17.56,-158.56,23.12,2.69,3.56,101.15,2.72
15.00,1.00,304.62,-5.75,-68.44,-1.69,-0.06,-0.62,101.15,2.72
15.00,2.00,282.62,-21.00,8.94,-0.75,-6.44,4.25,101.15,2.72
15.00,0.00,123.50,17.62,-159.00,21.81,3.25,3.75,102.14,2.74
15.00,1.00,304.62,-5.75,-68.38,-0.75,0.31,0.06,102.14,2.74
15.00,2.00,282.50,-20.94,8.94,-0.94,-6.31,5.00,102.14,2.74
15.00,0.00,123.50,17.75,-159.44,20.75,4.31,3.81,103.05,2.76
15.00,1.00,304.56,-5.75,-68.38,-0.88,0.75,0.06,103.05,2.76
15.00,2.00,282.38,-20.81,8.88,-0.38,-6.44,6.19,103.05,2.76
15.00,0.00,123.50,17.88,-159.81,18.69,5.25,4.12,103.85,2.78
15.00,1.00,304.56,-5.69,-68.38,-0.31,0.88,-0.06,103.85,2.78
15.00,2.00,282.25,-20.69,8.81,0.31,-5.88,6.19,103.85,2.78
15.00,0.00,123.50,17.94,-160.12,15.19,4.69,3.25,104.47,2.80
15.00,1.00,304.56,-5.69,-68.38,0.00,2.06,0.12,104.47,2.80
15.00,2.00,282.12,-20.62,8.75,1.06,-5.38,5.81,104.47,2.80
15.00,0.00,123.50,18.00,-160.31,12.81,2.56,2.00,104.98,2.82
15.00,1.00,304.50,-5.75,-68.44,-0.19,2.25,-0.06,104.98,2.82
15.00,2.00,282.00,-20.50,8.69,1.00,-4.94,5.38,104.98,2.82
15.00,0.00,123.44,18.06,-160.50,11.56,1.75,1.56,105.43,2.84
15.00,1.00,304.50,-5.75,-68.44,0.44,2.06,0.50,105.43,2.84
15.00,2.00,281.88,-20.44,8.56,1.06,-5.75,6.06,105.43,2.84
15.00,0.00,123.44,18.12,-160.69,12.00,1.81,2.44,105.95,2.86
15.00,1.00,304.44,-5.75,-68.44,0.06,2.19,0.44,105.95,2.86
15.00,2.00,281.75,-20.31,8.50,0.06,-5.38,6.25,105.95,2.86
15.00,0.00,123.50,18.25,-160.88,10.88,4.69,3.12,106.44,2.88
15.00,1.00,304.44,-5.75,-68.44,-0.44,2.44,0.38,106.44,2.88
15.00,2.00,281.62,-20.25,8.50,-0.31,-4.06,5.25,106.44,2.88
15.00,0.00,123.50,18.38,-161.00,9.56,4.19,3.62,106.84,2.90
15.00,1.00,304.38,-5.75,-68.44,0.31,2.12,-0.25,106.84,2.90
15.00,2.00,281.56,-20.19,8.44,0.38,-3.50,4.38,106.84,2.90
15.00,0.00,123.50,18.50,-161.12,8.12,4.56,4.25,107.14,2.92
15.00,1.00,304.38,-5.75,-68.44,0.31,2.25,-0.12,107.14,2.92
15.00,2.00,281.44,-20.19,8.38,1.25,-3.06,3.62,107.14,2.92
15.00,0.00,123.56,18.62,-161.25,5.81,5.56,4.12,107.36,2.94
15.00,1.00,304.31,-5.81,-68.44,0.50,2.31,0.31,107.36,2.94
15.00,2.00,281.38,-20.12,8.38,0.56,-2.81,3.00,107.36,2.94
15.00,0.00,123.56,18.75,-161.25,3.12,5.25,3.38,107.47,2.96
15.00,1.00,304.31,-5.81,-68.44,1.00,2.00,0.06,107.47,2.96
15.00,2.00,281.38,-20.06,8.31,0.69,-2.69,2.81,107.47,2.96
15.00,0.00,123.56,18.81,-161.19,0.38,4.31,2.00,107.43,2.98
15.00,1.00,304.25,-5.81,-68.50,1.56,1.38,0.06,107.43,2.98
15.00,2.00,281.31,-20.06,8.31,1.38,-2.69,1.94,107.43,2.98
15.00,0.00,123.56,18.81,-161.06,-2.38,3.00,1.31,107.26,3.00
15.00,1.00,304.25,-5.81,-68.50,1.31,1.50,0.06,107.26,3.00
15.00,2.00,281.25,-20.00,8.25,1.56,-2.75,1.44,107.26,3.00
15.00,0.00,123.62,18.88,-160.94,-4.00,1.06,0.75,106.98,3.02
15.00,1.00,304.25,-5.81,-68.56,1.56,1.44,0.19,106.98,3.02
15.00,2.00,281.25,-19.94,8.19,2.38,-2.81,1.00,106.98,3.02
15.00,0.00,123.62,18.88,-160.88,-3.00,0.56,1.31,106.76,3.04
15.00,1.00,304.19,-5.81,-68.56,2.12,1.31,0.62,106.76,3.04
15.00,2.00,281.25,-19.88,8.12,1.94,-2.00,1.12,106.76,3.04
15.00,0.00,123.69,18.88,-160.88,-1.88,1.19,2.25,106.62,3.06
15.00,1.00,304.19,-5.81,-68.62,2.12,2.06,0.69,106.62,3.06
15.00,2.00,281.25,-19.88,8.12,1.44,-1.31,1.12,106.62,3.06
15.00,0.00,123.75,18.94,-160.81,-1.56,0.94,1.81,106.47,3.08
15.00,1.00,304.12,-5.81,-68.69,2.44,2.19,1.06,106.47,3.08
15.00,2.00,281.19,-19.88,8.06,1.88,-0.88,1.50,106.47,3.08
15.00,0.00,123.75,18.94,-160.81,-1.62,-0.56,0.75,106.24,3.10
15.00,1.00,304.12,-5.81,-68.75,3.44,2.00,0.50,106.24,3.10
15.00,2.00,281.19,-19.81,8.00,3.81,-1.06,1.12,106.24,3.10
15.00,0.00,123.75,18.88,-160.75,-0.69,-1.12,0.44,105.99,3.12
15.00,1.00,304.06,-5.81,-68.81,4.00,2.06,0.19,105.99,3.12
15.00,2.00,281.19,-19.81,7.88,4.94,-0.75,1.12,105.99,3.12
15.00,0.00,123.75,18.88,-160.81,1.12,-0.19,0.31,105.87,3.14
15.00,1.00,304.06,-5.81,-68.94,3.75,2.50,0.75,105.87,3.14
15.00,2.00,281.19,-19.81,7.81,3.94,-1.94,1.88,105.87,3.14
15.00,0.00,123.75,18.88,-160.88,3.38,0.75,0.12,105.89,3.16
15.00,1.00,304.00,-5.81,-69.00,3.56,1.88,1.19,105.89,3.16
15.00,2.00,281.12,-19.75,7.69,2.88,-3.31,3.06,105.89,3.16
15.00,0.00,123.75,18.94,-161.00,5.06,2.75,0.06,105.96,3.18
15.00,1.00,303.94,-5.81,-69.06,4.00,1.38,0.88,105.96,3.18
15.00,2.00,281.06,-19.69,7.62,3.38,-4.31,3.75,105.96,3.18
15.00,0.00,123.69,19.00,-161.25,8.06,4.69,0.62,106.14,3.20
15.00,1.00,303.94,-5.81,-69.12,4.88,1.06,0.88,106.14,3.20
15.00,2.00,281.00,-19.62,7.50,4.00,-4.94,4.31,106.14,3.20
15.00,0.00,123.69,19.19,-161.38,8.31,7.38,-0.25,106.31,3.22
15.00,1.00,303.88,-5.81,-69.25,5.31,1.69,1.25,106.31,3.22
15.00,2.00,280.88,-19.50,7.38,4.31,-5.50,5.44,106.31,3.22
15.00,0.00,123.62,19.25,-161.56,8.44,5.81,-1.31,106.46,3.24
15.00,1.00,303.88,-5.75,-69.38,5.31,1.19,1.44,106.46,3.24
15.00,2.00,280.75,-19.38,7.25,5.06,-7.00,5.62,106.46,3.24
15.00,0.00,123.50,19.38,-161.75,10.38,6.44,-1.12,106.70,3.26
15.00,1.00,303.81,-5.75,-69.50,5.75,1.31,1.12,106.70,3.26
15.00,2.00,280.69,-19.25,7.06,4.88,-7.31,6.12,106.70,3.26
15.00,0.00,123.44,19.50,-162.00,13.31,8.56,0.44,107.09,3.28
15.00,1.00,303.75,-5.75,-69.62,5.38,1.62,1.25,107.09,3.28
15.00,2.00,280.56,-19.12,6.94,4.25,-7.44,6.31,107.09,3.28
15.00,0.00,123.44,19.69,-162.25,14.12,8.38,1.38,107.57,3.30
15.00,1.00,303.75,-5.69,-69.69,4.69,1.56,1.50,107.57,3.30
15.00,2.00,280.44,-19.00,6.81,3.25,-6.88,6.31,107.57,3.30
15.00,0.00,123.38,19.81,-162.50,13.56,6.44,1.19,108.00,3.32
15.00,1.00,303.69,-5.69,-69.81,4.12,1.38,1.62,108.00,3.32
15.00,2.00,280.31,-18.88,6.69,3.56,-7.44,6.06,108.00,3.32
15.00,0.00,123.31,19.94,-162.81,14.75,5.75,1.38,108.51,3.34
15.00,1.00,303.62,-5.69,-69.88,3.88,1.50,1.50,108.51,3.34
15.00,2.00,280.19,-18.75,6.62,2.94,-7.81,5.62,108.51,3.34
15.00,0.00,123.31,20.06,-163.06,14.75,7.75,2.00,109.03,3.36
15.00,1.00,303.56,-5.62,-69.94,3.62,1.12,1.50,109.03,3.36
15.00,2.00,280.06,-18.62,6.50,2.88,-7.75,5.31,109.03,3.36
15.00,0.00,123.25,20.25,-163.31,13.56,8.19,1.69,109.43,3.38
15.00,1.00,303.56,-5.62,-70.06,4.44,0.62,1.69,109.43,3.38
15.00,2.00,280.00,-18.50,6.38,4.31,-7.75,5.25,109.43,3.38
15.00,0.00,123.19,20.31,-163.44,10.38,5.38,0.31,109.67,3.40
15.00,1.00,303.50,-5.56,-70.12,4.62,0.62,1.94,109.67,3.40
15.00,2.00,279.94,-18.38,6.25,4.88,-7.69,4.44,109.67,3.40
15.00,0.00,123.12,20.38,-163.56,7.81,2.44,-0.25,109.84,3.42
15.00,1.00,303.44,-5.56,-70.25,3.88,1.25,2.06,109.84,3.42
15.00,2.00,279.81,-18.25,6.12,3.94,-7.12,4.06,109.84,3.42
15.00,0.00,123.12,20.44,-163.69,6.88,2.62,0.38,110.00,3.44
15.00,1.00,303.38,-5.50,-70.31,3.38,1.06,2.12,110.00,3.44
15.00,2.00,279.75,-18.06,6.00,3.25,-6.88,3.88,110.00,3.44
15.00,0.00,123.12,20.50,-163.81,6.19,3.81,1.75,110.13,3.46
15.00,1.00,303.31,-5.44,-70.38,3.06,1.44,2.19,110.13,3.46
15.00,2.00,279.69,-17.94,5.94,3.06,-5.94,3.88,110.13,3.46
15.00,0.00,123.12,20.56,-163.94,5.81,5.19,2.62,110.25,3.48
15.00,1.00,303.25,-5.44,-70.50,2.94,2.56,2.19,110.25,3.48
15.00,2.00,279.62,-17.88,5.81,3.06,-4.94,3.56,110.25,3.48
15.00,0.00,123.12,20.69,-164.06,5.25,5.75,2.12,110.35,3.50
15.00,1.00,303.19,-5.38,-70.56,2.69,2.75,2.38,110.35,3.50
15.00,2.00,279.56,-17.75,5.69,3.00,-4.06,3.38,110.35,3.50
15.00,0.00,123.12,20.81,-164.12,2.50,5.50,0.56,110.33,3.52
15.00,1.00,303.06,-5.38,-70.62,2.38,2.94,2.38,110.33,3.52
15.00,2.00,279.50,-17.69,5.56,2.81,-4.06,3.50,110.33,3.52
15.00,0.00,123.06,20.88,-164.12,-0.31,3.50,-0.94,110.17,3.54
15.00,1.00,303.00,-5.31,-70.69,1.88,2.69,1.50,110.17,3.54
15.00,2.00,279.44,-17.62,5.50,3.50,-3.88,3.12,110.17,3.54
15.00,0.00,123.06,20.94,-164.06,-1.25,2.19,-1.94,109.94,3.56
15.00,1.00,302.94,-5.31,-70.81,2.06,2.94,1.31,109.94,3.56
15.00,2.00,279.38,-17.50,5.31,4.06,-3.94,3.31,109.94,3.56
15.00,0.00,123.00,20.94,-164.06,0.38,2.88,-1.50,109.84,3.58
15.00,1.00,302.81,-5.25,-70.88,1.50,3.75,1.38,109.84,3.58
15.00,2.00,279.31,-17.44,5.19,2.75,-3.88,4.06,109.84,3.58
15.00,0.00,123.00,21.00,-164.06,1.12,4.19,-1.31,109.82,3.60
15.00,1.00,302.75,-5.25,-70.94,0.69,3.50,1.69,109.82,3.60
15.00,2.00,279.19,-17.31,5.06,1.44,-3.69,5.00,109.82,3.60
15.00,0.00,122.94,21.06,-164.06,1.00,3.69,-2.56,109.81,3.62
15.00,1.00,302.62,-5.19,-70.94,0.50,3.94,1.56,109.81,3.62
15.00,2.00,279.06,-17.31,5.00,1.25,-3.12,5.81,109.81,3.62
15.00,0.00,122.88,21.12,-164.12,1.81,3.44,-3.50,109.83,3.64
15.00,1.00,302.56,-5.19,-71.00,1.00,4.25,1.62,109.83,3.64
15.00,2.00,278.94,-17.25,4.88,1.38,-3.06,6.69,109.83,3.64
15.00,0.00,122.75,21.12,-164.12,3.06,3.12,-4.12,109.88,3.66
15.00,1.00,302.44,-5.19,-71.06,1.38,4.25,1.50,109.88,3.66
15.00,2.00,278.81,-17.19,4.81,1.94,-3.38,7.12,109.88,3.66
15.00,0.00,122.69,21.12,-164.19,5.00,2.75,-3.62,110.01,3.68
15.00,1.00,302.38,-5.19,-71.06,1.69,4.31,1.75,110.01,3.68
15.00,2.00,278.69,-17.12,4.75,2.06,-3.06,7.31,110.01,3.68
15.00,0.00,122.56,21.19,-164.31,6.50,1.88,-2.56,110.20,3.70
15.00,1.00,302.25,-5.19,-71.12,1.81,4.00,1.62,110.20,3.70
15.00,2.00,278.62,-17.12,4.69,2.12,-3.06,6.75,110.20,3.70
15.00,0.00,122.56,21.19,-164.38,7.62,1.69,-2.19,110.43,3.72
15.00,1.00,302.19,-5.19,-71.19,2.50,3.19,1.25,110.43,3.72
15.00,2.00,278.44,-17.06,4.56,2.25,-3.44,6.62,110.43,3.72
15.00,0.00,122.44,21.25,-164.56,8.75,1.88,-1.62,110.73,3.74
15.00,1.00,302.12,-5.19,-71.25,2.25,2.44,0.56,110.73,3.74
15.00,2.00,278.31,-17.00,4.50,1.94,-2.75,5.88,110.73,3.74
15.00,0.00,122.38,21.25,-164.75,9.62,1.81,-1.25,111.04,3.76
15.00,1.00,302.12,-5.19,-71.25,2.06,1.94,-0.12,111.04,3.76
15.00,2.00,278.19,-16.94,4.44,2.44,-2.19,4.69,111.04,3.76
15.00,0.00,122.31,21.25,-164.81,10.12,2.38,-0.81,111.40,3.78
15.00,1.00,302.06,-5.19,-71.31,1.62,1.75,-0.69,111.40,3.78
15.00,2.00,278.12,-16.94,4.38,1.81,-2.00,3.81,111.40,3.78
15.00,0.00,122.25,21.31,-165.00,11.50,2.25,-0.12,111.86,3.80
15.00,1.00,302.06,-5.19,-71.31,1.50,1.12,-0.75,111.86,3.80
15.00,2.00,278.06,-16.88,4.38,0.94,-1.94,3.44,111.86,3.80
15.00,0.00,122.19,21.38,-165.19,11.44,3.00,0.88,112.28,3.82
15.00,1.00,302.06,-5.25,-71.38,1.88,0.62,-0.44,112.28,3.82
15.00,2.00,278.00,-16.88,4.31,1.69,-2.25,2.56,112.28,3.82
15.00,0.00,122.19,21.44,-165.31,9.81,2.62,0.69,112.60,3.84
15.00,1.00,302.12,-5.25,-71.38,2.19,-0.12,-0.56,112.60,3.84
15.00,2.00,278.00,-16.81,4.31,2.44,-3.00,1.75,112.60,3.84
15.00,0.00,122.12,21.44,-165.38,7.62,0.94,0.19,112.80,3.86
15.00,1.00,302.12,-5.25,-71.44,2.88,-1.56,-1.38,112.80,3.86
15.00,2.00,278.00,-16.81,4.31,3.12,-3.12,0.69,112.80,3.86
15.00,0.00,122.06,21.44,-165.44,6.25,-0.31,-0.50,112.90,3.88
15.00,1.00,302.19,-5.25,-71.50,3.12,-2.25,-1.31,112.90,3.88
15.00,2.00,278.00,-16.75,4.19,3.94,-3.38,-0.25,112.90,3.88
15.00,0.00,122.06,21.44,-165.50,5.75,-0.75,-0.25,113.01,3.90
15.00,1.00,302.25,-5.25,-71.50,2.50,-2.00,-1.19,113.01,3.90
15.00,2.00,278.00,-16.69,4.12,3.19,-3.62,-1.12,113.01,3.90
15.00,0.00,122.00,21.44,-165.62,6.06,-0.50,0.25,113.14,3.92
15.00,1.00,302.31,-5.31,-71.56,2.38,-2.44,-1.50,113.14,3.92
15.00,2.00,278.06,-16.62,4.06,3.12,-2.31,-1.81,113.14,3.92
15.00,0.00,122.00,21.44,-165.81,7.38,1.44,2.19,113.32,3.94
15.00,1.00,302.38,-5.25,-71.62,2.56,-2.31,-1.25,113.32,3.94
15.00,2.00,278.12,-16.56,4.06,3.19,-1.06,-1.88,113.32,3.94
15.00,0.00,122.06,21.50,-165.94,4.31,1.00,2.75,113.40,3.96
15.00,1.00,302.44,-5.25,-71.69,1.44,-1.94,-1.25,113.40,3.96
15.00,2.00,278.12,-16.56,4.00,2.38,-0.50,-1.75,113.40,3.96
15.00,0.00,122.06,21.50,-166.00,2.62,0.31,2.31,113.48,3.98
15.00,1.00,302.44,-5.25,-71.69,0.00,-1.75,-0.81,113.48,3.98
15.00,2.00,278.19,-16.56,3.94,0.81,0.00,-2.06,113.48,3.98
15.00,0.00,122.12,21.50,-166.06,-1.06,-0.19,0.50,113.40,4.00
15.00,1.00,302.50,-5.25,-71.75,0.19,-1.50,-1.12,113.40,4.00
15.00,2.00,278.19,-16.50,3.94,0.88,-0.06,-1.75,113.40,4.00
15.00,0.00,122.12,21.50,-166.06,-2.12,-0.19,0.25,113.25,4.02
15.00,1.00,302.50,-5.25,-71.75,0.50,-0.06,-0.88,113.25,4.02
15.00,2.00,278.25,-16.50,3.81,1.25,0.44,-1.56,113.25,4.02
15.00,0.00,122.12,21.50,-166.06,-3.50,-1.12,0.31,113.05,4.04
15.00,1.00,302.50,-5.25,-71.81,0.44,-0.19,-1.31,113.05,4.04
15.00,2.00,278.25,-16.44,3.75,1.12,1.00,-1.44,113.05,4.04
15.00,0.00,122.19,21.50,-166.06,-3.94,-1.12,0.62,112.82,4.06
15.00,1.00,302.50,-5.25,-71.88,-0.06,-0.31,-2.00,112.82,4.06
15.00,2.00,278.31,-16.44,3.62,1.25,2.06,-1.12,112.82,4.06
15.00,0.00,122.19,21.50,-166.06,-4.25,-2.00,0.94,112.65,4.08
15.00,1.00,302.50,-5.25,-71.94,-1.25,0.56,-1.56,112.65,4.08
15.00,2.00,278.31,-16.50,3.50,-0.25,2.19,-1.12,112.65,4.08
15.00,0.00,122.25,21.44,-166.00,-3.56,-2.06,1.19,112.59,4.10
15.00,1.00,302.50,-5.25,-72.00,-2.56,1.06,-1.38,112.59,4.10
15.00,2.00,278.31,-16.50,3.50,-2.19,2.38,-0.75,112.59,4.10
15.00,0.00,122.31,21.44,-166.00,-4.69,-1.12,0.62,112.54,4.12
15.00,1.00,302.50,-5.25,-71.94,-3.62,1.69,-1.12,112.54,4.12
15.00,2.00,278.31,-16.56,3.50,-3.44,3.19,-0.62,112.54,4.12
15.00,0.00,122.31,21.38,-165.88,-7.38,-2.00,-1.00,112.37,4.14
15.00,1.00,302.50,-5.25,-71.88,-3.75,1.06,-1.38,112.37,4.14
15.00,2.00,278.31,-16.62,3.56,-3.50,3.44,-0.69,112.37,4.14
15.00,0.00,122.31,21.31,-165.69,-9.44,-3.38,-2.62,112.07,4.16
15.00,1.00,302.50,-5.31,-71.88,-3.44,0.88,-1.50,112.07,4.16
15.00,2.00,278.31,-16.69,3.62,-2.50,3.88,-0.69,112.07,4.16
15.00,0.00,122.31,21.25,-165.50,-8.81,-3.12,-3.00,111.78,4.18
15.00,1.00,302.50,-5.31,-71.81,-3.94,1.25,-1.44,111.78,4.18
15.00,2.00,278.31,-16.69,3.62,-2.19,4.75,-1.06,111.78,4.18
15.00,0.00,122.25,21.19,-165.31,-7.62,-1.25,-2.44,111.60,4.20
15.00,1.00,302.44,-5.38,-71.69,-4.62,1.94,-1.38,111.60,4.20
15.00,2.00,278.31,-16.88,3.75,-3.56,5.25,-1.12,111.60,4.20
15.00,0.00,122.25,21.19,-165.12,-8.94,-1.06,-2.69,111.42,4.22
15.00,1.00,302.44,-5.38,-71.62,-5.38,1.69,-1.44,111.42,4.22
15.00,2.00,278.38,-16.94,3.81,-4.62,5.56,-1.38,111.42,4.22
15.00,0.00,122.25,21.12,-164.94,-10.50,-2.69,-3.62,111.15,4.24
15.00,1.00,302.44,-5.44,-71.50,-5.69,1.00,-1.69,111.15,4.24
15.00,2.00,278.38,-17.06,3.94,-4.50,5.19,-2.44,111.15,4.24
15.00,0.00,122.19,21.06,-164.69,-9.25,-2.56,-3.38,110.97,4.26
15.00,1.00,302.50,-5.50,-71.38,-6.12,1.00,-1.88,110.97,4.26
15.00,2.00,278.44,-17.12,4.06,-4.94,5.25,-2.12,110.97,4.26
15.00,0.00,122.19,21.00,-164.50,-8.62,-0.75,-3.19,110.84,4.28
15.00,1.00,302.50,-5.50,-71.25,-6.69,1.00,-1.94,110.84,4.28
15.00,2.00,278.44,-17.25,4.19,-5.69,4.62,-2.44,110.84,4.28
15.00,0.00,122.12,21.00,-164.31,-10.12,-1.06,-3.81,110.61,4.30
15.00,1.00,302.50,-5.56,-71.12,-6.25,0.50,-1.88,110.61,4.30
15.00,2.00,278.50,-17.31,4.31,-4.88,4.19,-2.62,110.61,4.30
15.00,0.00,122.12,20.88,-164.06,-12.12,-3.12,-4.62,110.28,4.32
15.00,1.00,302.56,-5.56,-71.00,-6.56,0.06,-1.81,110.28,4.32
15.00,2.00,278.56,-17.38,4.38,-4.44,3.69,-3.12,110.28,4.32
15.00,0.00,122.06,20.81,-163.81,-11.00,-3.88,-3.88,110.02,4.34
15.00,1.00,302.56,-5.62,-70.88,-6.56,0.69,-1.75,110.02,4.34
15.00,2.00,278.56,-17.44,4.50,-5.00,3.56,-2.88,110.02,4.34
15.00,0.00,122.06,20.75,-163.62,-7.31,-1.88,-1.81,109.97,4.36
15.00,1.00,302.56,-5.69,-70.75,-6.50,1.00,-1.75,109.97,4.36
15.00,2.00,278.62,-17.50,4.62,-6.12,3.00,-2.06,109.97,4.36
15.00,0.00,122.06,20.75,-163.56,-5.50,0.19,-0.44,109.90,4.38
15.00,1.00,302.56,-5.69,-70.69,-5.38,0.88,-1.62,109.90,4.38
15.00,2.00,278.62,-17.56,4.69,-4.00,3.50,-1.81,109.90,4.38
15.00,0.00,122.12,20.75,-163.44,-4.94,-0.94,0.38,109.79,4.40
15.00,1.00,302.62,-5.75,-70.56,-4.31,0.50,-1.69,109.79,4.40
15.00,2.00,278.69,-17.62,4.81,-2.38,2.88,-2.06,109.79,4.40
15.00,0.00,122.12,20.75,-163.44,-2.75,-0.62,0.75,109.82,4.42
15.00,1.00,302.62,-5.75,-70.50,-4.44,0.88,-1.56,109.82,4.42
15.00,2.00,278.69,-17.69,4.88,-3.44,2.06,-1.75,109.82,4.42
15.00,0.00,122.19,20.75,-163.38,-3.00,0.38,0.44,109.86,4.44
15.00,1.00,302.62,-5.75,-70.38,-4.75,0.31,-1.25,109.86,4.44
15.00,2.00,278.69,-17.69,4.94,-3.88,0.50,-1.00,109.86,4.44
15.00,0.00,122.19,20.75,-163.31,-3.56,-0.19,0.56,109.88,4.46
15.00,1.00,302.62,-5.81,-70.31,-4.38,0.31,-0.56,109.88,4.46
15.00,2.00,278.75,-17.69,5.06,-4.19,-0.31,-0.94,109.88,4.46
15.00,0.00,122.19,20.75,-163.31,-0.69,0.31,0.75,110.05,4.48
15.00,1.00,302.62,-5.81,-70.19,-4.19,0.69,-0.25,110.05,4.48
15.00,2.00,278.75,-17.69,5.12,-4.44,-0.06,-0.62,110.05,4.48
15.00,0.00,122.19,20.75,-163.38,2.00,2.50,1.06,110.26,4.50
15.00,1.00,302.62,-5.81,-70.12,-3.44,-0.25,-0.62,110.26,4.50
15.00,2.00,278.69,-17.69,5.25,-3.00,-0.44,-0.06,110.26,4.50
15.00,0.00,122.19,20.88,-163.44,1.94,3.69,1.00,110.42,4.52
15.00,1.00,302.62,-5.81,-70.06,-2.38,-0.88,-0.69,110.42,4.52
15.00,2.00,278.69,-17.69,5.31,-1.62,-1.06,0.12,110.42,4.52
15.00,0.00,122.19,20.94,-163.44,1.25,4.00,0.31,110.54,4.54
15.00,1.00,302.62,-5.81,-70.00,-1.88,-0.38,-0.62,110.54,4.54
15.00,2.00,278.69,-17.69,5.31,-1.50,-1.19,-0.12,110.54,4.54
15.00,0.00,122.19,21.00,-163.44,1.31,4.25,-0.25,110.71,4.56
15.00,1.00,302.62,-5.81,-70.00,-1.88,0.44,-0.25,110.71,4.56
15.00,2.00,278.69,-17.69,5.38,-2.69,-1.62,0.25,110.71,4.56
15.00,0.00,122.19,21.06,-163.44,1.88,4.50,-0.06,110.93,4.58
15.00,1.00,302.62,-5.81,-69.94,-1.75,0.38,0.00,110.93,4.58
15.00,2.00,278.69,-17.69,5.44,-3.19,-1.88,0.25,110.93,4.58
15.00,0.00,122.12,21.19,-163.50,2.25,5.50,0.38,111.13,4.60
15.00,1.00,302.62,-5.81,-69.94,-1.69,-0.56,0.19,111.13,4.60
15.00,2.00,278.69,-17.62,5.50,-2.38,-2.62,0.25,111.13,4.60
15.00,0.00,122.12,21.31,-163.50,2.31,6.56,0.75,111.33,4.62
15.00,1.00,302.62,-5.81,-69.88,-1.69,-0.19,-0.44,111.33,4.62
15.00,2.00,278.69,-17.56,5.56,-2.31,-2.56,-0.12,111.33,4.62
15.00,0.00,122.12,21.44,-163.56,1.75,6.00,0.69,111.49,4.64
15.00,1.00,302.62,-5.81,-69.81,-1.12,-0.50,-0.25,111.49,4.64
15.00,2.00,278.69,-17.56,5.62,-1.75,-1.88,-0.25,111.49,4.64
15.00,0.00,122.06,21.50,-163.56,2.38,5.00,0.81,111.62,4.66
15.00,1.00,302.62,-5.81,-69.81,-0.19,-0.62,0.19,111.62,4.66
15.00,2.00,278.69,-17.56,5.69,-0.62,-2.31,0.00,111.62,4.66
15.00,0.00,122.06,21.62,-163.62,2.62,5.00,1.19,111.75,4.68
15.00,1.00,302.62,-5.81,-69.75,0.56,-0.44,0.56,111.75,4.68
15.00,2.00,278.69,-17.50,5.69,-0.56,-2.25,-0.56,111.75,4.68
15.00,0.00,122.12,21.62,-163.69,3.06,2.12,2.44,111.87,4.70
15.00,1.00,302.62,-5.81,-69.75,0.62,-0.56,0.44,111.87,4.70
15.00,2.00,278.69,-17.50,5.69,0.50,-1.81,-0.69,111.87,4.70
15.00,0.00,122.12,21.69,-163.75,3.94,1.75,2.94,111.98,4.72
15.00,1.00,302.62,-5.81,-69.75,1.56,-1.06,0.06,111.98,4.72
15.00,2.00,278.69,-17.44,5.69,1.31,-1.94,-0.81,111.98,4.72
15.00,0.00,122.19,21.75,-163.81,3.44,1.44,3.19,112.05,4.74
15.00,1.00,302.69,-5.81,-69.81,1.69,-1.06,0.06,112.05,4.74
15.00,2.00,278.69,-17.44,5.69,1.75,-2.31,-1.00,112.05,4.74
15.00,0.00,122.25,21.81,-163.88,2.06,1.88,2.75,112.07,4.76
15.00,1.00,302.69,-5.81,-69.81,1.81,-0.69,0.50,112.07,4.76
15.00,2.00,278.75,-17.38,5.69,1.56,-2.44,-1.06,112.07,4.76
15.00,0.00,122.25,21.81,-163.94,1.56,1.44,2.94,112.09,4.78
15.00,1.00,302.69,-5.75,-69.81,1.69,-0.75,0.56,112.09,4.78
15.00,2.00,278.75,-17.31,5.62,1.25,-3.06,-0.38,112.09,4.78
15.00,0.00,122.31,21.88,-164.00,1.19,1.44,2.88,112.07,4.80
15.00,1.00,302.69,-5.75,-69.88,2.19,-0.62,0.94,112.07,4.80
15.00,2.00,278.75,-17.25,5.62,1.56,-2.81,-0.25,112.07,4.80
15.00,0.00,122.38,21.94,-164.06,1.44,1.81,3.38,112.04,4.82
15.00,1.00,302.69,-5.75,-69.94,2.38,-0.25,0.62,112.04,4.82
15.00,2.00,278.75,-17.19,5.56,2.19,-2.38,-0.38,112.04,4.82
15.00,0.00,122.44,22.00,-164.12,1.38,2.00,3.56,112.00,4.84
15.00,1.00,302.62,-5.69,-70.00,2.50,-0.12,0.50,112.00,4.84
15.00,2.00,278.75,-17.19,5.56,2.38,-2.19,-0.06,112.00,4.84
15.00,0.00,122.50,22.00,-164.19,1.00,1.44,3.06,111.96,4.86
15.00,1.00,302.62,-5.69,-70.06,2.56,0.06,0.50,111.96,4.86
15.00,2.00,278.75,-17.12,5.44,1.94,-1.88,0.88,111.96,4.86
15.00,0.00,122.56,22.06,-164.19,1.38,1.56,2.50,111.97,4.88
15.00,1.00,302.62,-5.69,-70.06,2.19,0.69,0.94,111.97,4.88
15.00,2.00,278.75,-17.06,5.44,1.12,-1.06,1.00,111.97,4.88
15.00,0.00,122.56,22.12,-164.31,1.94,1.62,2.00,112.03,4.90
15.00,1.00,302.56,-5.62,-70.12,1.94,1.31,0.94,112.03,4.90
15.00,2.00,278.69,-17.06,5.38,0.56,-1.12,1.69,112.03,4.90
15.00,0.00,122.56,22.12,-164.31,2.25,1.75,1.25,112.08,4.92
15.00,1.00,302.56,-5.62,-70.19,1.75,0.88,0.44,112.08,4.92
15.00,2.00,278.69,-17.00,5.38,1.00,-1.12,1.50,112.08,4.92
15.00,0.00,122.62,22.19,-164.38,1.81,2.06,1.12,112.10,4.94
15.00,1.00,302.56,-5.62,-70.25,1.56,0.62,0.38,112.10,4.94
15.00,2.00,278.69,-17.00,5.31,1.31,-0.94,1.31,112.10,4.94
15.00,0.00,122.56,22.25,-164.44,1.81,2.00,0.50,112.13,4.96
15.00,1.00,302.50,-5.62,-70.25,1.88,0.94,0.75,112.13,4.96
15.00,2.00,278.62,-17.00,5.25,1.12,-0.88,1.88,112.13,4.96
15.00,0.00,122.56,22.25,-164.44,1.25,1.56,-0.38,112.13,4.98
15.00,1.00,302.50,-5.62,-70.31,1.50,1.62,0.94,112.13,4.98
15.00,2.00,278.62,-17.00,5.25,1.38,-0.81,2.00,112.13,4.98
15.00,0.00,122.56,22.31,-164.50,0.81,1.12,-0.88,112.07,5.00
15.00,1.00,302.44,-5.56,-70.38,1.25,2.00,1.12,112.07,5.00
15.00,2.00,278.56,-16.94,5.19,2.00,0.25,1.81,112.07,5.00
15.00,0.00,122.56,22.31,-164.50,0.44,1.19,-1.31,112.03,5.02
15.00,1.00,302.38,-5.56,-70.38,1.44,2.44,0.69,112.03,5.02
15.00,2.00,278.50,-16.94,5.06,1.56,0.31,2.19,112.03,5.02
15.00,0.00,122.50,22.31,-164.50,-0.25,1.88,-1.12,111.99,5.04
15.00,1.00,302.31,-5.56,-70.44,0.50,2.44,0.50,111.99,5.04
15.00,2.00,278.50,-16.94,5.06,0.69,0.19,2.62,111.99,5.04
15.00,0.00,122.50,22.38,-164.44,-1.00,2.88,-1.38,112.01,5.06
15.00,1.00,302.25,-5.56,-70.44,-0.88,2.75,0.81,112.01,5.06
15.00,2.00,278.38,-16.94,5.00,-1.69,0.00,2.94,112.01,5.06
15.00,0.00,122.44,22.44,-164.38,-2.38,2.56,-1.69,111.99,5.08
15.00,1.00,302.19,-5.56,-70.44,-1.94,2.88,1.00,111.99,5.08
15.00,2.00,278.38,-16.94,5.00,-1.75,0.00,2.94,111.99,5.08
15.00,0.00,122.44,22.44,-164.31,-3.69,1.75,-2.19,111.85,5.10
15.00,1.00,302.12,-5.56,-70.44,-1.38,3.19,0.94,111.85,5.10
15.00,2.00,278.25,-17.00,5.00,-0.50,0.62,2.44,111.85,5.10
15.00,0.00,122.44,22.44,-164.25,-1.88,-0.38,-0.31,111.75,5.12
15.00,1.00,302.06,-5.56,-70.38,-1.06,3.19,0.38,111.75,5.12
15.00,2.00,278.25,-17.00,5.00,0.50,1.12,2.06,111.75,5.12
15.00,0.00,122.44,22.44,-164.19,-2.12,1.44,0.19,111.65,5.14
15.00,1.00,302.00,-5.56,-70.38,-0.88,3.31,0.44,111.65,5.14
15.00,2.00,278.19,-17.00,5.00,0.19,1.12,2.25,111.65,5.14
15.00,0.00,122.44,22.50,-164.19,-1.44,1.25,-0.06,111.66,5.16
15.00,1.00,301.94,-5.56,-70.38,-1.12,2.75,0.62,111.66,5.16
15.00,2.00,278.12,-17.06,5.00,-1.69,1.25,2.06,111.66,5.16
15.00,0.00,122.44,22.50,-164.19,-0.38,0.88,0.31,111.70,5.18
15.00,1.00,301.94,-5.62,-70.38,-1.31,2.44,0.25,111.70,5.18
15.00,2.00,278.12,-17.06,5.00,-1.31,0.81,1.06,111.70,5.18
15.00,0.00,122.44,22.50,-164.19,-0.19,-0.06,0.19,111.71,5.20
15.00,1.00,301.88,-5.62,-70.31,-1.94,2.12,-0.50,111.71,5.20
15.00,2.00,278.12,-17.06,5.06,-0.38,0.62,0.38,111.71,5.20
15.00,0.00,122.44,22.50,-164.19,0.19,-0.94,0.12,111.69,5.22
15.00,1.00,301.88,-5.62,-70.31,-1.50,1.50,-0.94,111.69,5.22
15.00,2.00,278.12,-17.12,5.06,0.50,0.62,0.00,111.69,5.22
15.00,0.00,122.44,22.50,-164.19,0.62,0.12,0.50,111.72,5.24
15.00,1.00,301.88,-5.69,-70.25,-1.81,1.44,-1.06,111.72,5.24
15.00,2.00,278.12,-17.12,5.06,0.06,0.06,0.50,111.72,5.24
15.00,0.00,122.44,22.50,-164.19,1.06,0.94,1.00,111.81,5.26
15.00,1.00,301.88,-5.69,-70.25,-1.62,1.44,-1.06,111.81,5.26
15.00,2.00,278.12,-17.12,5.06,-1.19,-0.38,0.62,111.81,5.26
15.00,0.00,122.44,22.50,-164.25,0.69,1.31,1.12,111.90,5.28
15.00,1.00,301.88,-5.69,-70.19,-1.75,1.19,-0.31,111.90,5.28
15.00,2.00,278.06,-17.12,5.06,-1.25,-0.25,1.06,111.90,5.28
15.00,0.00,122.44,22.56,-164.25,0.00,1.38,1.25,111.92,5.30
15.00,1.00,301.81,-5.75,-70.19,-2.00,1.25,-0.12,111.92,5.30
15.00,2.00,278.06,-17.12,5.06,-0.56,-0.50,0.81,111.92,5.30
15.00,0.00,122.50,22.56,-164.25,-0.31,1.38,1.31,111.91,5.32
15.00,1.00,301.81,-5.75,-70.12,-1.38,0.94,-0.19,111.91,5.32
15.00,2.00,278.06,-17.12,5.06,-0.12,-0.44,0.75,111.91,5.32
