Iteration,IMUNo,OrientationX (deg),OrientationY,OrientationZ,GyroX (20rad/sec),GyroY,GyroZ,Elbow_Pos (rad),Time (sec)
37.00,0.00,266.50,6.50,-106.94,-0.31,0.69,0.25,0.01,1.00
37.00,1.00,278.19,-4.56,-65.25,-0.06,0.00,0.12,0.01,1.00
37.00,2.00,277.56,-27.88,21.12,-0.56,-0.19,0.19,0.01,1.02
37.00,0.00,266.50,6.50,-106.94,-0.56,0.50,0.31,0.00,1.02
37.00,1.00,278.19,-4.56,-65.25,-0.25,0.19,0.44,0.00,1.02
37.00,2.00,277.56,-27.88,21.12,-0.44,-0.25,0.31,0.00,1.02
37.00,0.00,266.44,6.50,-106.94,-0.69,0.75,0.31,0.00,1.04
37.00,1.00,278.19,-4.56,-65.25,-0.12,0.25,0.44,0.00,1.04
37.00,2.00,277.56,-27.88,21.06,-0.56,-0.25,0.06,0.00,1.04
37.00,0.00,266.44,6.50,-106.94,-0.50,0.50,0.06,0.01,1.06
37.00,1.00,278.19,-4.56,-65.25,-0.31,-0.06,0.50,0.01,1.06
37.00,2.00,277.56,-27.88,21.06,-0.69,0.31,0.38,0.01,1.06
37.00,0.00,266.44,6.50,-106.94,-0.62,0.06,0.06,0.02,1.08
37.00,1.00,278.19,-4.56,-65.25,-0.19,0.19,0.25,0.02,1.08
37.00,2.00,277.56,-27.88,21.12,-0.88,0.31,0.44,0.02,1.08
37.00,0.00,266.44,6.50,-106.94,-0.38,-0.31,0.19,0.02,1.10
37.00,1.00,278.19,-4.56,-65.25,-0.06,0.00,0.12,0.02,1.10
37.00,2.00,277.56,-27.88,21.12,-0.38,-0.06,0.38,0.02,1.10
37.00,0.00,266.44,6.50,-107.00,-0.12,0.19,0.31,0.01,1.12
37.00,1.00,278.19,-4.56,-65.25,0.12,-0.06,0.19,0.01,1.12
37.00,2.00,277.56,-27.88,21.06,-0.06,-0.06,0.44,0.01,1.12
37.00,0.00,266.44,6.50,-107.00,0.25,0.25,0.62,0.02,1.14
37.00,1.00,278.19,-4.56,-65.25,0.31,0.00,0.44,0.02,1.14
37.00,2.00,277.56,-27.88,21.06,0.00,0.31,0.44,0.02,1.14
37.00,0.00,266.44,6.56,-107.00,0.50,-1.06,1.38,0.06,1.16
37.00,1.00,278.19,-4.56,-65.25,0.12,0.25,0.69,0.06,1.16
37.00,2.00,277.56,-27.88,21.06,-0.44,0.62,0.88,0.06,1.16
37.00,0.00,266.50,6.56,-107.06,0.94,-2.31,2.19,0.10,1.18
37.00,1.00,278.19,-4.56,-65.31,0.50,0.31,0.31,0.10,1.18
37.00,2.00,277.56,-27.94,21.06,-0.12,1.06,1.06,0.10,1.18
37.00,0.00,266.50,6.62,-107.06,1.31,-3.62,2.75,0.15,1.20
37.00,1.00,278.19,-4.56,-65.31,0.75,0.06,0.00,0.15,1.20
37.00,2.00,277.50,-27.94,21.06,0.25,0.75,0.81,0.15,1.20
37.00,0.00,266.50,6.62,-107.12,2.25,-3.56,3.56,0.18,1.22
37.00,1.00,278.19,-4.56,-65.31,0.94,0.25,-0.19,0.18,1.22
37.00,2.00,277.50,-27.94,21.00,1.50,0.19,0.31,0.18,1.22
37.00,0.00,266.44,6.75,-107.25,3.75,-2.44,5.06,0.25,1.24
37.00,1.00,278.19,-4.56,-65.31,0.69,0.19,-0.19,0.25,1.24
37.00,2.00,277.50,-27.94,20.94,1.81,-0.81,0.00,0.25,1.24
37.00,0.00,266.31,6.88,-107.44,6.31,-0.75,6.31,0.45,1.26
37.00,1.00,278.19,-4.56,-65.31,0.62,-0.94,-0.25,0.45,1.26
37.00,2.00,277.56,-27.94,20.94,1.31,-1.50,-0.12,0.45,1.26
37.00,0.00,266.06,7.06,-107.69,9.12,1.06,7.00,0.75,1.28
37.00,1.00,278.25,-4.56,-65.38,1.38,-1.69,0.12,0.75,1.28
37.00,2.00,277.56,-27.88,20.88,1.50,-1.56,0.31,0.75,1.28
37.00,0.00,265.69,7.31,-108.06,12.12,3.25,7.88,1.15,1.30
37.00,1.00,278.25,-4.56,-65.38,1.81,-1.88,0.25,1.15,1.30
37.00,2.00,277.50,-27.88,20.88,2.25,-1.56,0.69,1.15,1.30
37.00,0.00,265.25,7.56,-108.44,15.38,4.69,8.69,1.65,1.32
37.00,1.00,278.25,-4.56,-65.44,2.12,-2.00,0.44,1.65,1.32
37.00,2.00,277.50,-27.88,20.75,2.75,-1.88,1.69,1.65,1.32
37.00,0.00,264.81,7.75,-108.94,19.62,5.44,9.75,2.30,1.34
37.00,1.00,278.31,-4.50,-65.50,2.25,-2.06,0.12,2.30,1.34
37.00,2.00,277.50,-27.81,20.69,3.19,-2.38,2.00,2.30,1.34
37.00,0.00,264.31,8.06,-109.50,23.12,5.94,10.94,3.06,1.36
37.00,1.00,278.31,-4.50,-65.50,2.75,-2.31,0.06,3.06,1.36
37.00,2.00,277.44,-27.81,20.56,4.00,-2.69,2.31,3.06,1.36
37.00,0.00,263.81,8.31,-110.12,26.75,6.00,12.31,3.93,1.38
37.00,1.00,278.38,-4.50,-65.56,3.19,-1.94,0.12,3.93,1.38
37.00,2.00,277.38,-27.75,20.44,4.81,-2.94,2.88,3.93,1.38
37.00,0.00,263.25,8.56,-110.81,30.38,4.88,14.06,4.96,1.40
37.00,1.00,278.38,-4.50,-65.62,3.50,-1.81,0.44,4.96,1.40
37.00,2.00,277.31,-27.75,20.31,4.38,-3.44,3.69,4.96,1.40
37.00,0.00,262.81,8.81,-111.62,34.81,0.50,15.38,6.19,1.42
37.00,1.00,278.38,-4.44,-65.75,3.75,-1.00,0.88,6.19,1.42
37.00,2.00,277.25,-27.69,20.12,4.00,-3.94,4.31,6.19,1.42
37.00,0.00,262.31,9.12,-112.44,38.75,-2.25,17.81,7.57,1.44
37.00,1.00,278.38,-4.44,-65.81,4.12,-0.69,0.81,7.57,1.44
37.00,2.00,277.19,-27.62,20.00,4.00,-4.50,4.75,7.57,1.44
37.00,0.00,261.81,9.44,-113.19,38.50,0.31,19.38,8.92,1.46
37.00,1.00,278.44,-4.44,-65.88,5.12,-1.25,0.56,8.92,1.46
37.00,2.00,277.06,-27.56,19.88,4.50,-5.31,5.06,8.92,1.46
37.00,0.00,261.12,9.81,-114.00,39.56,3.19,19.75,10.28,1.48
37.00,1.00,278.44,-4.38,-66.00,5.31,-1.62,0.62,10.28,1.48
37.00,2.00,277.00,-27.50,19.69,5.31,-6.12,5.31,10.28,1.48
37.00,0.00,260.38,10.19,-114.81,42.00,3.69,20.44,11.70,1.50
37.00,1.00,278.44,-4.38,-66.12,5.19,-1.44,0.56,11.70,1.50
37.00,2.00,276.88,-27.44,19.44,6.12,-7.50,5.94,11.70,1.50
37.00,0.00,259.62,10.62,-115.62,43.56,4.25,22.25,13.21,1.52
37.00,1.00,278.44,-4.38,-66.19,5.75,-0.81,0.94,13.21,1.52
37.00,2.00,276.75,-27.38,19.25,5.56,-7.25,6.69,13.21,1.52
37.00,0.00,258.75,11.06,-116.56,46.75,3.06,25.44,14.90,1.54
37.00,1.00,278.44,-4.31,-66.31,5.94,-0.56,1.25,14.90,1.54
37.00,2.00,276.56,-27.25,19.00,4.12,-6.62,7.19,14.90,1.54
37.00,0.00,257.75,11.56,-117.56,50.38,2.00,29.19,16.78,1.56
37.00,1.00,278.44,-4.31,-66.44,4.62,0.00,1.38,16.78,1.56
37.00,2.00,276.44,-27.19,18.81,3.25,-6.88,7.19,16.78,1.56
37.00,0.00,256.75,12.12,-118.62,51.25,1.56,30.00,18.67,1.58
37.00,1.00,278.38,-4.31,-66.56,4.25,-0.06,0.88,18.67,1.58
37.00,2.00,276.31,-27.06,18.62,3.44,-7.94,7.31,18.67,1.58
37.00,0.00,255.69,12.62,-119.69,51.50,2.50,30.44,20.55,1.60
37.00,1.00,278.38,-4.31,-66.62,3.81,0.25,0.69,20.55,1.60
37.00,2.00,276.12,-27.00,18.44,4.25,-8.12,7.44,20.55,1.60
37.00,0.00,254.56,13.19,-120.69,51.12,4.31,30.44,22.42,1.62
37.00,1.00,278.38,-4.31,-66.69,3.81,0.94,1.00,22.42,1.62
37.00,2.00,276.00,-26.88,18.25,4.00,-8.75,7.44,22.42,1.62
37.00,0.00,253.38,13.69,-121.75,51.50,3.88,29.81,24.36,1.64
37.00,1.00,278.38,-4.25,-66.81,3.75,0.56,1.06,24.36,1.64
37.00,2.00,275.81,-26.75,18.12,2.75,-8.38,7.56,24.36,1.64
37.00,0.00,252.25,14.19,-122.81,51.44,2.81,28.50,26.31,1.66
37.00,1.00,278.31,-4.25,-66.88,3.25,0.31,0.81,26.31,1.66
37.00,2.00,275.69,-26.62,17.94,2.19,-8.06,7.44,26.31,1.66
37.00,0.00,251.12,14.62,-123.88,52.19,1.31,27.12,28.25,1.68
37.00,1.00,278.31,-4.25,-66.94,2.94,0.06,1.06,28.25,1.68
37.00,2.00,275.50,-26.56,17.81,3.44,-8.12,7.25,28.25,1.68
37.00,0.00,250.12,15.06,-124.94,49.88,0.69,24.50,30.11,1.70
37.00,1.00,278.31,-4.25,-67.00,2.06,0.50,0.88,30.11,1.70
37.00,2.00,275.38,-26.44,17.62,3.06,-8.38,6.75,30.11,1.70
37.00,0.00,249.12,15.38,-125.94,50.19,0.19,22.94,32.02,1.72
37.00,1.00,278.31,-4.25,-67.06,1.75,0.31,0.00,32.02,1.72
37.00,2.00,275.25,-26.31,17.50,2.06,-8.00,6.69,32.02,1.72
37.00,0.00,248.06,15.75,-127.06,53.81,0.06,23.31,34.07,1.74
37.00,1.00,278.31,-4.25,-67.06,1.75,0.06,-0.12,34.07,1.74
37.00,2.00,275.19,-26.25,17.44,2.12,-7.06,6.50,34.07,1.74
37.00,0.00,246.88,16.12,-128.25,57.00,-0.50,22.88,36.31,1.76
37.00,1.00,278.31,-4.25,-67.12,1.62,-0.38,-0.38,36.31,1.76
37.00,2.00,274.94,-26.12,17.25,0.62,-6.75,6.31,36.31,1.76
37.00,0.00,245.69,16.44,-129.44,57.06,-1.44,20.88,38.54,1.78
37.00,1.00,278.38,-4.25,-67.12,0.50,-1.38,-1.25,38.54,1.78
37.00,2.00,274.88,-26.06,17.19,1.00,-6.50,5.88,38.54,1.78
37.00,0.00,244.50,16.69,-130.56,56.62,-0.50,19.69,40.69,1.80
37.00,1.00,278.44,-4.25,-67.19,0.50,-1.44,-1.62,40.69,1.80
37.00,2.00,274.69,-25.94,17.00,2.31,-6.06,5.50,40.69,1.80
37.00,0.00,243.31,17.00,-131.75,55.50,0.75,17.75,42.78,1.82
37.00,1.00,278.44,-4.31,-67.19,0.12,-0.88,-2.06,42.78,1.82
37.00,2.00,274.56,-25.88,16.88,3.06,-5.75,5.69,42.78,1.82
37.00,0.00,242.25,17.19,-132.81,53.12,-0.06,14.62,44.74,1.84
37.00,1.00,278.50,-4.31,-67.19,-0.12,-0.94,-2.50,44.74,1.84
37.00,2.00,274.50,-25.81,16.81,3.75,-5.12,6.00,44.74,1.84
37.00,0.00,241.12,17.31,-133.88,52.12,-1.69,12.75,46.65,1.86
37.00,1.00,278.56,-4.38,-67.19,-1.06,0.12,-2.50,46.65,1.86
37.00,2.00,274.31,-25.75,16.50,4.00,-5.19,6.62,46.65,1.86
37.00,0.00,240.06,17.50,-134.94,51.94,-2.50,12.56,48.59,1.88
37.00,1.00,278.62,-4.44,-67.19,-1.00,0.56,-2.12,48.59,1.88
37.00,2.00,274.25,-25.69,16.44,2.94,-5.31,7.44,48.59,1.88
37.00,0.00,239.06,17.62,-136.00,50.62,-3.38,12.12,50.51,1.90
37.00,1.00,278.62,-4.44,-67.19,-0.06,0.75,-2.19,50.51,1.90
37.00,2.00,274.00,-25.62,16.12,2.31,-5.25,8.69,50.51,1.90
37.00,0.00,238.19,17.69,-136.94,47.69,-4.00,10.81,52.32,1.92
37.00,1.00,278.69,-4.50,-67.19,-0.75,1.19,-2.31,52.32,1.92
37.00,2.00,273.81,-25.56,16.00,2.12,-5.06,8.88,52.32,1.92
37.00,0.00,237.44,17.69,-137.75,44.44,-3.00,9.06,53.99,1.94
37.00,1.00,278.69,-4.56,-67.19,-0.81,1.94,-1.88,53.99,1.94
37.00,2.00,273.75,-25.56,15.88,2.50,-5.31,8.62,53.99,1.94
37.00,0.00,108.31,17.75,-138.12,41.38,-1.94,7.56,55.55,1.96
37.00,1.00,278.69,-4.62,-67.19,-1.31,2.44,-1.50,55.55,1.96
37.00,2.00,273.50,-25.44,15.69,1.94,-5.56,8.75,55.55,1.96
37.00,0.00,108.31,17.81,-138.94,40.81,-2.75,7.38,57.17,1.98
37.00,1.00,278.69,-4.62,-67.19,-1.19,2.50,-1.19,57.17,1.98
37.00,2.00,273.31,-25.38,15.50,0.06,-5.12,9.38,57.17,1.98
37.00,0.00,108.38,17.81,-139.81,40.25,-2.75,7.81,58.84,2.00
37.00,1.00,278.69,-4.69,-67.19,-1.06,2.00,-1.00,58.84,2.00
37.00,2.00,273.06,-25.38,15.44,-1.75,-4.56,9.38,58.84,2.00
37.00,0.00,108.38,17.88,-140.62,38.56,-2.56,7.00,60.40,2.02
37.00,1.00,278.69,-4.75,-67.12,-1.62,2.19,-0.69,60.40,2.02
37.00,2.00,272.88,-25.31,15.38,-0.81,-5.00,8.81,60.40,2.02
37.00,0.00,108.38,17.94,-141.31,36.31,-1.44,6.69,61.87,2.04
37.00,1.00,278.62,-4.75,-67.12,-1.88,2.75,-0.81,61.87,2.04
37.00,2.00,272.69,-25.25,15.31,-0.56,-4.94,7.56,61.87,2.04
37.00,0.00,108.38,18.00,-141.94,34.88,-0.94,6.12,63.31,2.06
37.00,1.00,278.62,-4.81,-67.06,-1.81,1.94,-1.00,63.31,2.06
37.00,2.00,272.56,-25.19,15.25,-1.56,-4.81,6.81,63.31,2.06
37.00,0.00,108.38,18.00,-142.62,35.44,-0.56,6.12,64.81,2.08
37.00,1.00,278.62,-4.81,-67.06,-2.00,1.12,-1.06,64.81,2.08
37.00,2.00,272.44,-25.19,15.19,-2.25,-4.19,6.81,64.81,2.08
37.00,0.00,108.38,18.12,-143.31,33.88,0.31,5.62,66.25,2.10
37.00,1.00,278.62,-4.88,-67.06,-1.44,0.94,-0.75,66.25,2.10
37.00,2.00,272.25,-25.12,15.19,-2.31,-4.12,6.44,66.25,2.10
37.00,0.00,108.38,18.19,-144.00,33.44,0.44,5.50,67.61,2.12
37.00,1.00,278.62,-4.88,-67.00,-1.19,0.75,-1.00,67.61,2.12
37.00,2.00,272.12,-25.06,15.12,-0.81,-5.50,6.19,67.61,2.12
37.00,0.00,108.38,18.19,-144.56,32.00,0.44,4.31,68.88,2.14
37.00,1.00,278.69,-4.94,-67.00,-1.56,0.56,-0.75,68.88,2.14
37.00,2.00,272.00,-24.94,15.06,0.06,-6.50,5.75,68.88,2.14
37.00,0.00,108.31,18.25,-145.19,33.56,0.81,5.31,70.21,2.16
37.00,1.00,278.69,-4.94,-66.94,-1.44,0.88,-0.81,70.21,2.16
37.00,2.00,271.88,-24.88,15.00,-0.12,-7.00,6.19,70.21,2.16
37.00,0.00,108.31,18.31,-145.88,34.06,1.12,6.00,71.59,2.18
37.00,1.00,278.69,-4.94,-66.94,-1.31,0.19,-0.94,71.59,2.18
37.00,2.00,271.69,-24.75,14.94,-0.69,-7.19,6.12,71.59,2.18
37.00,0.00,108.31,18.44,-146.62,34.81,1.62,7.00,73.05,2.20
37.00,1.00,278.69,-5.00,-66.94,-2.06,-0.19,-1.44,73.05,2.20
37.00,2.00,271.56,-24.62,14.88,-1.94,-7.56,5.69,73.05,2.20
37.00,0.00,108.31,18.50,-147.25,34.62,1.38,6.62,74.50,2.22
37.00,1.00,278.75,-5.00,-66.88,-1.94,-0.94,-2.38,74.50,2.22
37.00,2.00,271.44,-24.56,14.88,-1.88,-7.19,4.62,74.50,2.22
37.00,0.00,108.31,18.56,-148.00,36.31,0.44,5.12,75.98,2.24
37.00,1.00,278.81,-5.06,-66.88,-0.94,-1.75,-3.06,75.98,2.24
37.00,2.00,271.38,-24.44,14.88,-0.75,-7.44,3.50,75.98,2.24
37.00,0.00,108.25,18.62,-148.69,37.50,0.50,5.62,77.47,2.26
37.00,1.00,278.94,-5.12,-66.81,-1.38,-1.94,-3.69,77.47,2.26
37.00,2.00,271.25,-24.31,14.81,-0.25,-8.19,3.31,77.47,2.26
37.00,0.00,108.25,18.69,-149.50,40.81,0.69,6.81,79.14,2.28
37.00,1.00,279.06,-5.19,-66.81,-1.00,-2.62,-3.88,79.14,2.28
37.00,2.00,271.19,-24.12,14.81,-1.19,-7.69,2.81,79.14,2.28
37.00,0.00,108.25,18.75,-150.38,42.00,0.50,6.44,80.87,2.30
37.00,1.00,279.19,-5.25,-66.75,-1.38,-3.31,-4.00,80.87,2.30
37.00,2.00,271.12,-24.00,14.75,-1.44,-7.88,2.75,80.87,2.30
37.00,0.00,108.19,18.81,-151.12,41.44,0.56,5.44,82.53,2.32
37.00,1.00,279.25,-5.25,-66.75,-1.25,-3.19,-4.12,82.53,2.32
37.00,2.00,271.06,-23.88,14.75,-0.38,-8.00,2.69,82.53,2.32
37.00,0.00,108.19,18.88,-151.94,40.69,0.81,5.25,84.14,2.34
37.00,1.00,279.38,-5.31,-66.69,-1.44,-2.56,-3.62,84.14,2.34
37.00,2.00,271.00,-23.75,14.69,0.12,-8.31,2.38,84.14,2.34
37.00,0.00,108.12,18.88,-152.75,40.19,0.25,4.50,85.74,2.36
37.00,1.00,279.50,-5.38,-66.69,-1.94,-2.38,-3.25,85.74,2.36
37.00,2.00,270.88,-23.62,14.62,-0.25,-8.38,2.19,85.74,2.36
37.00,0.00,108.06,18.94,-153.56,41.38,1.12,5.00,87.41,2.38
37.00,1.00,279.50,-5.38,-66.62,-2.12,-2.75,-2.88,87.41,2.38
37.00,2.00,270.81,-23.44,14.56,-0.50,-8.62,2.94,87.41,2.38
37.00,0.00,108.00,19.06,-154.38,40.69,2.56,5.50,89.10,2.40
37.00,1.00,279.62,-5.44,-66.56,-2.50,-1.75,-2.88,89.10,2.40
37.00,2.00,270.75,-23.31,14.56,-1.81,-8.12,3.50,89.10,2.40
37.00,0.00,108.00,19.12,-155.19,38.75,2.56,5.56,90.73,2.42
37.00,1.00,279.69,-5.44,-66.56,-2.69,-1.38,-2.62,90.73,2.42
37.00,2.00,270.62,-23.19,14.50,-2.38,-7.75,3.69,90.73,2.42
37.00,0.00,107.88,19.19,-155.81,35.75,2.50,3.50,92.24,2.44
37.00,1.00,279.75,-5.50,-66.50,-2.94,-1.31,-2.06,92.24,2.44
37.00,2.00,270.50,-23.06,14.50,-2.31,-7.62,3.56,92.24,2.44
37.00,0.00,107.81,19.19,-156.31,33.00,1.38,1.38,93.59,2.46
37.00,1.00,279.81,-5.50,-66.44,-1.56,-1.62,-1.19,93.59,2.46
37.00,2.00,270.44,-22.88,14.50,-1.12,-8.25,4.06,93.59,2.46
37.00,0.00,107.69,19.12,-156.88,30.56,-0.81,0.06,94.82,2.48
37.00,1.00,279.81,-5.50,-66.44,-1.56,-0.69,-0.69,94.82,2.48
37.00,2.00,270.31,-22.75,14.38,-0.38,-8.06,4.88,94.82,2.48
37.00,0.00,107.56,19.12,-157.50,29.62,-0.06,0.12,96.06,2.50
37.00,1.00,279.81,-5.50,-66.38,-2.38,0.38,-0.25,96.06,2.50
37.00,2.00,270.19,-22.62,14.31,-1.44,-7.81,5.56,96.06,2.50
37.00,0.00,107.50,19.12,-158.00,28.12,1.06,-0.06,97.26,2.52
37.00,1.00,279.81,-5.50,-66.38,-1.88,0.25,-0.25,97.26,2.52
37.00,2.00,270.06,-22.50,14.31,-2.06,-7.12,5.44,97.26,2.52
37.00,0.00,107.38,19.12,-158.50,26.38,0.81,-0.94,98.39,2.54
37.00,1.00,279.81,-5.50,-66.31,-0.81,-0.12,-0.19,98.39,2.54
37.00,2.00,269.94,-22.44,14.31,-2.12,-6.12,5.38,98.39,2.54
37.00,0.00,107.25,19.12,-158.88,22.69,0.62,-2.25,99.34,2.56
37.00,1.00,279.81,-5.50,-66.31,-1.19,0.19,0.00,99.34,2.56
37.00,2.00,269.81,-22.31,14.25,-1.25,-6.56,5.19,99.34,2.56
37.00,0.00,107.12,19.12,-159.25,21.81,-0.69,-2.38,100.23,2.58
37.00,1.00,279.81,-5.56,-66.31,-1.31,0.25,-0.12,100.23,2.58
37.00,2.00,269.75,-22.25,14.25,-0.75,-5.81,5.00,100.23,2.58
37.00,0.00,107.00,19.12,-159.62,21.62,1.94,-0.81,101.13,2.60
37.00,1.00,279.81,-5.56,-66.25,-1.31,0.56,0.06,101.13,2.60
37.00,2.00,269.56,-22.12,14.19,-1.00,-5.19,5.06,101.13,2.60
37.00,0.00,106.94,19.12,-160.06,19.56,2.12,0.06,101.95,2.62
37.00,1.00,279.81,-5.56,-66.25,-1.69,0.94,0.12,101.95,2.62
37.00,2.00,269.44,-22.06,14.12,-0.94,-4.50,5.25,101.95,2.62
37.00,0.00,106.88,19.19,-160.38,16.75,1.75,-0.56,102.65,2.64
37.00,1.00,279.81,-5.56,-66.25,-0.81,0.88,0.81,102.65,2.64
37.00,2.00,269.31,-22.00,14.06,-1.06,-4.75,5.56,102.65,2.64
37.00,0.00,106.75,19.19,-160.56,12.56,1.62,-1.94,103.18,2.66
37.00,1.00,279.81,-5.56,-66.25,-0.56,0.94,0.88,103.18,2.66
37.00,2.00,269.19,-21.94,14.00,-0.56,-4.19,5.50,103.18,2.66
37.00,0.00,106.69,19.25,-160.69,8.56,1.62,-2.69,103.53,2.68
37.00,1.00,279.75,-5.56,-66.25,-1.00,1.25,1.00,103.53,2.68
37.00,2.00,269.06,-21.88,13.94,-0.38,-4.31,5.56,103.53,2.68
37.00,0.00,106.62,19.31,-160.69,5.88,3.31,-2.12,103.79,2.70
37.00,1.00,279.69,-5.56,-66.25,-0.81,2.31,1.38,103.79,2.70
37.00,2.00,268.94,-21.81,13.88,-0.56,-3.62,5.00,103.79,2.70
37.00,0.00,106.50,19.38,-160.75,3.75,4.94,-1.88,103.99,2.72
37.00,1.00,279.69,-5.56,-66.25,-1.00,2.12,1.69,103.99,2.72
37.00,2.00,268.88,-21.81,13.88,-1.50,-4.19,4.88,103.99,2.72
37.00,0.00,106.44,19.50,-160.69,-0.38,5.31,-2.19,104.06,2.74
37.00,1.00,279.62,-5.56,-66.25,-1.06,2.31,1.50,104.06,2.74
37.00,2.00,268.75,-21.75,13.81,-1.94,-3.62,4.19,104.06,2.74
37.00,0.00,106.38,19.56,-160.50,-3.81,4.44,-2.62,103.96,2.76
37.00,1.00,279.56,-5.56,-66.25,-0.69,2.19,1.50,103.96,2.76
37.00,2.00,268.62,-21.69,13.81,-1.50,-2.50,3.56,103.96,2.76
37.00,0.00,106.31,19.56,-160.38,-5.69,4.12,-2.50,103.80,2.78
37.00,1.00,279.50,-5.56,-66.25,-1.12,2.38,1.62,103.80,2.78
37.00,2.00,268.62,-21.69,13.81,-1.62,-1.50,3.19,103.80,2.78
37.00,0.00,106.31,19.62,-160.25,-6.12,4.06,-2.19,103.65,2.80
37.00,1.00,279.44,-5.50,-66.19,-2.06,2.81,1.62,103.65,2.80
37.00,2.00,268.50,-21.62,13.81,-2.38,-0.88,3.25,103.65,2.80
37.00,0.00,106.25,19.69,-160.06,-6.38,2.69,-2.38,103.54,2.82
37.00,1.00,279.38,-5.50,-66.19,-2.44,3.12,1.81,103.54,2.82
37.00,2.00,268.50,-21.62,13.81,-3.38,-0.31,2.81,103.54,2.82
37.00,0.00,106.25,19.69,-159.94,-6.12,0.56,-2.69,103.42,2.84
37.00,1.00,279.25,-5.50,-66.12,-2.12,2.44,1.19,103.42,2.84
37.00,2.00,268.38,-21.62,13.88,-3.25,0.94,2.50,103.42,2.84
37.00,0.00,106.19,19.62,-159.81,-5.50,0.00,-2.62,103.26,2.86
37.00,1.00,279.25,-5.50,-66.12,-1.81,2.44,0.62,103.26,2.86
37.00,2.00,268.31,-21.69,13.88,-1.44,0.19,2.38,103.26,2.86
37.00,0.00,106.19,19.62,-159.69,-4.56,0.50,-1.75,103.15,2.88
37.00,1.00,279.19,-5.50,-66.12,-1.94,2.56,0.69,103.15,2.88
37.00,2.00,268.31,-21.69,13.88,-1.69,0.25,2.12,103.15,2.88
37.00,0.00,106.19,19.62,-159.62,-3.81,1.38,-1.00,103.07,2.90
37.00,1.00,279.12,-5.56,-66.06,-2.19,2.00,0.19,103.07,2.90
37.00,2.00,268.25,-21.69,13.88,-2.00,-0.38,2.25,103.07,2.90
37.00,0.00,106.19,19.69,-159.56,-2.38,1.38,-0.56,103.05,2.92
37.00,1.00,279.12,-5.56,-66.06,-1.94,1.75,0.19,103.05,2.92
37.00,2.00,268.19,-21.69,13.94,-1.81,-1.75,2.19,103.05,2.92
37.00,0.00,106.19,19.69,-159.56,0.50,0.94,-0.12,103.14,2.94
37.00,1.00,279.06,-5.56,-66.00,-1.44,1.44,0.19,103.14,2.94
37.00,2.00,268.12,-21.62,13.94,-1.75,-2.69,2.75,103.14,2.94
37.00,0.00,106.19,19.75,-159.69,4.25,1.19,1.44,103.37,2.96
37.00,1.00,279.06,-5.56,-66.00,-1.31,1.19,-0.19,103.37,2.96
37.00,2.00,268.06,-21.56,13.94,-1.50,-3.25,2.81,103.37,2.96
37.00,0.00,106.19,19.81,-159.88,8.38,2.38,3.06,103.74,2.98
37.00,1.00,279.06,-5.56,-66.00,-1.25,0.38,-0.75,103.74,2.98
37.00,2.00,267.94,-21.50,13.94,-0.88,-4.44,2.94,103.74,2.98
37.00,0.00,106.25,19.88,-160.12,12.69,3.75,4.69,104.25,3.00
37.00,1.00,279.12,-5.62,-65.94,-0.50,-0.19,-0.81,104.25,3.00
37.00,2.00,267.88,-21.44,13.88,-0.25,-6.44,2.94,104.25,3.00
37.00,0.00,106.31,20.06,-160.50,16.31,6.25,6.31,104.91,3.02
37.00,1.00,279.12,-5.62,-65.94,-0.31,-0.88,-0.69,104.91,3.02
37.00,2.00,267.81,-21.25,13.88,-0.19,-7.56,2.06,104.91,3.02
37.00,0.00,106.38,20.25,-160.94,18.56,7.56,7.00,105.65,3.04
37.00,1.00,279.12,-5.62,-65.94,-0.25,-1.19,-0.56,105.65,3.04
37.00,2.00,267.75,-21.12,13.81,-0.19,-8.81,1.81,105.65,3.04
37.00,0.00,106.38,20.44,-161.38,21.06,8.38,7.94,106.54,3.06
37.00,1.00,279.19,-5.62,-65.94,-0.94,-2.00,-0.06,106.54,3.06
37.00,2.00,267.69,-20.94,13.81,-1.25,-9.25,2.50,106.54,3.06
37.00,0.00,106.44,20.69,-161.81,21.06,9.62,8.44,107.40,3.08
37.00,1.00,279.19,-5.62,-65.94,-0.44,-2.12,-0.56,107.40,3.08
37.00,2.00,267.69,-20.88,13.81,-0.81,-9.12,2.25,107.40,3.08
37.00,0.00,106.50,20.88,-162.25,18.12,8.31,7.75,108.08,3.10
37.00,1.00,279.25,-5.56,-65.94,0.19,-2.12,-0.31,108.08,3.10
37.00,2.00,267.62,-20.62,13.75,1.06,-9.06,1.31,108.08,3.10
37.00,0.00,106.56,21.06,-162.56,14.88,6.62,6.00,108.62,3.12
37.00,1.00,279.25,-5.56,-65.94,0.00,-1.62,0.19,108.62,3.12
37.00,2.00,267.56,-20.56,13.69,1.38,-8.69,1.62,108.62,3.12
37.00,0.00,106.56,21.19,-162.81,11.75,5.12,4.31,109.11,3.14
37.00,1.00,279.25,-5.56,-65.94,0.75,-1.38,0.75,109.11,3.14
37.00,2.00,267.50,-20.31,13.62,-0.56,-9.25,2.69,109.11,3.14
37.00,0.00,106.62,21.31,-163.06,9.94,4.56,3.56,109.54,3.16
37.00,1.00,279.25,-5.56,-65.94,-0.19,-0.44,0.81,109.54,3.16
37.00,2.00,267.38,-20.19,13.62,-0.94,-7.81,2.44,109.54,3.16
37.00,0.00,106.62,21.38,-163.19,6.88,5.00,2.56,109.87,3.18
37.00,1.00,279.25,-5.50,-65.94,-0.12,-0.19,1.00,109.87,3.18
37.00,2.00,267.38,-20.06,13.62,-1.50,-4.81,2.25,109.87,3.18
37.00,0.00,106.56,21.38,-163.06,2.06,3.00,0.81,109.96,3.20
37.00,1.00,279.25,-5.50,-65.94,0.06,0.25,0.81,109.96,3.20
37.00,2.00,267.31,-20.00,13.56,-0.06,-2.31,1.62,109.96,3.20
37.00,0.00,106.50,21.31,-162.88,-1.81,1.31,-1.44,109.93,3.22
37.00,1.00,279.19,-5.50,-65.94,-0.44,1.75,1.00,109.93,3.22
37.00,2.00,267.31,-20.00,13.56,-1.12,-0.12,1.06,109.93,3.22
37.00,0.00,106.44,21.19,-162.75,-3.44,-0.38,-3.19,109.90,3.24
37.00,1.00,279.12,-5.50,-65.94,-1.44,2.88,1.00,109.90,3.24
37.00,2.00,267.25,-20.00,13.62,-2.75,1.06,1.56,109.90,3.24
37.00,0.00,106.38,21.12,-162.62,-4.75,-1.75,-4.00,109.79,3.26
37.00,1.00,279.06,-5.50,-65.94,-1.69,2.69,0.56,109.79,3.26
37.00,2.00,267.19,-20.06,13.62,-1.94,1.88,2.00,109.79,3.26
37.00,0.00,106.31,21.06,-162.50,-5.81,-1.75,-4.88,109.61,3.28
37.00,1.00,279.06,-5.56,-65.88,-1.06,2.81,-0.12,109.61,3.28
37.00,2.00,267.19,-20.06,13.62,-1.38,1.75,2.00,109.61,3.28
37.00,0.00,106.25,21.00,-162.31,-6.44,-1.94,-5.94,109.39,3.30
37.00,1.00,279.00,-5.56,-65.88,-1.12,3.19,-0.31,109.39,3.30
37.00,2.00,267.12,-20.12,13.62,-0.81,2.31,1.94,109.39,3.30
37.00,0.00,106.12,20.94,-162.12,-6.00,-1.44,-6.81,109.17,3.32
37.00,1.00,279.00,-5.62,-65.88,-1.00,2.88,-0.06,109.17,3.32
37.00,2.00,267.12,-20.12,13.62,-0.44,1.62,2.81,109.17,3.32
37.00,0.00,106.06,20.88,-162.00,-4.50,-0.94,-6.88,109.00,3.34
37.00,1.00,278.94,-5.62,-65.88,-0.56,2.62,-0.06,109.00,3.34
37.00,2.00,267.00,-20.19,13.56,-0.12,1.06,3.38,109.00,3.34
37.00,0.00,105.94,20.88,-161.94,-2.38,0.06,-6.50,108.94,3.36
37.00,1.00,278.88,-5.69,-65.88,-1.06,3.81,0.12,108.94,3.36
37.00,2.00,266.94,-20.25,13.56,-1.06,0.94,3.81,108.94,3.36
37.00,0.00,105.81,20.88,-162.00,0.38,1.56,-6.12,109.01,3.38
37.00,1.00,278.88,-5.69,-65.88,-1.06,3.69,0.62,109.01,3.38
37.00,2.00,266.88,-20.25,13.56,-1.38,0.56,4.00,109.01,3.38
37.00,0.00,105.69,20.88,-162.00,1.75,2.81,-5.69,109.13,3.40
37.00,1.00,278.81,-5.69,-65.88,-0.94,3.25,0.94,109.13,3.40
37.00,2.00,266.75,-20.25,13.50,-1.25,-0.69,5.38,109.13,3.40
37.00,0.00,105.56,20.94,-162.00,1.94,4.06,-5.50,109.27,3.42
37.00,1.00,278.75,-5.69,-65.88,-0.62,3.25,1.38,109.27,3.42
37.00,2.00,266.69,-20.25,13.50,-1.44,-0.94,5.31,109.27,3.42
37.00,0.00,105.50,20.94,-161.94,1.00,4.50,-5.75,109.36,3.44
37.00,1.00,278.62,-5.69,-65.88,-0.69,3.62,1.69,109.36,3.44
37.00,2.00,266.56,-20.25,13.44,-1.44,-0.69,5.38,109.36,3.44
37.00,0.00,105.31,21.00,-161.88,-0.44,4.06,-6.00,109.41,3.46
37.00,1.00,278.56,-5.69,-65.88,-0.56,4.00,2.31,109.41,3.46
37.00,2.00,266.38,-20.31,13.44,-1.50,-0.25,5.00,109.41,3.46
37.00,0.00,105.25,21.00,-161.88,-1.81,3.88,-5.62,109.41,3.48
37.00,1.00,278.44,-5.69,-65.88,-1.25,4.19,2.50,109.41,3.48
37.00,2.00,266.38,-20.31,13.44,-1.94,0.00,4.75,109.41,3.48
37.00,0.00,105.12,21.06,-161.75,-3.69,2.69,-5.12,109.36,3.50
37.00,1.00,278.38,-5.69,-65.88,-2.06,3.81,2.50,109.36,3.50
37.00,2.00,266.19,-20.31,13.44,-2.50,1.50,3.75,109.36,3.50
37.00,0.00,105.06,21.06,-161.62,-4.94,1.81,-4.75,109.27,3.52
37.00,1.00,278.25,-5.69,-65.88,-2.19,4.06,2.38,109.27,3.52
37.00,2.00,266.19,-20.38,13.44,-2.50,2.00,2.69,109.27,3.52
37.00,0.00,105.00,21.06,-161.44,-6.56,0.69,-4.31,109.09,3.54
37.00,1.00,278.19,-5.69,-65.88,-2.56,4.56,2.38,109.09,3.54
37.00,2.00,266.12,-20.38,13.44,-2.19,2.69,2.19,109.09,3.54
37.00,0.00,104.94,21.06,-161.25,-8.75,-0.25,-4.56,108.85,3.56
37.00,1.00,278.06,-5.69,-65.81,-3.12,4.25,2.38,108.85,3.56
37.00,2.00,266.06,-20.50,13.50,-2.75,4.00,1.12,108.85,3.56
37.00,0.00,104.88,21.00,-161.06,-11.00,-1.06,-4.75,108.54,3.58
37.00,1.00,278.00,-5.69,-65.75,-3.69,4.00,1.81,108.54,3.58
37.00,2.00,266.06,-20.50,13.50,-3.12,4.00,1.19,108.54,3.58
37.00,0.00,104.81,20.94,-160.75,-12.06,-2.00,-4.38,108.22,3.60
37.00,1.00,277.88,-5.69,-65.69,-4.62,3.88,1.06,108.22,3.60
37.00,2.00,266.06,-20.62,13.62,-3.88,4.88,0.25,108.22,3.60
37.00,0.00,104.75,20.88,-160.50,-12.19,-2.62,-4.06,107.86,3.62
37.00,1.00,277.81,-5.75,-65.62,-4.25,3.25,0.00,107.86,3.62
37.00,2.00,266.06,-20.69,13.62,-3.25,5.69,-0.75,107.86,3.62
37.00,0.00,104.75,20.81,-160.25,-11.31,-3.00,-3.44,107.52,3.64
37.00,1.00,277.81,-5.75,-65.56,-4.25,2.44,-0.44,107.52,3.64
37.00,2.00,266.06,-20.75,13.69,-2.81,6.06,-1.12,107.52,3.64
37.00,0.00,104.75,20.75,-160.06,-9.88,-2.19,-2.06,107.22,3.66
37.00,1.00,277.75,-5.81,-65.50,-4.06,2.12,-0.56,107.22,3.66
37.00,2.00,266.12,-20.94,13.81,-2.31,5.44,-1.00,107.22,3.66
37.00,0.00,104.75,20.69,-159.88,-10.69,-2.50,-2.38,106.89,3.68
37.00,1.00,277.75,-5.81,-65.44,-4.19,1.06,-0.75,106.89,3.68
37.00,2.00,266.12,-21.00,13.81,-2.25,4.19,-1.31,106.89,3.68
37.00,0.00,104.75,20.62,-159.62,-13.06,-4.38,-4.19,106.44,3.70
37.00,1.00,277.75,-5.88,-65.38,-4.25,0.69,-1.12,106.44,3.70
37.00,2.00,266.19,-21.06,13.94,-1.69,3.38,-1.69,106.44,3.70
37.00,0.00,104.75,20.50,-159.38,-10.88,-5.31,-4.56,106.06,3.72
37.00,1.00,277.81,-5.88,-65.31,-3.62,0.50,-1.19,106.06,3.72
37.00,2.00,266.19,-21.12,13.94,-1.38,2.81,-1.25,106.06,3.72
37.00,0.00,104.69,20.38,-159.19,-8.19,-4.12,-3.81,105.86,3.74
37.00,1.00,277.81,-5.88,-65.25,-3.69,0.94,-0.56,105.86,3.74
37.00,2.00,266.19,-21.12,13.94,-3.06,3.06,-0.44,105.86,3.74
37.00,0.00,104.69,20.31,-159.12,0.19,0.44,0.12,106.00,3.76
37.00,1.00,277.75,-5.88,-65.19,-4.44,1.12,-0.62,106.00,3.76
37.00,2.00,266.19,-21.19,14.00,-3.56,2.75,0.75,106.00,3.76
37.00,0.00,104.69,20.31,-159.12,-0.31,1.94,0.25,106.15,3.78
37.00,1.00,277.75,-5.94,-65.12,-4.44,0.94,-0.50,106.15,3.78
37.00,2.00,266.19,-21.25,14.06,-3.88,2.50,1.19,106.15,3.78
37.00,0.00,104.69,20.38,-159.12,1.19,1.31,0.88,106.32,3.80
37.00,1.00,277.75,-5.94,-65.00,-4.00,0.88,-0.69,106.32,3.80
37.00,2.00,266.12,-21.25,14.12,-3.25,0.38,1.50,106.32,3.80
37.00,0.00,104.69,20.44,-159.25,4.62,2.25,2.12,106.68,3.82
37.00,1.00,277.75,-5.94,-64.94,-4.44,1.44,-0.25,106.68,3.82
37.00,2.00,266.06,-21.25,14.19,-4.50,-0.12,1.81,106.68,3.82
37.00,0.00,104.75,20.56,-159.44,7.38,3.56,3.38,107.15,3.84
37.00,1.00,277.75,-5.94,-64.88,-4.12,0.56,-0.06,107.15,3.84
37.00,2.00,266.00,-21.25,14.19,-4.44,-0.69,2.12,107.15,3.84
37.00,0.00,104.75,20.62,-159.56,6.56,4.69,2.94,107.53,3.86
37.00,1.00,277.75,-5.94,-64.81,-3.25,0.25,-0.38,107.53,3.86
37.00,2.00,265.94,-21.25,14.31,-3.00,-2.44,1.81,107.53,3.86
37.00,0.00,104.75,20.75,-159.69,5.81,4.56,2.81,107.86,3.88
37.00,1.00,277.75,-5.94,-64.75,-2.38,-0.25,-0.62,107.86,3.88
37.00,2.00,265.94,-21.19,14.31,-2.31,-2.81,1.62,107.86,3.88
