Iteration,IMUNo,OrientationX (deg),OrientationY,OrientationZ,GyroX (20rad/sec),GyroY,GyroZ,Elbow_Pos (rad),Time (sec)
42.00,0.00,268.88,6.75,-106.31,1.81,0.38,0.81,0.05,1.00
42.00,1.00,277.88,-5.38,-65.44,0.38,-0.25,-0.25,0.05,1.02
42.00,2.00,264.69,-28.62,20.00,0.56,-0.25,0.25,0.05,1.02
42.00,0.00,268.88,6.75,-106.31,1.94,0.44,0.75,0.12,1.02
42.00,1.00,277.88,-5.38,-65.44,0.19,-0.19,-0.06,0.12,1.02
42.00,2.00,264.69,-28.62,20.00,0.06,0.06,0.56,0.12,1.04
42.00,0.00,268.88,6.75,-106.38,2.06,0.50,0.75,0.21,1.04
42.00,1.00,277.88,-5.38,-65.44,0.06,-0.38,0.00,0.21,1.04
42.00,2.00,264.69,-28.62,20.00,-0.19,-0.25,0.44,0.21,1.04
42.00,0.00,268.81,6.81,-106.44,2.50,0.62,0.88,0.32,1.06
42.00,1.00,277.88,-5.38,-65.44,0.31,-0.19,0.00,0.32,1.06
42.00,2.00,264.69,-28.62,20.00,-0.12,0.31,0.69,0.32,1.06
42.00,0.00,268.81,6.81,-106.50,3.62,0.31,1.12,0.49,1.08
42.00,1.00,277.88,-5.38,-65.44,0.38,-0.12,0.31,0.49,1.08
42.00,2.00,264.69,-28.69,20.00,-0.62,0.62,0.81,0.49,1.08
42.00,0.00,268.75,6.81,-106.62,4.06,-0.12,1.25,0.70,1.10
42.00,1.00,277.88,-5.38,-65.44,0.06,-0.12,0.56,0.70,1.10
42.00,2.00,264.69,-28.69,20.00,-1.12,1.06,0.88,0.70,1.10
42.00,0.00,268.69,6.88,-106.75,6.19,0.00,2.38,1.01,1.12
42.00,1.00,277.88,-5.38,-65.44,0.31,-0.38,0.19,1.01,1.12
42.00,2.00,264.62,-28.75,20.06,-1.62,1.94,0.94,1.01,1.12
42.00,0.00,268.56,6.94,-106.94,8.25,0.38,3.00,1.37,1.14
42.00,1.00,277.88,-5.38,-65.44,0.81,-0.62,-0.06,1.37,1.14
42.00,2.00,264.62,-28.75,20.06,-0.69,2.44,0.75,1.37,1.14
42.00,0.00,268.44,7.00,-107.12,9.56,0.31,3.62,1.72,1.16
42.00,1.00,277.88,-5.38,-65.50,0.94,-0.62,-0.38,1.72,1.16
42.00,2.00,264.62,-28.81,20.06,0.62,2.44,0.94,1.72,1.16
42.00,0.00,268.31,7.12,-107.44,12.62,1.38,4.75,2.16,1.18
42.00,1.00,277.94,-5.38,-65.50,0.88,-0.69,-0.69,2.16,1.18
42.00,2.00,264.62,-28.88,20.06,1.75,1.81,1.06,2.16,1.18
42.00,0.00,268.06,7.25,-107.75,13.44,1.88,4.81,2.60,1.20
42.00,1.00,277.94,-5.38,-65.50,1.44,-0.31,-0.88,2.60,1.20
42.00,2.00,264.62,-28.88,20.00,2.44,0.81,1.62,2.60,1.20
42.00,0.00,267.88,7.31,-108.06,14.81,2.38,4.75,3.08,1.22
42.00,1.00,277.94,-5.38,-65.56,1.88,-0.25,-0.44,3.08,1.22
42.00,2.00,264.56,-28.94,19.88,2.75,-0.06,2.25,3.08,1.22
42.00,0.00,267.62,7.44,-108.44,16.06,2.75,4.50,3.59,1.24
42.00,1.00,277.94,-5.38,-65.62,2.06,0.12,-0.06,3.59,1.24
42.00,2.00,264.56,-28.94,19.75,3.25,-0.81,2.81,3.59,1.24
42.00,0.00,267.44,7.56,-108.81,18.00,1.31,4.81,4.16,1.26
42.00,1.00,277.94,-5.38,-65.69,2.06,1.00,0.38,4.16,1.26
42.00,2.00,264.50,-28.88,19.62,3.81,-1.94,3.25,4.16,1.26
42.00,0.00,267.25,7.69,-109.25,19.50,0.31,5.81,4.84,1.28
42.00,1.00,277.94,-5.38,-65.69,1.56,0.50,0.69,4.84,1.28
42.00,2.00,264.44,-28.88,19.50,2.50,-2.25,3.44,4.84,1.28
42.00,0.00,266.94,7.81,-109.62,20.25,2.19,7.38,5.54,1.30
42.00,1.00,277.94,-5.38,-65.75,1.88,0.25,0.62,5.54,1.30
42.00,2.00,264.38,-28.88,19.44,2.69,-3.31,3.56,5.54,1.30
42.00,0.00,266.56,8.00,-110.06,21.12,4.81,8.19,6.23,1.32
42.00,1.00,277.94,-5.38,-65.81,2.12,0.56,0.62,6.23,1.32
42.00,2.00,264.25,-28.81,19.31,4.06,-4.19,4.00,6.23,1.32
42.00,0.00,266.12,8.19,-110.50,20.56,6.56,7.62,6.87,1.34
42.00,1.00,277.88,-5.38,-65.88,2.31,0.81,0.94,6.87,1.34
42.00,2.00,264.19,-28.75,19.12,4.50,-4.88,4.69,6.87,1.34
42.00,0.00,265.69,8.38,-110.88,22.75,6.62,7.94,7.65,1.36
42.00,1.00,277.88,-5.31,-65.94,2.69,2.12,1.25,7.65,1.36
42.00,2.00,264.06,-28.69,18.94,3.25,-5.88,5.06,7.65,1.36
42.00,0.00,265.25,8.62,-111.44,30.31,2.56,13.00,8.78,1.38
42.00,1.00,277.81,-5.31,-66.00,1.69,1.75,1.25,8.78,1.38
42.00,2.00,264.00,-28.56,18.81,2.06,-5.06,5.38,8.78,1.38
42.00,0.00,264.81,8.88,-112.06,32.56,0.19,14.75,9.94,1.40
42.00,1.00,277.75,-5.31,-66.06,2.81,1.50,1.19,9.94,1.40
42.00,2.00,263.88,-28.56,18.69,3.50,-5.25,5.31,9.94,1.40
42.00,0.00,264.38,9.12,-112.75,35.06,-1.44,15.50,11.15,1.42
42.00,1.00,277.75,-5.31,-66.12,4.25,0.69,0.94,11.15,1.42
42.00,2.00,263.75,-28.44,18.56,4.81,-5.75,5.06,11.15,1.42
42.00,0.00,263.88,9.44,-113.44,34.62,2.38,16.94,12.31,1.44
42.00,1.00,277.75,-5.31,-66.19,5.25,0.06,0.56,12.31,1.44
42.00,2.00,263.69,-28.38,18.38,5.56,-6.50,5.38,12.31,1.44
42.00,0.00,263.19,9.81,-114.19,36.31,4.50,17.50,13.58,1.46
42.00,1.00,277.75,-5.31,-66.31,5.31,-0.25,0.69,13.58,1.46
42.00,2.00,263.56,-28.31,18.19,4.62,-7.00,5.50,13.58,1.46
42.00,0.00,262.50,10.12,-114.94,38.62,3.12,18.00,14.92,1.48
42.00,1.00,277.75,-5.31,-66.44,5.19,-0.06,0.50,14.92,1.48
42.00,2.00,263.44,-28.19,18.00,5.25,-7.69,5.81,14.92,1.48
42.00,0.00,261.88,10.50,-115.69,40.19,2.31,18.69,16.31,1.50
42.00,1.00,277.75,-5.31,-66.56,5.56,0.06,0.56,16.31,1.50
42.00,2.00,263.38,-28.06,17.81,5.25,-6.19,5.94,16.31,1.50
42.00,0.00,261.12,10.81,-116.50,40.25,2.56,19.12,17.79,1.52
42.00,1.00,277.75,-5.25,-66.69,5.31,0.69,1.56,17.79,1.52
42.00,2.00,263.25,-28.00,17.62,3.44,-5.62,6.00,17.79,1.52
42.00,0.00,260.38,11.19,-117.38,41.50,2.00,19.94,19.32,1.54
42.00,1.00,277.69,-5.25,-66.75,4.38,0.94,1.88,19.32,1.54
42.00,2.00,263.12,-27.94,17.50,3.12,-6.12,6.31,19.32,1.54
42.00,0.00,259.56,11.62,-118.25,42.88,3.19,21.50,20.90,1.56
42.00,1.00,277.62,-5.25,-66.88,4.19,1.12,1.50,20.90,1.56
42.00,2.00,263.00,-27.88,17.31,3.44,-7.00,6.81,20.90,1.56
42.00,0.00,258.69,12.00,-119.12,43.25,3.81,22.25,22.47,1.58
42.00,1.00,277.62,-5.19,-66.94,3.56,0.94,1.38,22.47,1.58
42.00,2.00,262.88,-27.75,17.12,4.00,-7.50,6.69,22.47,1.58
42.00,0.00,257.81,12.44,-120.00,43.12,3.75,22.88,24.06,1.60
42.00,1.00,277.56,-5.19,-67.00,3.12,1.31,0.94,24.06,1.60
42.00,2.00,262.69,-27.62,16.94,3.31,-7.12,6.56,24.06,1.60
42.00,0.00,256.88,12.88,-120.88,44.56,3.94,23.94,25.71,1.62
42.00,1.00,277.56,-5.19,-67.12,3.38,0.81,0.75,25.71,1.62
42.00,2.00,262.56,-27.56,16.81,3.25,-6.81,6.75,25.71,1.62
42.00,0.00,255.81,13.31,-121.81,46.75,3.69,24.50,27.40,1.64
42.00,1.00,277.56,-5.19,-67.19,3.25,0.44,-0.19,27.40,1.64
42.00,2.00,262.44,-27.50,16.62,4.56,-6.62,6.56,27.40,1.64
42.00,0.00,254.81,13.75,-122.81,47.94,3.06,24.38,29.10,1.66
42.00,1.00,277.56,-5.19,-67.25,3.44,0.56,-0.12,29.10,1.66
42.00,2.00,262.31,-27.38,16.44,5.44,-7.12,6.25,29.10,1.66
42.00,0.00,253.75,14.19,-123.81,48.44,3.12,24.44,30.81,1.68
42.00,1.00,277.56,-5.19,-67.31,3.06,0.94,0.12,30.81,1.68
42.00,2.00,262.19,-27.25,16.25,5.62,-8.44,6.69,30.81,1.68
42.00,0.00,252.69,14.56,-124.75,47.19,2.81,23.00,32.49,1.70
42.00,1.00,277.56,-5.19,-67.38,2.88,0.75,-0.12,32.49,1.70
42.00,2.00,262.06,-27.12,16.06,5.31,-9.12,7.38,32.49,1.70
42.00,0.00,251.69,14.94,-125.75,47.25,1.25,21.31,34.16,1.72
42.00,1.00,277.56,-5.19,-67.50,3.50,0.44,0.00,34.16,1.72
42.00,2.00,261.94,-27.00,15.81,5.50,-9.00,7.88,34.16,1.72
42.00,0.00,250.69,15.25,-126.75,49.81,-1.25,21.56,36.00,1.74
42.00,1.00,277.50,-5.19,-67.56,2.12,1.06,0.31,36.00,1.74
42.00,2.00,261.75,-26.88,15.56,3.75,-7.94,8.19,36.00,1.74
42.00,0.00,249.75,15.56,-127.81,49.56,-1.69,20.06,37.90,1.76
42.00,1.00,277.50,-5.19,-67.62,0.88,1.81,0.81,37.90,1.76
42.00,2.00,261.56,-26.75,15.38,1.94,-7.81,8.06,37.90,1.76
42.00,0.00,248.88,15.81,-128.81,49.12,-3.31,18.19,39.84,1.78
42.00,1.00,277.44,-5.19,-67.62,0.12,1.56,1.06,39.84,1.78
42.00,2.00,261.44,-26.69,15.25,0.62,-7.88,8.12,39.84,1.78
42.00,0.00,248.00,16.00,-129.81,48.62,-2.75,16.38,41.76,1.80
42.00,1.00,277.44,-5.19,-67.69,0.19,1.06,0.69,41.76,1.80
42.00,2.00,261.25,-26.56,15.12,0.75,-7.31,7.62,41.76,1.80
42.00,0.00,247.06,16.25,-130.88,49.12,-2.38,15.31,43.70,1.82
42.00,1.00,277.44,-5.19,-67.69,0.19,0.62,0.12,43.70,1.82
42.00,2.00,261.06,-26.44,15.06,0.50,-7.25,7.12,43.70,1.82
42.00,0.00,246.06,16.44,-131.88,52.00,-2.62,15.56,45.81,1.84
42.00,1.00,277.44,-5.19,-67.69,-0.25,0.19,-0.75,45.81,1.84
42.00,2.00,260.94,-26.38,15.00,-0.62,-6.25,6.69,45.81,1.84
42.00,0.00,245.06,16.62,-133.06,55.19,-3.44,15.38,47.99,1.86
42.00,1.00,277.44,-5.25,-67.75,-0.06,-0.50,-1.75,47.99,1.86
42.00,2.00,260.75,-26.31,14.88,0.62,-5.25,6.88,47.99,1.86
42.00,0.00,244.00,16.75,-134.25,57.94,-3.56,15.19,50.28,1.88
42.00,1.00,277.50,-5.25,-67.75,0.19,-0.50,-2.31,50.28,1.88
42.00,2.00,260.62,-26.25,14.81,0.75,-4.56,6.56,50.28,1.88
42.00,0.00,242.81,16.94,-135.44,58.12,-3.25,13.81,52.57,1.90
42.00,1.00,277.50,-5.31,-67.75,-0.06,-0.31,-2.38,52.57,1.90
42.00,2.00,260.50,-26.19,14.69,0.69,-4.38,5.88,52.57,1.90
42.00,0.00,241.62,17.06,-136.62,57.25,-1.62,13.19,54.84,1.92
42.00,1.00,277.56,-5.38,-67.75,-1.12,-0.75,-2.75,54.84,1.92
42.00,2.00,260.38,-26.12,14.62,0.50,-5.44,6.25,54.84,1.92
42.00,0.00,109.94,17.25,-137.75,54.94,-0.25,12.06,56.98,1.94
42.00,1.00,277.62,-5.38,-67.75,-0.81,-0.50,-2.75,56.98,1.94
42.00,2.00,260.25,-26.00,14.50,1.50,-6.44,7.06,56.98,1.94
42.00,0.00,109.94,17.38,-138.81,52.81,-0.25,10.69,59.04,1.96
42.00,1.00,277.69,-5.44,-67.75,-1.06,-0.25,-3.12,59.04,1.96
42.00,2.00,260.06,-25.94,14.31,1.31,-6.31,7.50,59.04,1.96
42.00,0.00,110.00,17.50,-139.88,52.50,0.50,10.75,61.14,1.98
42.00,1.00,277.75,-5.50,-67.81,-1.31,0.50,-2.50,61.14,1.98
42.00,2.00,259.94,-25.81,14.19,-0.06,-6.31,7.38,61.14,1.98
42.00,0.00,110.00,17.62,-140.94,51.12,-0.06,10.56,63.19,2.00
42.00,1.00,277.75,-5.50,-67.81,-1.62,0.62,-2.19,63.19,2.00
42.00,2.00,259.75,-25.75,14.06,-0.06,-6.88,8.00,63.19,2.00
42.00,0.00,110.00,17.75,-141.88,49.19,0.00,9.69,65.21,2.02
42.00,1.00,277.81,-5.56,-67.75,-2.44,0.81,-2.06,65.21,2.02
42.00,2.00,259.56,-25.62,13.94,-1.31,-6.75,8.06,65.21,2.02
42.00,0.00,110.06,17.81,-142.81,47.38,-0.19,9.75,67.20,2.04
42.00,1.00,277.81,-5.56,-67.75,-2.88,1.69,-1.75,67.20,2.04
42.00,2.00,259.38,-25.56,13.88,-2.31,-6.00,7.44,67.20,2.04
42.00,0.00,110.06,17.94,-143.75,45.19,-0.56,9.56,69.12,2.06
42.00,1.00,277.81,-5.62,-67.75,-3.69,1.50,-1.94,69.12,2.06
42.00,2.00,259.19,-25.44,13.81,-2.81,-6.56,7.06,69.12,2.06
42.00,0.00,110.12,18.00,-144.62,43.25,-1.19,9.19,70.96,2.08
42.00,1.00,277.81,-5.69,-67.69,-4.12,1.75,-2.19,70.96,2.08
42.00,2.00,259.06,-25.38,13.81,-2.81,-6.56,7.38,70.96,2.08
42.00,0.00,110.19,18.06,-145.50,42.75,-2.56,9.38,72.79,2.10
42.00,1.00,277.81,-5.75,-67.62,-4.81,1.56,-2.38,72.79,2.10
42.00,2.00,258.88,-25.25,13.75,-2.94,-6.12,6.50,72.79,2.10
42.00,0.00,110.25,18.12,-146.44,41.88,-3.06,9.44,74.57,2.12
42.00,1.00,277.88,-5.81,-67.50,-4.62,1.50,-2.44,74.57,2.12
42.00,2.00,258.75,-25.19,13.75,-2.69,-6.44,6.31,74.57,2.12
42.00,0.00,110.31,18.19,-147.25,40.19,-5.56,8.81,76.29,2.14
42.00,1.00,277.88,-5.81,-67.44,-4.31,1.00,-2.75,76.29,2.14
42.00,2.00,258.56,-25.06,13.75,-2.81,-6.31,5.94,76.29,2.14
42.00,0.00,110.38,18.12,-148.06,39.12,-6.00,9.00,78.01,2.16
42.00,1.00,277.94,-5.88,-67.38,-4.94,0.94,-2.88,78.01,2.16
42.00,2.00,258.44,-25.00,13.75,-3.94,-5.50,5.19,78.01,2.16
42.00,0.00,110.38,18.12,-148.81,38.75,-6.38,8.56,79.72,2.18
42.00,1.00,277.94,-5.94,-67.25,-5.38,0.75,-2.75,79.72,2.18
42.00,2.00,258.31,-24.88,13.75,-4.00,-6.75,4.81,79.72,2.18
42.00,0.00,110.44,18.06,-149.56,37.81,-6.69,8.12,81.37,2.20
42.00,1.00,278.00,-6.00,-67.12,-5.50,0.31,-3.06,81.37,2.20
42.00,2.00,258.19,-24.75,13.75,-3.44,-7.75,4.69,81.37,2.20
42.00,0.00,110.56,18.00,-150.38,38.19,-6.69,8.56,82.99,2.22
42.00,1.00,278.06,-6.06,-67.06,-5.44,0.00,-3.62,82.99,2.22
42.00,2.00,258.06,-24.69,13.75,-2.38,-6.88,4.69,82.99,2.22
42.00,0.00,110.62,18.00,-151.19,38.56,-6.31,8.31,84.66,2.24
42.00,1.00,278.12,-6.12,-66.94,-4.50,-0.69,-3.81,84.66,2.24
42.00,2.00,258.00,-24.56,13.75,-3.00,-6.62,3.69,84.66,2.24
42.00,0.00,110.69,17.94,-152.00,40.06,-5.62,8.94,86.36,2.26
42.00,1.00,278.19,-6.19,-66.88,-5.50,-0.81,-3.31,86.36,2.26
42.00,2.00,257.88,-24.44,13.75,-2.62,-7.31,4.06,86.36,2.26
42.00,0.00,110.75,17.94,-152.88,40.44,-4.44,8.75,88.11,2.28
42.00,1.00,278.25,-6.25,-66.75,-5.44,-0.69,-3.00,88.11,2.28
42.00,2.00,257.75,-24.31,13.75,-3.12,-8.00,4.25,88.11,2.28
42.00,0.00,110.75,17.94,-153.69,40.19,-4.81,7.94,89.93,2.30
42.00,1.00,278.31,-6.31,-66.69,-4.88,-0.88,-2.38,89.93,2.30
42.00,2.00,257.62,-24.19,13.81,-5.38,-7.00,3.50,89.93,2.30
42.00,0.00,110.81,17.88,-154.50,39.69,-4.38,6.12,91.72,2.32
42.00,1.00,278.38,-6.31,-66.56,-5.00,-0.56,-2.50,91.72,2.32
42.00,2.00,257.56,-24.06,13.88,-5.12,-7.31,3.69,91.72,2.32
42.00,0.00,110.75,17.88,-155.25,39.00,-3.31,4.75,93.39,2.34
42.00,1.00,278.44,-6.38,-66.44,-4.94,-1.94,-2.88,93.39,2.34
42.00,2.00,257.44,-23.94,13.88,-2.62,-8.50,4.31,93.39,2.34
42.00,0.00,110.75,17.88,-155.69,39.44,-2.56,4.00,95.05,2.36
42.00,1.00,278.50,-6.44,-66.38,-4.56,-0.62,-2.69,95.05,2.36
42.00,2.00,257.31,-23.75,13.81,-2.12,-9.75,4.69,95.05,2.36
42.00,0.00,110.69,17.88,-156.88,41.00,0.00,3.81,96.87,2.38
42.00,1.00,278.50,-6.44,-66.25,-4.69,-0.31,-2.31,96.87,2.38
42.00,2.00,257.19,-23.62,13.81,-4.50,-9.62,5.31,96.87,2.38
42.00,0.00,110.62,17.94,-157.69,41.50,2.94,2.31,98.69,2.40
42.00,1.00,278.56,-6.50,-66.19,-3.94,-0.81,-1.00,98.69,2.40
42.00,2.00,257.00,-23.44,13.81,-3.94,-10.44,6.94,98.69,2.40
42.00,0.00,110.56,18.00,-158.12,41.12,4.88,1.38,100.41,2.42
42.00,1.00,278.56,-6.50,-66.12,-3.62,-1.00,-0.88,100.41,2.42
42.00,2.00,256.81,-23.25,13.75,-2.00,-11.50,8.25,100.41,2.42
42.00,0.00,110.31,18.19,-159.19,39.00,8.12,-0.12,102.04,2.44
42.00,1.00,278.56,-6.50,-66.06,-3.12,0.50,-0.62,102.04,2.44
42.00,2.00,256.56,-23.12,13.69,-1.81,-11.25,8.56,102.04,2.44
42.00,0.00,110.25,18.25,-159.56,36.31,10.38,-2.06,103.57,2.46
42.00,1.00,278.56,-6.50,-66.00,-3.12,0.69,-0.19,103.57,2.46
42.00,2.00,256.38,-22.94,13.62,-1.81,-11.38,8.94,103.57,2.46
42.00,0.00,110.06,18.44,-160.19,32.94,11.56,-3.69,105.06,2.48
42.00,1.00,278.56,-6.50,-65.94,-3.44,1.81,0.62,105.06,2.48
42.00,2.00,256.19,-22.75,13.56,-4.31,-9.19,8.88,105.06,2.48
42.00,0.00,109.81,18.62,-160.62,28.88,13.50,-4.62,106.37,2.50
42.00,1.00,278.50,-6.50,-65.88,-2.50,1.75,1.69,106.37,2.50
42.00,2.00,255.94,-22.62,13.56,-4.00,-9.56,9.69,106.37,2.50
42.00,0.00,109.56,18.81,-160.88,22.00,14.19,-6.44,107.42,2.52
42.00,1.00,278.44,-6.50,-65.88,-2.62,2.12,2.06,107.42,2.52
42.00,2.00,255.75,-22.50,13.50,-4.25,-9.44,9.50,107.42,2.52
42.00,0.00,109.25,18.94,-160.88,14.69,12.81,-8.44,108.21,2.54
42.00,1.00,278.38,-6.50,-65.81,-3.06,3.00,2.44,108.21,2.54
42.00,2.00,255.50,-22.38,13.50,-5.12,-8.25,9.12,108.21,2.54
42.00,0.00,108.94,19.06,-160.81,10.06,11.62,-9.31,108.80,2.56
42.00,1.00,278.25,-6.44,-65.75,-2.88,3.25,2.50,108.80,2.56
42.00,2.00,255.31,-22.25,13.50,-4.50,-7.06,8.69,108.80,2.56
42.00,0.00,108.69,19.19,-160.75,5.50,11.75,-9.12,109.20,2.58
42.00,1.00,278.19,-6.44,-65.75,-2.94,3.38,2.69,109.20,2.58
42.00,2.00,255.12,-22.19,13.50,-4.62,-6.62,8.00,109.20,2.58
42.00,0.00,108.44,19.31,-160.62,1.38,10.38,-8.75,109.44,2.60
42.00,1.00,278.06,-6.44,-65.69,-3.62,4.31,2.12,109.44,2.60
42.00,2.00,254.94,-22.12,13.56,-4.69,-3.75,6.19,109.44,2.60
42.00,0.00,108.19,19.38,-160.50,-0.31,9.06,-8.62,109.59,2.62
42.00,1.00,278.00,-6.44,-65.62,-3.19,4.25,2.38,109.59,2.62
42.00,2.00,254.81,-22.12,13.56,-4.06,-2.56,5.38,109.59,2.62
42.00,0.00,108.00,19.44,-160.25,-4.38,4.56,-7.38,109.57,2.64
42.00,1.00,277.88,-6.44,-65.62,-3.00,3.75,2.06,109.57,2.64
42.00,2.00,254.69,-22.06,13.62,-3.75,-1.56,4.56,109.57,2.64
42.00,0.00,107.88,19.44,-160.12,-4.38,3.38,-6.31,109.55,2.66
42.00,1.00,277.81,-6.44,-65.56,-3.06,3.81,1.62,109.55,2.66
42.00,2.00,254.62,-22.12,13.69,-3.81,0.00,3.62,109.55,2.66
42.00,0.00,107.75,19.50,-160.00,-3.94,2.38,-3.12,109.55,2.68
42.00,1.00,277.69,-6.44,-65.50,-2.88,3.81,1.12,109.55,2.68
42.00,2.00,254.56,-22.12,13.75,-3.94,0.81,2.44,109.55,2.68
42.00,0.00,107.75,19.50,-159.88,-4.25,0.56,-2.19,109.52,2.70
42.00,1.00,277.62,-6.44,-65.44,-2.62,2.75,0.94,109.52,2.70
42.00,2.00,254.50,-22.12,13.81,-3.62,1.44,1.19,109.52,2.70
42.00,0.00,107.69,19.50,-159.81,-4.38,-0.25,-1.62,109.42,2.72
42.00,1.00,277.62,-6.50,-65.44,-2.19,2.00,0.69,109.42,2.72
42.00,2.00,254.50,-22.19,13.81,-1.88,0.88,0.25,109.42,2.72
42.00,0.00,107.69,19.44,-159.69,-3.44,-1.81,-0.12,109.33,2.74
42.00,1.00,277.56,-6.50,-65.38,-1.81,0.94,0.25,109.33,2.74
42.00,2.00,254.50,-22.19,13.88,-1.19,0.00,-0.50,109.33,2.74
42.00,0.00,107.75,19.44,-159.69,-2.94,-1.44,0.75,109.24,2.76
42.00,1.00,277.56,-6.50,-65.38,-1.19,0.44,0.38,109.24,2.76
42.00,2.00,254.50,-22.19,13.94,-0.75,-0.06,-1.38,109.24,2.76
42.00,0.00,107.75,19.44,-159.62,-1.38,0.06,2.56,109.20,2.78
42.00,1.00,277.56,-6.50,-65.38,-0.50,-0.38,0.38,109.20,2.78
42.00,2.00,254.56,-22.12,13.94,-0.19,-0.88,-1.69,109.20,2.78
42.00,0.00,107.81,19.50,-159.62,-1.25,0.62,3.06,109.12,2.80
42.00,1.00,277.62,-6.50,-65.38,0.38,-1.00,0.25,109.12,2.80
42.00,2.00,254.56,-22.12,13.94,0.56,-1.88,-2.00,109.12,2.80
42.00,0.00,107.94,19.56,-159.62,-1.31,1.62,3.75,109.04,2.82
42.00,1.00,277.62,-6.50,-65.38,0.38,-1.31,0.12,109.04,2.82
42.00,2.00,254.56,-22.06,13.94,0.69,-2.12,-2.19,109.04,2.82
42.00,0.00,108.00,19.62,-159.69,-0.69,1.88,4.12,108.97,2.84
42.00,1.00,277.62,-6.44,-65.38,0.62,-2.19,0.44,108.97,2.84
42.00,2.00,254.62,-22.00,13.94,1.12,-2.50,-2.00,108.97,2.84
42.00,0.00,108.06,19.69,-159.69,-0.06,2.38,4.38,108.93,2.86
42.00,1.00,277.69,-6.44,-65.38,1.38,-2.31,0.50,108.93,2.86
42.00,2.00,254.69,-21.94,13.94,1.00,-3.06,-2.00,108.93,2.86
42.00,0.00,108.12,19.75,-159.75,0.75,3.00,4.56,108.94,2.88
42.00,1.00,277.69,-6.44,-65.38,1.38,-1.69,0.88,108.94,2.88
42.00,2.00,254.75,-21.88,13.94,0.56,-3.12,-1.88,108.94,2.88
42.00,0.00,108.25,19.88,-159.81,1.19,3.38,4.31,108.93,2.90
42.00,1.00,277.69,-6.38,-65.44,1.38,-1.69,1.06,108.93,2.90
42.00,2.00,254.75,-21.81,13.94,1.25,-3.31,-1.62,108.93,2.90
42.00,0.00,108.25,19.94,-159.88,1.94,3.12,3.44,108.92,2.92
42.00,1.00,277.69,-6.31,-65.44,2.06,-2.12,0.94,108.92,2.92
42.00,2.00,254.75,-21.75,13.88,2.25,-3.69,-0.94,108.92,2.92
42.00,0.00,108.31,20.00,-159.94,2.31,2.94,3.00,108.91,2.94
42.00,1.00,277.69,-6.31,-65.50,2.75,-1.69,1.19,108.91,2.94
42.00,2.00,254.75,-21.62,13.81,2.62,-3.19,-0.31,108.91,2.94
42.00,0.00,108.38,20.06,-160.00,2.94,3.12,2.56,108.94,2.96
42.00,1.00,277.69,-6.25,-65.56,2.81,-0.62,1.31,108.94,2.96
42.00,2.00,254.75,-21.56,13.75,2.19,-3.19,0.38,108.94,2.96
42.00,0.00,108.38,20.12,-160.12,3.25,3.44,1.56,108.97,2.98
42.00,1.00,277.62,-6.25,-65.62,3.06,-0.31,1.62,108.97,2.98
42.00,2.00,254.75,-21.50,13.69,2.44,-3.56,1.31,108.97,2.98
42.00,0.00,108.38,20.19,-160.19,3.44,3.25,0.75,109.01,3.00
42.00,1.00,277.62,-6.19,-65.69,3.50,-0.19,1.62,109.01,3.00
42.00,2.00,254.69,-21.44,13.62,2.56,-3.88,1.88,109.01,3.00
42.00,0.00,108.38,20.19,-160.31,3.69,3.38,0.19,109.05,3.02
42.00,1.00,277.56,-6.19,-65.75,3.62,1.06,1.94,109.05,3.02
42.00,2.00,254.69,-21.44,13.56,2.69,-3.31,2.12,109.05,3.02
42.00,0.00,108.31,20.25,-160.38,3.81,3.06,-0.75,109.10,3.04
42.00,1.00,277.50,-6.12,-65.88,3.19,1.69,1.94,109.10,3.04
42.00,2.00,254.62,-21.31,13.44,2.56,-3.06,2.69,109.10,3.04
42.00,0.00,108.25,20.25,-160.50,3.56,3.19,-1.88,109.13,3.06
42.00,1.00,277.50,-6.12,-65.94,3.81,1.69,1.75,109.13,3.06
42.00,2.00,254.56,-21.31,13.31,2.75,-3.19,3.94,109.13,3.06
42.00,0.00,108.19,20.31,-160.56,3.50,3.44,-3.00,109.20,3.08
42.00,1.00,277.38,-6.06,-66.06,2.88,3.25,2.62,109.20,3.08
42.00,2.00,254.44,-21.25,13.12,1.69,-3.00,4.44,109.20,3.08
42.00,0.00,108.12,20.31,-160.62,3.81,3.31,-3.62,109.33,3.10
42.00,1.00,277.31,-6.06,-66.19,2.25,3.88,2.56,109.33,3.10
42.00,2.00,254.38,-21.19,13.06,0.56,-2.56,5.19,109.33,3.10
42.00,0.00,108.00,20.31,-160.75,3.12,2.75,-4.62,109.41,3.12
42.00,1.00,277.19,-6.06,-66.25,2.00,4.69,2.81,109.41,3.12
42.00,2.00,254.31,-21.19,13.00,1.06,-2.12,5.88,109.41,3.12
42.00,0.00,107.88,20.31,-160.81,3.12,2.56,-5.19,109.49,3.14
42.00,1.00,277.06,-6.00,-66.31,2.06,4.56,2.50,109.49,3.14
42.00,2.00,254.12,-21.12,12.81,1.25,-2.06,6.38,109.49,3.14
42.00,0.00,107.75,20.38,-160.81,3.12,2.38,-5.19,109.62,3.16
42.00,1.00,276.94,-6.00,-66.44,1.38,5.38,2.88,109.62,3.16
42.00,2.00,253.94,-21.12,12.69,-0.19,-2.00,6.69,109.62,3.16
42.00,0.00,107.69,20.38,-160.88,2.56,2.94,-5.69,109.77,3.18
42.00,1.00,276.81,-6.00,-66.44,0.31,5.81,3.31,109.77,3.18
42.00,2.00,253.88,-21.06,12.69,-1.19,-1.56,6.75,109.77,3.18
42.00,0.00,107.50,20.38,-160.88,1.94,2.88,-6.06,109.89,3.20
42.00,1.00,276.62,-6.00,-66.50,0.50,5.56,3.25,109.89,3.20
42.00,2.00,253.69,-21.06,12.62,-1.00,-1.94,6.88,109.89,3.20
42.00,0.00,107.38,20.38,-160.88,1.38,2.44,-6.00,109.97,3.22
42.00,1.00,276.50,-5.94,-66.56,0.25,5.12,2.88,109.97,3.22
42.00,2.00,253.62,-21.06,12.56,-0.69,-1.62,6.31,109.97,3.22
42.00,0.00,107.25,20.38,-160.88,1.00,2.50,-5.38,110.03,3.24
42.00,1.00,276.38,-5.94,-66.56,-0.12,5.38,2.88,110.03,3.24
42.00,2.00,253.44,-21.06,12.50,-0.38,-1.38,5.75,110.03,3.24
42.00,0.00,107.19,20.44,-160.88,0.75,3.31,-4.88,110.07,3.26
42.00,1.00,276.31,-5.94,-66.62,-0.44,5.25,2.69,110.07,3.26
42.00,2.00,253.38,-21.06,12.44,-0.38,-1.88,5.56,110.07,3.26
42.00,0.00,107.06,20.50,-160.81,0.31,3.44,-4.06,110.14,3.28
42.00,1.00,276.19,-5.94,-66.69,-0.75,4.81,2.69,110.14,3.28
42.00,2.00,253.25,-21.00,12.38,-1.44,-2.25,5.19,110.14,3.28
42.00,0.00,107.00,20.56,-160.81,0.25,4.06,-3.56,110.24,3.30
42.00,1.00,276.06,-5.94,-66.69,-1.69,4.62,2.50,110.24,3.30
42.00,2.00,253.12,-21.00,12.38,-2.25,-1.81,4.12,110.24,3.30
42.00,0.00,106.94,20.62,-160.75,0.00,4.19,-3.31,110.35,3.32
42.00,1.00,275.94,-5.88,-66.69,-2.25,3.94,2.69,110.35,3.32
42.00,2.00,253.06,-20.94,12.38,-2.62,-1.69,3.75,110.35,3.32
42.00,0.00,106.88,20.69,-160.75,-0.50,3.94,-2.81,110.42,3.34
42.00,1.00,275.88,-5.88,-66.62,-2.25,3.56,2.25,110.42,3.34
42.00,2.00,252.94,-20.94,12.38,-2.44,-1.94,3.38,110.42,3.34
42.00,0.00,106.81,20.75,-160.69,-1.19,3.88,-2.19,110.47,3.36
42.00,1.00,275.75,-5.88,-66.62,-2.62,3.56,1.94,110.47,3.36
42.00,2.00,252.88,-20.94,12.38,-2.38,-2.12,3.25,110.47,3.36
42.00,0.00,106.75,20.81,-160.62,-2.00,4.19,-1.50,110.49,3.38
42.00,1.00,275.69,-5.88,-66.56,-2.88,3.38,2.31,110.49,3.38
42.00,2.00,252.81,-20.88,12.38,-2.44,-1.94,2.62,110.49,3.38
42.00,0.00,106.75,20.88,-160.56,-2.69,3.81,-1.12,110.48,3.40
42.00,1.00,275.56,-5.81,-66.56,-3.12,2.88,2.00,110.48,3.40
42.00,2.00,252.75,-20.81,12.44,-2.50,-1.44,1.94,110.48,3.40
42.00,0.00,106.75,20.94,-160.50,-3.44,3.19,-0.75,110.45,3.42
42.00,1.00,275.50,-5.81,-66.50,-3.38,2.94,1.81,110.45,3.42
42.00,2.00,252.69,-20.81,12.44,-2.56,-1.44,2.00,110.45,3.42
42.00,0.00,106.75,21.00,-160.44,-2.94,2.94,-0.38,110.48,3.44
42.00,1.00,275.44,-5.81,-66.44,-4.19,3.25,1.56,110.48,3.44
42.00,2.00,252.62,-20.81,12.44,-3.69,-1.19,1.75,110.48,3.44
42.00,0.00,106.75,21.06,-160.38,-3.00,2.62,-0.19,110.53,3.46
42.00,1.00,275.31,-5.81,-66.38,-4.44,2.88,1.38,110.53,3.46
42.00,2.00,252.62,-20.75,12.50,-4.38,-0.75,1.31,110.53,3.46
42.00,0.00,106.75,21.06,-160.31,-3.12,1.88,-0.25,110.58,3.48
42.00,1.00,275.25,-5.81,-66.31,-4.56,2.19,0.94,110.58,3.48
42.00,2.00,252.56,-20.75,12.56,-4.38,-1.00,1.38,110.58,3.48
42.00,0.00,106.75,21.12,-160.31,-2.88,1.81,-0.38,110.63,3.50
42.00,1.00,275.25,-5.81,-66.25,-4.19,1.94,0.69,110.63,3.50
42.00,2.00,252.50,-20.75,12.62,-4.19,-0.94,1.44,110.63,3.50
42.00,0.00,106.75,21.12,-160.25,-3.12,1.62,-0.31,110.66,3.52
42.00,1.00,275.19,-5.81,-66.19,-4.12,2.31,0.69,110.66,3.52
42.00,2.00,252.50,-20.75,12.69,-3.69,-0.38,1.44,110.66,3.52
42.00,0.00,106.75,21.19,-160.19,-3.00,2.25,-0.62,110.69,3.54
42.00,1.00,275.12,-5.81,-66.12,-4.69,2.69,0.44,110.69,3.54
42.00,2.00,252.44,-20.75,12.75,-3.88,-0.50,1.69,110.69,3.54
42.00,0.00,106.75,21.19,-160.06,-3.50,1.69,-0.75,110.71,3.56
42.00,1.00,275.12,-5.88,-66.00,-4.56,2.31,0.25,110.71,3.56
42.00,2.00,252.38,-20.75,12.81,-4.06,-0.19,1.44,110.71,3.56
42.00,0.00,106.75,21.25,-160.00,-3.50,1.69,-0.62,110.72,3.58
42.00,1.00,275.06,-5.88,-65.94,-4.12,2.44,0.19,110.72,3.58
42.00,2.00,252.31,-20.75,12.88,-3.62,0.12,1.38,110.72,3.58
42.00,0.00,106.75,21.25,-159.94,-2.94,1.94,-0.62,110.75,3.60
42.00,1.00,275.06,-5.88,-65.88,-4.50,2.38,0.06,110.75,3.60
42.00,2.00,252.31,-20.75,12.94,-3.69,0.00,1.50,110.75,3.60
42.00,0.00,106.75,21.31,-159.88,-3.25,1.75,-0.31,110.79,3.62
42.00,1.00,275.00,-5.94,-65.81,-4.56,2.44,-0.31,110.79,3.62
42.00,2.00,252.25,-20.75,13.00,-4.31,0.38,0.75,110.79,3.62
42.00,0.00,106.75,21.31,-159.81,-3.56,1.81,-0.56,110.83,3.64
42.00,1.00,274.94,-5.94,-65.69,-5.19,2.19,-0.31,110.83,3.64
42.00,2.00,252.25,-20.75,13.06,-4.50,1.06,0.50,110.83,3.64
42.00,0.00,106.75,21.38,-159.75,-4.56,1.75,-1.06,110.83,3.66
42.00,1.00,274.94,-5.94,-65.62,-5.00,1.81,-0.44,110.83,3.66
42.00,2.00,252.19,-20.81,13.19,-4.50,1.00,0.31,110.83,3.66
42.00,0.00,106.75,21.38,-159.62,-5.25,2.00,-1.00,110.81,3.68
42.00,1.00,274.88,-5.94,-65.50,-5.25,2.19,-0.50,110.81,3.68
42.00,2.00,252.19,-20.81,13.25,-4.81,1.31,0.31,110.81,3.68
42.00,0.00,106.75,21.38,-159.50,-6.12,0.94,-1.50,110.76,3.70
42.00,1.00,274.88,-6.00,-65.44,-5.12,2.25,-0.19,110.76,3.70
42.00,2.00,252.19,-20.81,13.38,-4.81,1.50,0.12,110.76,3.70
42.00,0.00,106.75,21.38,-159.31,-6.44,0.38,-1.62,110.69,3.72
42.00,1.00,274.81,-6.00,-65.31,-4.88,1.94,-0.19,110.69,3.72
42.00,2.00,252.19,-20.88,13.44,-4.88,1.62,0.25,110.69,3.72
42.00,0.00,106.69,21.38,-159.19,-6.44,0.31,-1.69,110.61,3.74
42.00,1.00,274.81,-6.00,-65.25,-5.00,1.94,-0.75,110.61,3.74
42.00,2.00,252.19,-20.88,13.56,-4.31,1.62,0.12,110.61,3.74
42.00,0.00,106.69,21.31,-159.06,-6.06,0.19,-1.88,110.53,3.76
42.00,1.00,274.75,-6.06,-65.12,-5.00,1.94,-0.56,110.53,3.76
42.00,2.00,252.12,-20.94,13.62,-4.00,2.06,0.06,110.53,3.76
42.00,0.00,106.69,21.31,-158.94,-5.44,-0.06,-2.00,110.50,3.78
42.00,1.00,274.75,-6.06,-65.06,-4.88,2.06,-0.62,110.50,3.78
42.00,2.00,252.12,-20.94,13.75,-4.75,2.31,-0.12,110.50,3.78
42.00,0.00,106.69,21.31,-158.81,-5.12,-0.88,-2.38,110.46,3.80
42.00,1.00,274.75,-6.06,-64.94,-4.50,1.69,-0.62,110.46,3.80
42.00,2.00,252.12,-21.00,13.81,-4.25,2.31,0.06,110.46,3.80
42.00,0.00,106.62,21.25,-158.75,-4.56,-0.94,-2.44,110.40,3.82
42.00,1.00,274.69,-6.12,-64.88,-4.00,1.56,-0.69,110.40,3.82
42.00,2.00,252.12,-21.06,13.88,-3.06,2.38,-0.38,110.40,3.82
42.00,0.00,106.62,21.25,-158.62,-4.25,-0.69,-2.12,110.36,3.84
42.00,1.00,274.69,-6.12,-64.81,-4.50,1.81,-0.75,110.36,3.84
42.00,2.00,252.12,-21.12,13.94,-3.19,2.31,-0.31,110.36,3.84
42.00,0.00,106.56,21.19,-158.56,-3.69,0.25,-2.19,110.36,3.86
42.00,1.00,274.69,-6.12,-64.75,-4.38,1.69,-0.38,110.36,3.86
42.00,2.00,252.12,-21.12,14.00,-3.56,1.94,0.06,110.36,3.86
42.00,0.00,106.56,21.19,-158.50,-3.69,1.12,-2.12,110.37,3.88
42.00,1.00,274.62,-6.19,-64.69,-3.88,2.00,-0.19,110.37,3.88
42.00,2.00,252.06,-21.19,14.12,-4.00,1.56,0.56,110.37,3.88
42.00,0.00,106.56,21.19,-158.44,-1.88,0.12,-0.94,110.45,3.90
42.00,1.00,274.62,-6.19,-64.62,-3.56,2.12,0.00,110.45,3.90
42.00,2.00,252.06,-21.19,14.19,-3.88,1.50,0.69,110.45,3.90
42.00,0.00,106.56,21.25,-158.44,-1.31,1.94,0.19,110.53,3.92
42.00,1.00,274.56,-6.19,-64.56,-3.38,2.19,0.31,110.53,3.92
42.00,2.00,252.06,-21.25,14.25,-3.31,1.25,1.06,110.53,3.92
42.00,0.00,106.56,21.31,-158.44,-0.75,1.69,0.19,110.62,3.94
42.00,1.00,274.56,-6.25,-64.50,-2.88,1.94,0.50,110.62,3.94
42.00,2.00,252.00,-21.25,14.31,-3.06,0.50,1.31,110.62,3.94
42.00,0.00,106.56,21.31,-158.44,-0.69,2.31,0.50,110.69,3.96
42.00,1.00,274.50,-6.25,-64.44,-3.12,2.06,0.31,110.69,3.96
42.00,2.00,252.00,-21.25,14.31,-2.44,0.12,1.31,110.69,3.96
42.00,0.00,106.56,21.38,-158.44,-0.62,2.31,0.81,110.77,3.98
42.00,1.00,274.50,-6.25,-64.38,-3.00,1.81,0.31,110.77,3.98
42.00,2.00,251.94,-21.25,14.38,-2.62,0.06,1.12,110.77,3.98
42.00,0.00,106.56,21.44,-158.44,-0.12,2.69,0.88,110.86,4.00
42.00,1.00,274.50,-6.25,-64.31,-2.69,1.44,0.25,110.86,4.00
42.00,2.00,251.88,-21.25,14.38,-2.31,-0.31,1.25,110.86,4.00
42.00,0.00,106.56,21.44,-158.44,0.25,2.62,1.06,110.96,4.02
42.00,1.00,274.44,-6.25,-64.25,-2.69,1.50,0.56,110.96,4.02
42.00,2.00,251.88,-21.31,14.44,-2.38,-0.19,1.25,110.96,4.02
42.00,0.00,106.56,21.56,-158.44,0.00,2.38,1.31,111.05,4.04
42.00,1.00,274.44,-6.31,-64.25,-2.75,1.25,0.31,111.05,4.04
42.00,2.00,251.81,-21.31,14.50,-2.19,-0.31,1.38,111.05,4.04
42.00,0.00,106.62,21.56,-158.44,-0.31,2.19,1.38,111.12,4.06
42.00,1.00,274.44,-6.31,-64.19,-2.69,1.25,0.00,111.12,4.06
42.00,2.00,251.81,-21.31,14.50,-2.12,-0.56,1.31,111.12,4.06
42.00,0.00,106.62,21.62,-158.44,-0.56,1.31,1.12,111.20,4.08
42.00,1.00,274.38,-6.31,-64.12,-2.56,1.44,0.25,111.20,4.08
42.00,2.00,251.75,-21.31,14.56,-2.56,0.25,0.50,111.20,4.08
42.00,0.00,106.62,21.62,-158.44,-1.50,1.06,0.81,111.23,4.10
42.00,1.00,274.38,-6.31,-64.12,-2.31,1.25,0.31,111.23,4.10
42.00,2.00,251.75,-21.31,14.56,-2.19,0.44,0.25,111.23,4.10
