Iteration,IMUNo,OrientationX (deg),OrientationY,OrientationZ,GyroX (20rad/sec),GyroY,GyroZ,Elbow_Pos (rad),Time (sec)
88.00,0.00,260.00,7.31,-104.44,0.44,0.62,0.19,0.02,0.00
88.00,1.00,238.56,-4.75,-66.25,0.62,-0.12,0.00,0.02,0.00
88.00,2.00,248.56,-28.69,21.31,-0.06,0.19,0.38,0.02,0.00
88.00,0.00,258.31,7.81,-106.12,-2.62,-2.88,0.25,-0.13,1.02
88.00,1.00,238.31,-4.69,-66.50,-0.44,-1.75,-1.00,-0.13,1.02
88.00,2.00,248.12,-29.00,21.50,1.06,1.06,-2.38,-0.13,1.02
88.00,0.00,258.38,7.75,-106.06,-2.56,-2.69,0.25,-0.24,1.04
88.00,1.00,238.31,-4.69,-66.50,-0.12,-1.38,-0.50,-0.24,1.04
88.00,2.00,248.19,-29.00,21.50,0.38,1.06,-1.88,-0.24,1.04
88.00,0.00,258.50,7.75,-106.06,-2.88,-3.31,0.31,-0.35,1.06
88.00,1.00,238.38,-4.62,-66.50,0.06,-1.38,-0.19,-0.35,1.06
88.00,2.00,248.25,-29.00,21.50,-0.06,1.00,-1.50,-0.35,1.06
88.00,0.00,258.56,7.75,-106.06,-2.75,-2.75,0.25,-0.49,1.08
88.00,1.00,238.38,-4.62,-66.50,0.19,-1.12,-0.50,-0.49,1.08
88.00,2.00,248.25,-29.00,21.50,0.75,0.88,-1.50,-0.49,1.08
88.00,0.00,258.62,7.75,-106.00,-2.31,-2.19,0.12,-0.62,1.10
88.00,1.00,238.38,-4.62,-66.50,0.50,-0.50,-0.12,-0.62,1.10
88.00,2.00,248.31,-28.94,21.50,0.88,0.56,-1.19,-0.62,1.10
88.00,0.00,258.62,7.75,-106.00,-1.56,-1.94,0.31,-0.68,1.12
88.00,1.00,238.38,-4.62,-66.50,-0.06,-0.56,0.06,-0.68,1.12
88.00,2.00,248.31,-28.94,21.50,0.06,0.81,-0.88,-0.68,1.12
88.00,0.00,258.69,7.75,-106.00,-1.25,-1.38,0.25,-0.71,1.14
88.00,1.00,238.38,-4.62,-66.50,0.25,-1.06,-0.19,-0.71,1.14
88.00,2.00,248.31,-28.94,21.50,-0.44,0.62,-0.50,-0.71,1.14
88.00,0.00,258.69,7.81,-106.00,-0.50,-0.31,0.31,-0.75,1.16
88.00,1.00,238.38,-4.62,-66.50,0.06,-0.69,-0.75,-0.75,1.16
88.00,2.00,248.31,-28.94,21.50,0.44,0.38,-0.31,-0.75,1.16
88.00,0.00,258.62,7.81,-106.06,0.06,0.19,0.31,-0.78,1.18
88.00,1.00,238.38,-4.62,-66.50,0.31,-0.06,-0.38,-0.78,1.18
88.00,2.00,248.31,-28.94,21.44,0.81,0.19,-0.31,-0.78,1.18
88.00,0.00,258.62,7.81,-106.06,0.12,0.69,0.38,-0.79,1.20
88.00,1.00,238.38,-4.62,-66.50,0.50,0.00,0.31,-0.79,1.20
88.00,2.00,248.31,-28.94,21.44,0.38,-0.31,0.31,-0.79,1.20
88.00,0.00,258.62,7.81,-106.06,0.38,1.12,0.19,-0.76,1.22
88.00,1.00,238.38,-4.62,-66.50,0.56,0.12,0.19,-0.76,1.22
88.00,2.00,248.31,-28.94,21.44,-0.38,-0.25,0.94,-0.76,1.22
88.00,0.00,258.56,7.81,-106.12,0.69,1.38,-0.38,-0.73,1.24
88.00,1.00,238.38,-4.62,-66.50,0.69,0.12,-0.06,-0.73,1.24
88.00,2.00,248.31,-28.94,21.38,-0.19,-0.19,1.31,-0.73,1.24
88.00,0.00,258.50,7.88,-106.12,1.31,2.00,-0.38,-0.68,1.26
88.00,1.00,238.38,-4.62,-66.50,1.06,0.62,0.00,-0.68,1.26
88.00,2.00,248.25,-28.94,21.38,0.06,0.25,1.44,-0.68,1.26
88.00,0.00,258.44,7.88,-106.19,1.88,2.50,-0.50,-0.61,1.28
88.00,1.00,238.38,-4.62,-66.56,1.38,0.75,0.38,-0.61,1.28
88.00,2.00,248.25,-28.94,21.38,0.06,0.12,1.75,-0.61,1.28
88.00,0.00,258.31,7.88,-106.25,2.12,2.94,-0.38,-0.52,1.30
88.00,1.00,238.38,-4.62,-66.56,1.12,0.94,0.50,-0.52,1.30
88.00,2.00,248.19,-28.94,21.31,-0.12,-0.38,1.88,-0.52,1.30
88.00,0.00,258.25,7.94,-106.25,2.38,3.19,-0.50,-0.41,1.32
88.00,1.00,238.38,-4.62,-66.56,0.94,1.19,0.50,-0.41,1.32
88.00,2.00,248.12,-28.94,21.31,-0.38,0.12,2.56,-0.41,1.32
88.00,0.00,258.12,7.94,-106.38,3.25,3.44,-0.38,-0.27,1.34
88.00,1.00,238.38,-4.69,-66.62,1.31,1.62,0.44,-0.27,1.34
88.00,2.00,248.06,-28.94,21.25,-0.19,-0.06,2.88,-0.27,1.34
88.00,0.00,258.00,8.00,-106.50,4.81,3.75,0.50,-0.08,1.36
88.00,1.00,238.31,-4.69,-66.62,0.69,2.00,0.31,-0.08,1.36
88.00,2.00,248.00,-28.94,21.19,-0.12,-1.31,3.25,-0.08,1.36
88.00,0.00,257.75,8.06,-106.69,7.00,4.19,1.69,0.19,1.38
88.00,1.00,238.31,-4.69,-66.62,0.62,1.69,0.44,0.19,1.38
88.00,2.00,247.94,-28.88,21.19,0.31,-3.31,2.88,0.19,1.38
88.00,0.00,257.50,8.19,-106.88,11.25,6.25,3.06,0.65,1.40
88.00,1.00,238.31,-4.69,-66.69,1.88,-0.12,0.31,0.65,1.40
88.00,2.00,247.88,-28.81,21.12,-0.31,-4.25,2.88,0.65,1.40
88.00,0.00,257.12,8.31,-107.12,16.50,9.19,4.62,1.26,1.42
88.00,1.00,238.31,-4.69,-66.75,2.50,-0.75,-0.12,1.26,1.42
88.00,2.00,247.81,-28.81,21.06,1.00,-4.06,3.00,1.26,1.42
88.00,0.00,256.62,8.44,-107.50,22.00,11.44,6.50,2.06,1.44
88.00,1.00,238.31,-4.69,-66.81,3.88,-1.19,-0.25,2.06,1.44
88.00,2.00,247.75,-28.75,21.00,1.75,-4.31,2.94,2.06,1.44
88.00,0.00,256.06,8.69,-108.00,27.75,12.69,8.56,3.06,1.46
88.00,1.00,238.38,-4.69,-66.94,4.56,-1.75,-0.25,3.06,1.46
88.00,2.00,247.69,-28.62,20.94,2.56,-5.19,2.88,3.06,1.46
88.00,0.00,255.38,8.94,-108.56,33.38,12.75,10.56,4.28,1.48
88.00,1.00,238.38,-4.69,-66.94,4.75,-2.06,-0.38,4.28,1.48
88.00,2.00,247.62,-28.56,20.81,2.50,-5.44,3.19,4.28,1.48
88.00,0.00,254.62,9.25,-109.25,38.50,12.88,12.38,5.71,1.50
88.00,1.00,238.44,-4.62,-67.06,4.12,-2.12,-0.25,5.71,1.50
88.00,2.00,247.56,-28.50,20.69,2.38,-5.31,3.19,5.71,1.50
88.00,0.00,253.88,9.56,-110.12,46.12,10.81,13.81,7.40,1.52
88.00,1.00,238.44,-4.62,-67.12,4.06,-2.44,-0.69,7.40,1.52
88.00,2.00,247.50,-28.38,20.62,3.19,-5.69,3.56,7.40,1.52
88.00,0.00,253.06,9.94,-111.19,52.12,8.19,15.31,9.29,1.54
88.00,1.00,238.50,-4.62,-67.19,5.25,-2.38,-1.31,9.29,1.54
88.00,2.00,247.44,-28.31,20.44,4.38,-6.62,3.94,9.29,1.54
88.00,0.00,252.25,10.25,-112.25,54.94,8.50,16.69,11.30,1.56
88.00,1.00,238.56,-4.62,-67.31,5.06,-2.31,-1.56,11.30,1.56
88.00,2.00,247.31,-28.19,20.31,4.19,-6.38,4.38,11.30,1.56
88.00,0.00,251.31,10.62,-113.31,56.44,9.75,17.06,13.39,1.58
88.00,1.00,238.62,-4.69,-67.38,5.25,-2.38,-1.56,13.39,1.58
88.00,2.00,247.25,-28.06,20.12,3.56,-7.12,4.75,13.39,1.58
88.00,0.00,250.31,11.00,-114.44,60.00,9.56,17.19,15.64,1.60
88.00,1.00,238.69,-4.69,-67.50,4.69,-2.62,-1.75,15.64,1.60
88.00,2.00,247.12,-28.00,20.00,3.12,-7.38,5.62,15.64,1.60
88.00,0.00,249.31,11.38,-115.62,64.00,8.69,18.00,18.00,1.62
88.00,1.00,238.81,-4.69,-67.56,5.00,-2.56,-2.06,18.00,1.62
88.00,2.00,247.00,-27.88,19.81,4.44,-7.75,6.56,18.00,1.62
88.00,0.00,248.25,11.81,-116.94,66.88,6.94,20.12,20.48,1.64
88.00,1.00,238.88,-4.69,-67.69,5.69,-1.94,-1.88,20.48,1.64
88.00,2.00,246.88,-27.75,19.62,4.12,-8.19,6.81,20.48,1.64
88.00,0.00,247.12,12.25,-118.31,69.00,6.56,21.94,23.11,1.66
88.00,1.00,238.94,-4.75,-67.81,5.38,-1.50,-1.81,23.11,1.66
88.00,2.00,246.69,-27.69,19.44,2.44,-7.94,8.12,23.11,1.66
88.00,0.00,245.94,12.69,-119.69,70.31,6.19,23.19,25.80,1.68
88.00,1.00,239.00,-4.75,-67.88,4.69,-0.62,-1.56,25.80,1.68
88.00,2.00,246.50,-27.56,19.25,2.56,-7.88,9.25,25.80,1.68
88.00,0.00,244.62,13.12,-121.06,70.25,7.56,23.44,28.47,1.70
88.00,1.00,239.00,-4.75,-67.94,4.06,0.19,-1.50,28.47,1.70
88.00,2.00,246.31,-27.44,19.06,2.56,-7.94,9.62,28.47,1.70
88.00,0.00,243.25,13.62,-122.44,70.25,8.25,23.44,31.17,1.72
88.00,1.00,239.00,-4.75,-68.06,3.38,1.06,-1.50,31.17,1.72
88.00,2.00,246.12,-27.31,18.88,2.06,-8.19,10.12,31.17,1.72
88.00,0.00,241.81,14.12,-123.81,70.12,8.62,23.69,33.93,1.74
88.00,1.00,239.00,-4.81,-68.12,1.88,1.56,-1.50,33.93,1.74
88.00,2.00,245.88,-27.25,18.75,0.44,-8.25,9.81,33.93,1.74
88.00,0.00,240.31,14.56,-125.25,70.12,9.19,23.56,36.67,1.76
88.00,1.00,239.00,-4.81,-68.19,3.19,1.81,-1.88,36.67,1.76
88.00,2.00,245.69,-27.12,18.56,0.75,-9.06,10.12,36.67,1.76
88.00,0.00,238.69,15.06,-126.62,70.06,9.31,22.69,39.34,1.78
88.00,1.00,239.06,-4.88,-68.25,2.25,1.38,-2.19,39.34,1.78
88.00,2.00,245.44,-27.00,18.38,2.69,-9.50,10.75,39.34,1.78
88.00,0.00,237.12,15.50,-128.00,68.69,9.56,21.12,42.00,1.80
88.00,1.00,239.06,-4.94,-68.25,0.94,0.81,-2.88,42.00,1.80
88.00,2.00,245.25,-26.88,18.19,1.38,-8.88,10.94,42.00,1.80
88.00,0.00,235.50,15.88,-129.31,66.31,9.19,18.25,44.50,1.82
88.00,1.00,239.06,-4.94,-68.25,0.50,1.81,-1.06,44.50,1.82
88.00,2.00,245.00,-26.69,18.00,3.19,-11.12,11.19,44.50,1.82
88.00,0.00,233.94,16.25,-130.62,65.94,8.06,16.12,46.98,1.84
88.00,1.00,239.06,-4.94,-68.31,0.38,2.44,-0.94,46.98,1.84
88.00,2.00,244.69,-26.56,17.75,3.25,-12.69,13.44,46.98,1.84
88.00,0.00,232.38,16.56,-131.94,66.75,8.12,15.88,49.58,1.86
88.00,1.00,239.00,-5.00,-68.31,1.88,2.31,-1.12,49.58,1.86
88.00,2.00,244.44,-26.38,17.56,1.00,-12.25,13.88,49.58,1.86
88.00,0.00,230.75,16.88,-133.25,67.69,4.94,15.62,52.21,1.88
88.00,1.00,239.00,-5.00,-68.38,1.88,2.25,-0.88,52.21,1.88
88.00,2.00,244.12,-26.25,17.38,1.06,-11.19,13.50,52.21,1.88
88.00,0.00,229.19,17.12,-134.62,67.25,3.56,15.31,54.76,1.90
88.00,1.00,239.00,-5.06,-68.38,1.62,1.94,-1.62,54.76,1.90
88.00,2.00,243.88,-26.06,17.19,2.88,-10.31,12.94,54.76,1.90
88.00,0.00,227.62,17.38,-135.94,65.56,1.75,13.75,57.22,1.92
88.00,1.00,239.00,-5.12,-68.44,1.94,1.69,-2.50,57.22,1.92
88.00,2.00,243.62,-25.94,17.00,3.38,-9.75,11.94,57.22,1.92
88.00,0.00,226.12,17.56,-137.25,63.44,1.06,11.31,59.65,1.94
88.00,1.00,239.06,-5.12,-68.44,0.06,2.88,-2.12,59.65,1.94
88.00,2.00,243.38,-25.81,16.81,2.12,-9.31,11.94,59.65,1.94
88.00,0.00,96.12,17.69,-138.44,61.12,-0.12,9.06,62.07,1.96
88.00,1.00,239.06,-5.19,-68.50,0.12,2.44,-1.56,62.07,1.96
88.00,2.00,243.12,-25.69,16.69,-0.25,-9.69,12.44,62.07,1.96
88.00,0.00,96.06,17.75,-139.69,60.19,-0.50,7.56,64.40,1.98
88.00,1.00,239.06,-5.25,-68.50,0.12,2.31,-2.12,64.40,1.98
88.00,2.00,242.81,-25.56,16.50,1.31,-10.69,12.50,64.40,1.98
88.00,0.00,96.00,17.81,-140.88,60.38,-1.44,7.25,66.69,2.00
88.00,1.00,239.06,-5.31,-68.50,0.38,2.25,-3.12,66.69,2.00
88.00,2.00,242.56,-25.44,16.31,2.62,-8.81,12.88,66.69,2.00
88.00,0.00,95.94,17.94,-142.12,61.38,-0.44,8.12,69.00,2.02
88.00,1.00,239.06,-5.38,-68.50,1.31,2.44,-3.44,69.00,2.02
88.00,2.00,242.31,-25.38,16.12,2.88,-8.50,13.12,69.00,2.02
88.00,0.00,95.94,18.06,-143.31,60.75,1.56,8.69,71.32,2.04
88.00,1.00,239.12,-5.44,-68.50,-1.50,3.62,-3.19,71.32,2.04
88.00,2.00,242.06,-25.25,15.94,2.19,-8.06,12.44,71.32,2.04
88.00,0.00,95.88,18.19,-144.50,57.38,3.19,7.56,73.50,2.06
88.00,1.00,239.12,-5.56,-68.50,-0.75,2.88,-3.12,73.50,2.06
88.00,2.00,241.81,-25.12,15.75,2.31,-7.81,11.50,73.50,2.06
88.00,0.00,95.75,18.31,-145.62,55.88,3.88,6.88,75.66,2.08
88.00,1.00,239.12,-5.62,-68.50,-0.38,2.81,-3.50,75.66,2.08
88.00,2.00,241.62,-25.06,15.62,1.06,-7.38,10.62,75.66,2.08
88.00,0.00,95.69,18.44,-146.69,54.25,4.81,6.38,77.81,2.10
88.00,1.00,239.19,-5.69,-68.50,-1.75,3.25,-3.31,77.81,2.10
88.00,2.00,241.38,-24.94,15.50,0.12,-7.75,8.25,77.81,2.10
88.00,0.00,95.62,18.56,-147.75,55.25,3.19,6.69,79.97,2.12
88.00,1.00,239.19,-5.75,-68.44,-0.56,2.62,-2.81,79.97,2.12
88.00,2.00,241.19,-24.81,15.38,0.56,-8.69,11.00,79.97,2.12
88.00,0.00,95.50,18.69,-148.88,55.62,3.56,6.38,82.14,2.14
88.00,1.00,239.19,-5.81,-68.44,-1.19,3.56,-2.19,82.14,2.14
88.00,2.00,240.94,-24.69,15.19,0.81,-10.31,12.38,82.14,2.14
88.00,0.00,95.50,18.75,-149.44,54.38,3.38,5.06,84.28,2.16
88.00,1.00,239.12,-5.88,-68.44,-2.62,3.69,-1.75,84.28,2.16
88.00,2.00,240.69,-24.50,15.06,0.31,-10.88,12.62,84.28,2.16
88.00,0.00,95.38,18.88,-150.50,52.06,3.06,3.31,86.32,2.18
88.00,1.00,239.12,-5.94,-68.38,-0.88,3.62,-1.25,86.32,2.18
88.00,2.00,240.38,-24.38,14.88,0.31,-10.88,12.75,86.32,2.18
88.00,0.00,95.19,18.94,-151.38,48.69,2.88,1.56,88.21,2.20
88.00,1.00,239.06,-5.94,-68.44,0.31,3.88,-0.81,88.21,2.20
88.00,2.00,240.12,-24.19,14.75,1.06,-12.75,13.38,88.21,2.20
88.00,0.00,95.06,19.00,-152.31,46.62,4.38,1.25,90.05,2.22
88.00,1.00,239.06,-6.00,-68.44,-1.12,4.69,-0.25,90.05,2.22
88.00,2.00,239.81,-24.00,14.56,0.12,-13.19,14.12,90.05,2.22
88.00,0.00,94.88,19.06,-153.25,47.00,4.88,2.19,91.92,2.24
88.00,1.00,239.00,-6.00,-68.38,-0.69,4.06,0.69,91.92,2.24
88.00,2.00,239.50,-23.81,14.44,-0.44,-13.19,13.75,91.92,2.24
88.00,0.00,94.75,19.19,-154.12,45.75,6.88,2.31,93.72,2.26
88.00,1.00,238.88,-6.00,-68.44,0.81,3.81,0.88,93.72,2.26
88.00,2.00,239.19,-23.62,14.25,0.38,-14.12,13.88,93.72,2.26
88.00,0.00,94.62,19.31,-155.00,43.75,8.25,2.00,95.49,2.28
88.00,1.00,238.81,-6.00,-68.44,-0.56,4.12,1.81,95.49,2.28
88.00,2.00,238.88,-23.38,14.12,-0.94,-14.31,13.38,95.49,2.28
88.00,0.00,94.44,19.50,-155.56,38.62,6.94,1.00,97.09,2.30
88.00,1.00,238.69,-6.00,-68.44,-0.88,4.56,2.44,97.09,2.30
88.00,2.00,238.62,-23.19,14.00,-2.00,-14.44,12.44,97.09,2.30
88.00,0.00,94.25,19.56,-156.06,37.38,7.75,0.50,98.70,2.32
88.00,1.00,238.62,-6.00,-68.44,-0.94,3.62,2.69,98.70,2.32
88.00,2.00,238.31,-22.94,13.94,-3.19,-15.38,12.00,98.70,2.32
88.00,0.00,94.12,19.75,-156.81,36.94,7.88,0.94,100.32,2.34
88.00,1.00,238.50,-5.94,-68.44,-0.88,3.12,2.19,100.32,2.34
88.00,2.00,238.06,-22.69,13.94,-4.12,-16.06,11.62,100.32,2.34
88.00,0.00,94.00,19.88,-157.50,35.12,9.94,1.44,101.87,2.36
88.00,1.00,238.44,-5.94,-68.38,-1.38,2.38,1.69,101.87,2.36
88.00,2.00,237.81,-22.44,13.94,-3.94,-14.56,9.56,101.87,2.36
88.00,0.00,93.81,20.06,-158.12,34.88,8.81,0.69,103.40,2.38
88.00,1.00,238.38,-5.94,-68.38,-0.88,0.75,1.06,103.40,2.38
88.00,2.00,237.62,-22.25,13.94,-3.88,-12.75,8.75,103.40,2.38
88.00,0.00,93.62,20.12,-158.56,33.94,6.44,-1.50,104.80,2.40
88.00,1.00,238.44,-5.94,-68.38,-1.31,-0.62,-0.44,104.80,2.40
88.00,2.00,237.38,-22.00,13.94,-1.56,-13.06,8.44,104.80,2.42
88.00,0.00,93.44,20.25,-159.19,35.69,6.31,-0.94,106.22,2.42
88.00,1.00,238.44,-5.94,-68.31,-0.69,-0.38,-1.50,106.22,2.42
88.00,2.00,237.25,-21.81,13.88,-0.06,-13.19,7.56,106.22,2.42
88.00,0.00,93.31,20.31,-159.88,35.38,7.25,-0.69,107.67,2.44
88.00,1.00,238.44,-6.00,-68.31,-0.94,0.00,-1.25,107.67,2.44
88.00,2.00,237.06,-21.56,13.81,-1.19,-12.19,6.25,107.67,2.44
88.00,0.00,93.12,20.50,-160.50,33.62,7.69,-0.88,109.07,2.46
88.00,1.00,238.50,-6.00,-68.25,-1.25,-1.12,-1.44,109.07,2.46
88.00,2.00,236.94,-21.38,13.75,-1.94,-11.38,5.50,109.07,2.48
88.00,0.00,92.94,20.56,-160.94,30.56,7.38,-2.12,110.33,2.48
88.00,1.00,238.56,-6.00,-68.25,-0.94,-1.81,-2.06,110.33,2.48
88.00,2.00,236.81,-21.19,13.75,-1.31,-10.75,5.38,110.33,2.48
88.00,0.00,92.75,20.69,-161.38,28.50,7.31,-2.88,111.49,2.50
88.00,1.00,238.62,-6.06,-68.25,-0.81,-1.75,-2.12,111.49,2.50
88.00,2.00,236.69,-21.00,13.69,-0.69,-10.81,4.56,111.49,2.52
88.00,0.00,92.56,20.81,-161.88,25.25,8.75,-3.06,112.57,2.52
88.00,1.00,238.69,-6.06,-68.19,-1.94,-1.38,-1.62,112.57,2.52
88.00,2.00,236.56,-20.81,13.69,-2.19,-9.75,3.81,112.57,2.52
88.00,0.00,92.38,21.00,-162.31,23.88,9.12,-3.12,113.55,2.54
88.00,1.00,238.75,-6.06,-68.19,-1.12,-2.38,-1.56,113.55,2.54
88.00,2.00,236.50,-20.69,13.69,-0.94,-9.19,3.69,113.55,2.54
88.00,0.00,92.19,21.19,-162.62,20.06,10.81,-3.94,114.34,2.56
88.00,1.00,238.81,-6.12,-68.12,0.50,-2.56,-1.69,114.34,2.56
88.00,2.00,236.38,-20.50,13.62,0.31,-9.69,4.62,114.34,2.58
88.00,0.00,92.00,21.31,-162.88,17.69,11.06,-4.00,115.05,2.58
88.00,1.00,238.81,-6.12,-68.12,0.62,-0.75,-1.31,115.05,2.58
88.00,2.00,236.25,-20.31,13.56,-0.38,-8.56,4.50,115.05,2.58
88.00,0.00,91.81,21.56,-163.19,16.19,11.94,-3.94,115.74,2.60
88.00,1.00,238.81,-6.12,-68.19,-0.50,-0.06,-0.12,115.74,2.60
88.00,2.00,236.12,-20.19,13.50,-1.12,-7.50,4.00,115.74,2.62
88.00,0.00,91.69,21.75,-163.38,11.00,11.75,-3.81,116.22,2.62
88.00,1.00,238.81,-6.12,-68.19,-0.50,-0.06,0.75,116.22,2.62
88.00,2.00,236.06,-20.06,13.50,-1.25,-7.25,5.31,116.22,2.62
88.00,0.00,91.50,21.94,-163.44,9.00,10.94,-3.75,116.61,2.64
88.00,1.00,238.81,-6.06,-68.19,-0.19,1.12,0.75,116.61,2.64
88.00,2.00,235.88,-19.88,13.44,-0.94,-7.69,6.50,116.61,2.64
88.00,0.00,91.38,22.12,-163.50,5.25,10.50,-3.50,116.82,2.66
88.00,1.00,238.75,-6.06,-68.19,-0.56,2.19,1.38,116.82,2.66
88.00,2.00,235.75,-19.75,13.38,0.00,-6.56,6.00,116.82,2.68
88.00,0.00,91.31,22.31,-163.50,2.94,9.31,-2.88,116.95,2.68
88.00,1.00,238.69,-6.06,-68.19,-0.25,2.75,2.19,116.95,2.68
88.00,2.00,235.62,-19.62,13.31,-0.44,-6.19,5.81,116.95,2.68
88.00,0.00,91.25,22.50,-163.50,2.06,10.00,-1.56,117.08,2.70
88.00,1.00,238.62,-6.00,-68.19,-0.25,2.44,2.12,117.08,2.70
88.00,2.00,235.50,-19.56,13.31,-1.12,-5.31,5.81,117.08,2.72
88.00,0.00,91.19,22.69,-163.44,0.12,9.69,-0.62,117.11,2.72
88.00,1.00,238.50,-6.00,-68.19,-1.50,3.56,1.62,117.11,2.72
88.00,2.00,235.44,-19.44,13.25,-0.56,-4.44,4.62,117.11,2.72
88.00,0.00,91.12,22.81,-163.44,-1.12,7.75,-0.19,117.08,2.74
88.00,1.00,238.44,-6.00,-68.12,-2.12,3.94,1.94,117.08,2.74
88.00,2.00,235.31,-19.38,13.25,-0.50,-3.31,3.94,117.08,2.74
88.00,0.00,91.12,22.88,-163.38,-1.44,5.75,0.06,117.02,2.76
88.00,1.00,238.31,-6.00,-68.12,-0.88,3.69,2.06,117.02,2.76
88.00,2.00,235.25,-19.31,13.19,0.12,-4.31,4.75,117.02,2.76
88.00,0.00,91.12,23.00,-163.31,-1.25,4.31,0.25,117.00,2.78
88.00,1.00,238.25,-6.00,-68.12,-0.56,3.69,1.75,117.00,2.78
88.00,2.00,235.12,-19.19,13.19,-0.62,-4.75,4.19,117.00,2.78
88.00,0.00,91.12,23.06,-163.31,-0.06,4.31,0.25,117.02,2.80
88.00,1.00,238.19,-6.00,-68.12,-0.62,2.88,1.38,117.02,2.80
88.00,2.00,235.06,-19.12,13.19,-0.62,-3.12,3.69,117.02,2.80
88.00,0.00,91.12,23.12,-163.31,2.00,4.12,-0.38,117.08,2.82
88.00,1.00,238.12,-5.94,-68.12,0.12,2.19,1.25,117.08,2.82
88.00,2.00,235.00,-19.06,13.12,0.44,-3.00,4.00,117.08,2.82
88.00,0.00,91.06,23.19,-163.38,3.31,4.44,-0.81,117.17,2.84
88.00,1.00,238.06,-5.94,-68.12,0.38,2.50,1.38,117.17,2.84
88.00,2.00,234.88,-19.00,13.06,1.12,-3.12,4.31,117.17,2.84
88.00,0.00,91.00,23.31,-163.38,3.38,4.94,-1.06,117.28,2.86
88.00,1.00,238.00,-5.94,-68.12,0.44,2.69,1.44,117.28,2.86
88.00,2.00,234.81,-18.94,13.06,0.44,-3.00,3.88,117.28,2.86
88.00,0.00,90.94,23.38,-163.44,2.50,5.31,-2.19,117.37,2.88
88.00,1.00,237.94,-5.94,-68.19,-0.12,2.88,1.81,117.37,2.88
88.00,2.00,234.75,-18.94,13.00,0.25,-2.50,3.75,117.37,2.88
88.00,0.00,90.88,23.44,-163.38,0.62,5.69,-3.25,117.39,2.90
88.00,1.00,237.88,-5.94,-68.19,-0.44,3.38,2.25,117.39,2.90
88.00,2.00,234.62,-18.88,12.94,0.19,-2.62,4.19,117.39,2.90
88.00,0.00,90.75,23.50,-163.31,-1.75,5.12,-4.12,117.36,2.92
88.00,1.00,237.75,-5.94,-68.19,-0.75,4.12,2.44,117.36,2.92
88.00,2.00,234.56,-18.81,12.94,-0.94,-2.12,4.12,117.36,2.92
88.00,0.00,90.69,23.56,-163.19,-3.69,4.31,-5.25,117.29,2.94
88.00,1.00,237.62,-5.88,-68.12,-1.81,4.06,2.69,117.29,2.94
88.00,2.00,234.50,-18.75,12.94,-2.06,-1.88,3.94,117.29,2.94
88.00,0.00,90.56,23.62,-163.06,-4.00,4.25,-5.50,117.21,2.96
88.00,1.00,237.56,-5.88,-68.12,-1.94,3.94,2.50,117.21,2.96
88.00,2.00,234.38,-18.75,12.94,-2.00,-1.44,4.25,117.21,2.96
88.00,0.00,90.50,23.62,-162.88,-4.56,3.75,-5.94,117.11,2.98
88.00,1.00,237.44,-5.88,-68.12,-1.56,3.38,2.44,117.11,2.98
88.00,2.00,234.31,-18.69,12.94,-2.00,-0.50,4.50,117.11,2.98
88.00,0.00,90.38,23.69,-162.75,-5.19,3.38,-5.19,117.00,3.00
88.00,1.00,237.31,-5.88,-68.06,-2.38,4.19,2.69,117.00,3.00
88.00,2.00,234.19,-18.69,12.94,-2.44,0.31,4.19,117.00,3.00
88.00,0.00,90.31,23.69,-162.62,-4.81,2.88,-4.81,116.90,3.02
88.00,1.00,237.25,-5.81,-68.06,-1.75,4.00,2.56,116.90,3.02
88.00,2.00,234.12,-18.75,12.94,-2.12,0.75,3.81,116.90,3.02
88.00,0.00,90.25,23.75,-162.50,-4.50,1.31,-3.56,116.80,3.04
88.00,1.00,237.12,-5.81,-68.00,-1.25,4.00,2.31,116.80,3.04
88.00,2.00,234.06,-18.75,12.94,-2.00,0.62,3.31,116.80,3.04
88.00,0.00,90.19,23.75,-162.38,-4.38,0.19,-2.12,116.70,3.06
88.00,1.00,237.00,-5.81,-68.00,-2.56,4.50,2.12,116.70,3.06
88.00,2.00,234.00,-18.75,13.00,-1.94,0.94,2.31,116.70,3.06
88.00,0.00,90.19,23.69,-162.25,-4.56,0.38,-0.88,116.63,3.08
88.00,1.00,236.94,-5.81,-67.94,-2.69,3.69,1.81,116.63,3.08
88.00,2.00,233.94,-18.75,13.06,-2.62,1.00,1.81,116.63,3.08
88.00,0.00,90.19,23.75,-162.19,-5.06,1.06,0.06,116.49,3.10
88.00,1.00,236.88,-5.81,-67.88,-1.88,2.56,1.25,116.49,3.10
88.00,2.00,233.94,-18.75,13.06,-1.69,0.62,1.44,116.49,3.10
88.00,0.00,90.25,23.75,-162.06,-4.62,2.12,1.06,116.31,3.12
88.00,1.00,236.81,-5.81,-67.88,-1.94,2.12,0.62,116.31,3.12
88.00,2.00,233.88,-18.75,13.06,-0.12,0.12,0.81,116.31,3.12
88.00,0.00,90.31,23.88,-162.00,-4.75,2.69,1.94,116.14,3.14
88.00,1.00,236.75,-5.81,-67.81,-2.25,2.38,0.62,116.14,3.14
88.00,2.00,233.88,-18.75,13.06,-0.31,-0.25,0.94,116.14,3.14
88.00,0.00,90.31,23.94,-161.94,-4.31,3.00,2.19,116.02,3.16
88.00,1.00,236.75,-5.81,-67.81,-2.19,1.88,0.88,116.02,3.16
88.00,2.00,233.88,-18.75,13.06,-1.31,-0.19,0.88,116.02,3.16
88.00,0.00,90.38,24.00,-161.88,-4.44,3.06,2.31,115.90,3.18
88.00,1.00,236.69,-5.81,-67.75,-2.38,1.62,1.19,115.90,3.18
88.00,2.00,233.81,-18.75,13.06,-1.38,-1.06,1.19,115.90,3.18
88.00,0.00,90.44,24.06,-161.75,-4.31,3.25,2.25,115.77,3.20
88.00,1.00,236.62,-5.81,-67.69,-2.25,1.75,0.81,115.77,3.20
88.00,2.00,233.81,-18.69,13.12,-1.19,-1.06,0.94,115.77,3.20
88.00,0.00,90.50,24.12,-161.69,-3.50,3.38,2.00,115.67,3.22
88.00,1.00,236.62,-5.81,-67.69,-2.25,1.56,0.69,115.67,3.22
88.00,2.00,233.81,-18.69,13.12,-0.81,-0.75,0.69,115.67,3.22
88.00,0.00,90.50,24.19,-161.62,-2.88,3.69,0.56,115.59,3.24
88.00,1.00,236.56,-5.81,-67.62,-2.31,1.44,1.00,115.59,3.24
88.00,2.00,233.75,-18.62,13.12,-0.94,-1.06,1.00,115.59,3.24
88.00,0.00,90.50,24.25,-161.56,-2.44,4.00,-0.56,115.56,3.26
88.00,1.00,236.50,-5.75,-67.56,-2.62,1.56,1.69,115.56,3.26
88.00,2.00,233.75,-18.56,13.12,-1.62,-0.94,1.19,115.56,3.26
88.00,0.00,90.44,24.31,-161.50,-2.56,4.69,-2.19,115.55,3.28
88.00,1.00,236.50,-5.75,-67.56,-3.00,1.94,1.56,115.55,3.28
88.00,2.00,233.69,-18.56,13.19,-2.31,-0.50,1.38,115.55,3.28
88.00,0.00,90.38,24.38,-161.44,-1.12,3.12,-2.62,115.59,3.30
88.00,1.00,236.44,-5.75,-67.50,-2.62,1.62,1.25,115.59,3.30
88.00,2.00,233.69,-18.56,13.19,-2.12,-0.75,1.75,115.59,3.30
88.00,0.00,90.38,24.44,-161.38,-0.56,4.25,-1.19,115.65,3.32
88.00,1.00,236.38,-5.75,-67.44,-2.62,1.56,1.25,115.65,3.32
88.00,2.00,233.62,-18.56,13.25,-2.12,0.19,1.81,115.65,3.32
88.00,0.00,90.31,24.50,-161.31,-0.94,3.44,-1.38,115.69,3.34
88.00,1.00,236.31,-5.75,-67.44,-2.62,1.69,0.94,115.69,3.34
88.00,2.00,233.56,-18.56,13.25,-1.94,0.62,2.25,115.69,3.34
88.00,0.00,90.31,24.50,-161.31,-0.81,2.38,-1.50,115.72,3.36
88.00,1.00,236.25,-5.75,-67.38,-2.06,1.88,0.81,115.72,3.36
88.00,2.00,233.50,-18.56,13.31,-1.50,0.25,2.44,115.72,3.36
88.00,0.00,90.25,24.56,-161.25,-0.94,1.69,-1.25,115.74,3.38
88.00,1.00,236.25,-5.75,-67.31,-1.75,2.62,0.88,115.74,3.38
88.00,2.00,233.50,-18.56,13.31,-1.56,0.81,2.50,115.74,3.38
88.00,0.00,90.25,24.56,-161.25,-1.31,0.38,-0.75,115.76,3.40
88.00,1.00,236.19,-5.75,-67.31,-2.12,2.75,1.06,115.76,3.40
88.00,2.00,233.44,-18.56,13.31,-1.75,1.31,2.31,115.76,3.40
88.00,0.00,90.25,24.56,-161.19,-1.50,0.00,-0.19,115.77,3.42
88.00,1.00,236.12,-5.75,-67.25,-1.94,2.62,0.94,115.77,3.42
88.00,2.00,233.38,-18.62,13.38,-1.69,1.12,2.25,115.77,3.42
88.00,0.00,90.25,24.56,-161.12,-1.88,-0.25,0.44,115.74,3.44
88.00,1.00,236.06,-5.75,-67.25,-1.44,2.56,0.75,115.74,3.44
88.00,2.00,233.38,-18.62,13.38,-1.19,1.75,1.56,115.74,3.44
88.00,0.00,90.31,24.56,-161.12,-2.00,-0.50,1.56,115.69,3.46
88.00,1.00,236.00,-5.75,-67.19,-1.81,2.25,0.69,115.69,3.46
88.00,2.00,233.38,-18.69,13.38,-0.69,1.62,0.38,115.69,3.46
88.00,0.00,90.31,24.56,-161.06,-1.69,0.62,1.94,115.64,3.48
88.00,1.00,236.00,-5.75,-67.19,-1.69,2.00,0.62,115.64,3.48
88.00,2.00,233.38,-18.69,13.38,-0.38,1.19,0.50,115.64,3.48
88.00,0.00,90.38,24.62,-161.06,-1.44,1.69,1.81,115.62,3.50
88.00,1.00,235.94,-5.75,-67.19,-1.44,1.94,0.75,115.62,3.50
88.00,2.00,233.38,-18.69,13.44,-0.94,0.62,0.50,115.62,3.50
88.00,0.00,90.38,24.69,-161.06,-1.38,2.06,1.50,115.62,3.52
88.00,1.00,235.88,-5.75,-67.12,-1.25,1.50,0.88,115.62,3.52
88.00,2.00,233.38,-18.69,13.44,-1.56,1.12,0.12,115.62,3.52
88.00,0.00,90.44,24.69,-161.00,-1.75,2.19,1.25,115.56,3.54
88.00,1.00,235.88,-5.75,-67.12,-0.50,0.75,-0.19,115.56,3.54
88.00,2.00,233.38,-18.75,13.44,-0.06,0.94,0.00,115.56,3.54
88.00,0.00,90.44,24.75,-161.00,-1.81,2.38,1.25,115.47,3.56
88.00,1.00,235.88,-5.75,-67.12,-0.44,0.88,-0.31,115.47,3.56
88.00,2.00,233.38,-18.75,13.44,0.44,1.19,0.25,115.47,3.56
88.00,0.00,90.50,24.81,-160.94,-1.44,2.38,1.25,115.42,3.58
88.00,1.00,235.81,-5.75,-67.12,-1.00,1.19,-0.06,115.42,3.58
88.00,2.00,233.38,-18.75,13.50,-0.31,1.25,0.44,115.42,3.58
88.00,0.00,90.50,24.88,-160.94,-1.06,2.38,1.19,115.38,3.60
88.00,1.00,235.81,-5.75,-67.12,-0.31,0.56,0.06,115.38,3.60
88.00,2.00,233.38,-18.75,13.44,0.12,0.44,0.81,115.38,3.60
88.00,0.00,90.50,24.88,-160.88,-1.31,1.81,0.69,115.31,3.62
88.00,1.00,235.81,-5.75,-67.12,0.19,0.50,0.06,115.31,3.62
88.00,2.00,233.31,-18.75,13.44,0.31,0.25,1.06,115.31,3.62
88.00,0.00,90.50,24.94,-160.88,-0.81,1.69,0.50,115.30,3.64
88.00,1.00,235.81,-5.75,-67.12,-0.44,0.81,0.06,115.30,3.64
88.00,2.00,233.31,-18.75,13.44,-0.44,0.50,1.12,115.30,3.64
88.00,0.00,90.50,24.94,-160.88,-0.75,1.38,0.19,115.30,3.66
88.00,1.00,235.81,-5.81,-67.12,-0.88,0.56,0.19,115.30,3.66
88.00,2.00,233.31,-18.75,13.44,-0.75,0.62,1.00,115.30,3.66
88.00,0.00,90.50,24.94,-160.88,-0.50,1.44,-0.38,115.32,3.68
88.00,1.00,235.81,-5.81,-67.06,-0.50,0.19,0.00,115.32,3.68
88.00,2.00,233.25,-18.75,13.50,-1.19,0.38,1.12,115.32,3.68
88.00,0.00,90.50,24.94,-160.81,-0.25,1.06,-0.81,115.34,3.70
88.00,1.00,235.81,-5.81,-67.06,0.31,-0.25,-0.25,115.34,3.70
88.00,2.00,233.25,-18.75,13.50,-0.62,0.38,0.94,115.34,3.70
88.00,0.00,90.44,25.00,-160.81,0.12,0.44,-0.94,115.34,3.72
88.00,1.00,235.81,-5.81,-67.06,0.44,-0.06,-0.12,115.34,3.72
88.00,2.00,233.25,-18.75,13.50,0.19,0.81,0.62,115.34,3.72
88.00,0.00,90.44,24.94,-160.81,0.25,0.25,-0.69,115.30,3.74
88.00,1.00,235.81,-5.81,-67.06,0.62,-0.56,-0.25,115.30,3.74
88.00,2.00,233.25,-18.75,13.50,1.25,1.00,0.00,115.30,3.74
88.00,0.00,90.44,24.94,-160.81,-0.06,0.50,0.00,115.27,3.76
88.00,1.00,235.81,-5.75,-67.12,0.94,-0.81,-0.19,115.27,3.76
88.00,2.00,233.25,-18.75,13.44,0.75,0.12,-0.19,115.27,3.76
88.00,0.00,90.44,24.94,-160.81,-0.31,1.00,0.88,115.26,3.78
88.00,1.00,235.81,-5.75,-67.12,0.56,-0.88,-0.06,115.26,3.78
88.00,2.00,233.25,-18.75,13.44,-0.12,-0.56,-0.31,115.26,3.78
88.00,0.00,90.44,25.00,-160.81,-0.38,1.25,1.44,115.26,3.80
88.00,1.00,235.81,-5.75,-67.12,0.56,-0.94,-0.06,115.26,3.80
88.00,2.00,233.25,-18.75,13.44,-0.38,-0.12,-0.94,115.26,3.80
