Iteration,IMUNo,OrientationX (deg),OrientationY,OrientationZ,GyroX (20rad/sec),GyroY,GyroZ,Elbow_Pos (rad),Time (sec)
42.00,0.00,245.81,5.19,-98.38,-1.06,0.06,-0.06,-0.02,1.02
42.00,1.00,256.81,2.56,-65.69,-1.12,0.06,-0.31,-0.02,1.02
42.00,2.00,343.19,-24.81,4.81,-0.31,0.19,-1.12,-0.02,1.02
42.00,0.00,245.81,5.19,-98.38,-1.62,-1.94,0.19,-0.07,1.04
42.00,1.00,256.75,2.56,-65.69,-0.69,0.69,-0.38,-0.07,1.04
42.00,2.00,343.19,-24.81,4.81,-0.12,0.00,-0.62,-0.07,1.04
42.00,0.00,245.88,5.19,-98.31,-2.81,-3.50,0.94,-0.14,1.06
42.00,1.00,256.75,2.56,-65.69,-1.31,1.62,0.06,-0.14,1.06
42.00,2.00,343.19,-24.81,4.75,-0.25,-0.06,-0.12,-0.14,1.06
42.00,0.00,245.94,5.19,-98.25,-5.00,-3.88,-0.19,-0.27,1.08
42.00,1.00,256.75,2.56,-65.62,-2.31,2.44,0.19,-0.27,1.08
42.00,2.00,343.19,-24.81,4.69,-0.56,-0.44,0.06,-0.27,1.08
42.00,0.00,246.06,5.12,-98.19,-5.31,-3.94,-1.88,-0.39,1.10
42.00,1.00,256.69,2.50,-65.56,-2.44,2.44,0.38,-0.39,1.10
42.00,2.00,343.19,-24.81,4.69,-1.25,-0.69,-0.19,-0.39,1.10
42.00,0.00,246.19,5.06,-98.06,-5.19,-4.44,-2.19,-0.48,1.12
42.00,1.00,256.69,2.50,-65.56,-3.50,3.12,0.75,-0.48,1.12
42.00,2.00,343.12,-24.81,4.62,-2.44,0.06,-0.12,-0.48,1.12
42.00,0.00,246.38,5.06,-98.00,-5.56,-3.81,-2.12,-0.53,1.14
42.00,1.00,256.62,2.50,-65.50,-5.00,3.88,1.38,-0.53,1.14
42.00,2.00,343.12,-24.81,4.69,-3.81,-0.06,0.19,-0.53,1.14
42.00,0.00,246.44,5.00,-97.88,-6.00,-3.31,-2.12,-0.56,1.16
42.00,1.00,256.56,2.50,-65.44,-5.50,4.00,1.69,-0.56,1.16
42.00,2.00,343.06,-24.81,4.75,-4.81,-0.62,0.62,-0.56,1.16
42.00,0.00,246.56,4.94,-97.81,-7.00,-2.00,-1.81,-0.61,1.18
42.00,1.00,256.44,2.50,-65.31,-5.69,3.69,1.94,-0.61,1.18
42.00,2.00,343.06,-24.81,4.81,-5.44,-0.88,0.44,-0.61,1.18
42.00,0.00,246.62,4.94,-97.69,-6.62,-1.56,-1.44,-0.69,1.20
42.00,1.00,256.44,2.50,-65.25,-6.50,4.00,1.88,-0.69,1.20
42.00,2.00,343.06,-24.75,4.88,-3.75,-0.94,0.06,-0.69,1.20
42.00,0.00,246.62,4.94,-97.62,-6.69,-0.38,-1.00,-0.90,1.22
42.00,1.00,256.31,2.50,-65.06,-7.75,5.06,1.62,-0.90,1.22
42.00,2.00,343.00,-24.75,4.81,0.25,0.38,0.31,-0.90,1.22
42.00,0.00,246.62,5.00,-97.50,-7.00,-0.81,-1.12,-1.12,1.24
42.00,1.00,256.19,2.44,-64.94,-8.81,6.00,2.00,-1.12,1.24
42.00,2.00,343.00,-24.81,4.75,0.38,2.19,1.00,-1.12,1.24
42.00,0.00,246.69,4.94,-97.38,-6.69,-1.81,-0.56,-1.36,1.26
42.00,1.00,256.12,2.44,-64.88,-10.56,7.31,2.62,-1.36,1.26
42.00,2.00,343.00,-24.88,4.75,1.62,3.31,1.94,-1.36,1.26
42.00,0.00,246.69,5.00,-97.25,-5.94,-1.62,1.81,-1.69,1.28
42.00,1.00,255.88,2.44,-64.56,-13.88,9.00,3.12,-1.69,1.28
42.00,2.00,342.94,-24.88,4.62,4.88,-0.56,4.19,-1.69,1.28
42.00,0.00,246.62,5.06,-97.19,-4.75,2.38,3.56,-1.87,1.30
42.00,1.00,255.81,2.44,-64.44,-13.25,9.50,3.50,-1.87,1.30
42.00,2.00,342.75,-24.94,4.38,1.62,-1.12,7.06,-1.87,1.30
42.00,0.00,246.38,5.19,-97.06,-3.69,9.31,7.19,-1.83,1.32
42.00,1.00,255.50,2.44,-64.12,-13.00,10.50,4.75,-1.83,1.32
42.00,2.00,342.56,-24.94,4.12,-5.12,-1.69,9.94,-1.83,1.32
42.00,0.00,245.81,5.44,-97.00,-2.06,16.19,11.62,-1.66,1.34
42.00,1.00,255.31,2.44,-63.94,-14.38,10.38,5.94,-1.66,1.34
42.00,2.00,342.19,-25.00,3.88,-7.94,-2.56,12.88,-1.66,1.34
42.00,0.00,245.12,5.75,-96.94,-0.94,20.00,15.62,-1.49,1.36
42.00,1.00,255.19,2.44,-63.81,-15.25,11.25,6.25,-1.49,1.36
42.00,2.00,341.88,-24.94,3.69,-6.50,-3.94,15.00,-1.49,1.36
42.00,0.00,244.31,6.12,-96.94,0.44,20.69,18.75,-1.27,1.38
42.00,1.00,254.75,2.44,-63.44,-17.19,14.81,6.44,-1.27,1.38
42.00,2.00,341.50,-24.94,3.69,-7.12,-1.38,17.81,-1.27,1.38
42.00,0.00,243.50,6.56,-96.94,2.88,19.94,20.56,-0.89,1.40
42.00,1.00,254.56,2.44,-63.31,-16.94,19.00,7.38,-0.89,1.40
42.00,2.00,341.06,-24.94,3.69,-10.06,-0.94,21.06,-0.89,1.40
42.00,0.00,242.56,7.12,-97.50,5.94,17.44,21.25,-0.38,1.42
42.00,1.00,254.19,2.44,-63.00,-17.81,20.00,8.50,-0.38,1.42
42.00,2.00,340.50,-24.94,3.38,-11.25,-1.88,24.69,-0.38,1.42
42.00,0.00,241.75,7.56,-97.88,9.62,14.25,20.81,0.29,1.44
42.00,1.00,253.56,2.44,-62.56,-20.69,21.50,9.81,0.29,1.44
42.00,2.00,339.88,-24.94,3.06,-12.88,0.12,27.38,0.29,1.44
42.00,0.00,241.06,8.00,-98.06,11.00,10.69,20.62,1.20,1.46
42.00,1.00,253.25,2.44,-62.38,-21.56,24.00,10.88,1.20,1.46
42.00,2.00,339.19,-25.00,2.88,-19.62,0.62,29.00,1.20,1.46
42.00,0.00,240.38,8.44,-98.25,12.31,11.38,20.81,2.28,1.48
42.00,1.00,252.44,2.38,-61.69,-22.56,28.88,13.12,2.28,1.48
42.00,2.00,338.50,-25.06,3.06,-24.19,-0.38,30.62,2.28,1.48
42.00,0.00,239.62,8.88,-98.50,16.50,15.31,21.38,3.46,1.50
42.00,1.00,252.12,2.38,-61.50,-23.00,27.88,13.12,3.46,1.50
42.00,2.00,337.81,-25.06,3.25,-23.44,0.00,30.56,3.46,1.50
42.00,0.00,238.69,9.38,-98.88,21.19,19.31,22.12,4.78,1.52
42.00,1.00,251.62,2.38,-61.00,-20.31,26.44,12.06,4.78,1.52
42.00,2.00,337.12,-25.12,3.44,-23.25,2.44,28.50,4.78,1.52
42.00,0.00,237.75,9.88,-99.31,25.19,20.12,23.25,6.15,1.54
42.00,1.00,251.06,2.31,-60.62,-20.38,28.31,11.06,6.15,1.54
42.00,2.00,336.50,-25.25,3.62,-21.00,2.94,26.31,6.15,1.54
42.00,0.00,236.69,10.44,-99.88,30.06,19.62,26.00,7.64,1.56
42.00,1.00,250.56,2.19,-60.19,-20.62,28.62,10.25,7.64,1.56
42.00,2.00,335.94,-25.31,3.81,-20.25,3.75,25.25,7.64,1.56
42.00,0.00,235.62,10.94,-100.44,31.31,20.19,22.44,9.14,1.58
42.00,1.00,250.06,2.12,-59.81,-19.69,27.75,8.25,9.14,1.58
42.00,2.00,335.38,-25.44,3.94,-19.25,5.06,25.06,9.14,1.58
42.00,0.00,234.62,11.38,-101.00,32.94,20.06,20.00,10.70,1.60
42.00,1.00,249.62,1.94,-59.38,-18.81,27.44,7.62,10.70,1.60
42.00,2.00,334.81,-25.56,4.12,-19.94,4.69,24.88,10.70,1.60
42.00,0.00,233.56,11.88,-101.62,33.06,22.31,19.50,12.24,1.62
42.00,1.00,249.19,1.81,-59.00,-19.12,26.12,7.62,12.24,1.62
42.00,2.00,334.25,-25.69,4.31,-18.88,3.88,23.62,12.24,1.62
42.00,0.00,232.50,12.25,-102.19,32.81,24.12,17.06,13.71,1.64
42.00,1.00,248.81,1.69,-58.62,-20.06,25.06,7.44,13.71,1.64
42.00,2.00,333.75,-25.75,4.50,-16.75,3.38,22.19,13.71,1.64
42.00,0.00,231.44,12.62,-102.62,28.75,29.19,13.25,15.09,1.66
42.00,1.00,248.38,1.50,-58.19,-19.81,24.44,7.44,15.09,1.66
42.00,2.00,333.31,-25.81,4.75,-17.62,2.94,22.00,15.09,1.66
42.00,0.00,230.38,12.94,-103.00,30.50,31.50,12.31,16.58,1.68
42.00,1.00,248.00,1.38,-57.81,-19.88,24.88,7.12,16.58,1.68
42.00,2.00,332.81,-25.94,5.06,-19.81,3.19,22.50,16.58,1.68
42.00,0.00,229.25,13.38,-103.62,37.69,24.06,17.00,18.27,1.70
42.00,1.00,247.62,1.25,-57.44,-20.00,24.69,7.06,18.27,1.70
42.00,2.00,332.31,-26.00,5.38,-19.56,4.25,22.81,18.27,1.70
42.00,0.00,228.19,13.75,-104.31,38.25,19.19,15.31,20.01,1.72
42.00,1.00,246.81,1.12,-57.06,-19.00,23.31,6.50,20.01,1.72
42.00,2.00,331.81,-26.12,5.62,-20.31,3.81,21.56,20.01,1.72
42.00,0.00,227.25,14.12,-104.94,35.44,19.88,11.06,21.60,1.74
42.00,1.00,246.44,0.94,-56.69,-17.44,22.00,4.94,21.60,1.74
42.00,2.00,331.31,-26.25,5.81,-18.44,3.81,19.38,21.60,1.74
42.00,0.00,226.38,14.38,-105.44,31.94,22.06,7.94,23.03,1.76
42.00,1.00,246.12,0.81,-56.31,-17.81,20.38,4.06,23.03,1.76
42.00,2.00,330.94,-26.38,6.00,-16.25,6.12,18.38,23.03,1.76
42.00,0.00,225.56,14.62,-106.00,31.44,18.31,6.00,24.39,1.78
42.00,1.00,245.56,0.56,-55.88,-15.94,19.88,2.44,24.39,1.78
42.00,2.00,330.56,-26.56,6.25,-14.31,7.56,17.06,24.39,1.78
42.00,0.00,224.88,14.81,-106.56,33.94,11.75,7.94,25.80,1.80
42.00,1.00,245.38,0.38,-55.44,-15.62,19.38,2.38,25.80,1.80
42.00,2.00,330.25,-26.69,6.75,-13.88,5.94,15.19,25.80,1.80
42.00,0.00,224.19,15.00,-107.19,33.62,11.06,8.06,27.17,1.82
42.00,1.00,244.88,0.12,-55.06,-15.00,17.56,2.00,27.17,1.82
42.00,2.00,329.94,-26.81,6.88,-12.38,4.06,13.31,27.17,1.82
42.00,0.00,223.50,15.19,-107.75,30.31,12.88,4.44,28.36,1.84
42.00,1.00,244.69,0.00,-54.81,-14.38,14.69,1.81,28.36,1.84
42.00,2.00,329.69,-26.94,6.94,-9.88,3.62,11.44,28.36,1.84
42.00,0.00,222.94,15.31,-108.19,27.00,12.38,3.31,29.41,1.86
42.00,1.00,244.56,-0.06,-54.50,-13.25,13.00,1.31,29.41,1.86
42.00,2.00,329.44,-27.06,7.19,-8.38,3.06,11.00,29.41,1.86
42.00,0.00,222.50,15.38,-108.38,23.81,11.88,3.25,30.32,1.88
42.00,1.00,244.25,-0.44,-54.06,-11.19,11.12,1.25,30.32,1.88
42.00,2.00,329.25,-27.19,7.56,-7.06,1.19,10.56,30.32,1.88
42.00,0.00,222.00,15.50,-108.81,23.44,9.81,4.69,31.21,1.90
42.00,1.00,244.25,-0.69,-53.62,-10.44,9.69,1.69,31.21,1.90
42.00,2.00,329.06,-27.25,7.81,-6.44,0.25,10.44,31.21,1.90
42.00,0.00,221.44,15.69,-109.19,21.75,10.06,6.81,32.02,1.92
42.00,1.00,244.00,-0.88,-53.25,-9.56,9.56,2.12,32.02,1.92
42.00,2.00,328.88,-27.31,8.00,-5.81,-0.62,9.81,32.02,1.92
42.00,0.00,220.94,15.88,-109.31,17.81,11.69,6.75,32.69,1.94
42.00,1.00,243.88,-1.00,-53.00,-8.88,9.50,2.62,32.69,1.94
42.00,2.00,328.75,-27.38,8.12,-4.88,0.06,8.75,32.69,1.94
42.00,0.00,220.69,15.94,-109.12,14.12,11.94,7.06,33.24,1.96
42.00,1.00,243.81,-1.19,-52.69,-8.50,9.50,3.06,33.24,1.96
42.00,2.00,328.56,-27.38,8.25,-4.44,0.44,9.19,33.24,1.96
42.00,0.00,220.44,15.94,-109.00,10.31,10.19,6.69,33.68,1.98
42.00,1.00,243.62,-1.25,-52.50,-7.94,9.31,3.56,33.68,1.98
42.00,2.00,328.38,-27.44,8.31,-4.25,0.56,8.75,33.68,1.98
42.00,0.00,220.19,16.06,-108.88,8.94,7.50,7.75,34.05,2.00
42.00,1.00,243.44,-1.38,-52.31,-7.81,9.81,3.88,34.05,2.00
42.00,2.00,328.25,-27.44,8.38,-3.56,-0.06,7.06,34.05,2.00
42.00,0.00,220.06,16.19,-108.94,8.88,4.81,9.75,34.38,2.02
42.00,1.00,243.25,-1.44,-52.12,-6.75,8.75,4.19,34.38,2.02
42.00,2.00,328.12,-27.44,8.50,-2.44,-1.25,6.56,34.38,2.02
42.00,0.00,219.69,16.38,-109.06,6.69,5.38,8.75,34.63,2.04
42.00,1.00,243.06,-1.50,-51.94,-5.50,8.00,4.38,34.63,2.04
42.00,2.00,328.00,-27.44,8.50,-1.56,-0.94,6.62,34.63,2.04
42.00,0.00,219.69,16.56,-109.12,2.94,6.88,6.25,34.76,2.06
42.00,1.00,242.94,-1.56,-51.81,-5.69,7.94,4.56,34.76,2.06
42.00,2.00,327.81,-27.44,8.50,-1.44,-0.19,6.81,34.76,2.06
42.00,0.00,219.44,16.69,-109.12,2.19,5.12,7.50,34.92,2.08
42.00,1.00,242.75,-1.56,-51.69,-5.19,7.69,4.75,34.92,2.08
42.00,2.00,327.69,-27.44,8.44,-3.44,-1.12,7.31,34.92,2.08
42.00,0.00,219.19,16.88,-109.19,3.38,2.62,9.19,35.16,2.10
42.00,1.00,242.62,-1.62,-51.62,-4.56,6.75,4.56,35.16,2.10
42.00,2.00,327.50,-27.44,8.50,-4.56,-2.38,7.00,35.16,2.10
42.00,0.00,219.12,17.06,-109.19,3.12,1.88,9.19,35.35,2.12
42.00,1.00,242.50,-1.62,-51.50,-3.50,5.25,3.94,35.35,2.12
42.00,2.00,327.38,-27.44,8.50,-3.38,-1.19,5.94,35.35,2.12
42.00,0.00,218.88,17.19,-109.19,2.25,1.88,8.56,35.47,2.14
42.00,1.00,242.38,-1.69,-51.44,-3.12,5.06,3.38,35.47,2.14
42.00,2.00,327.25,-27.44,8.50,-1.94,0.12,5.19,35.47,2.14
42.00,0.00,219.06,17.31,-109.19,1.12,-0.94,8.19,35.56,2.16
42.00,1.00,242.25,-1.69,-51.38,-2.94,4.62,3.19,35.56,2.16
42.00,2.00,327.19,-27.44,8.50,-1.69,0.00,4.56,35.56,2.16
42.00,0.00,219.00,17.38,-109.19,1.50,-2.88,8.50,35.63,2.18
42.00,1.00,242.19,-1.69,-51.31,-1.88,4.31,2.81,35.63,2.18
42.00,2.00,327.12,-27.38,8.50,-1.12,-1.44,3.62,35.63,2.18
42.00,0.00,219.06,17.50,-109.25,2.19,-7.25,8.00,35.73,2.20
42.00,1.00,242.12,-1.69,-51.31,-1.81,3.19,2.06,35.73,2.20
42.00,2.00,327.06,-27.38,8.56,-1.19,-1.50,2.12,35.73,2.20
42.00,0.00,219.12,17.56,-109.31,1.12,-8.06,6.88,35.78,2.22
42.00,1.00,242.06,-1.75,-51.25,-1.75,2.38,1.50,35.78,2.22
42.00,2.00,327.00,-27.31,8.56,-0.38,-1.19,1.31,35.78,2.22
42.00,0.00,219.25,17.56,-109.38,-0.25,-8.06,5.94,35.76,2.24
42.00,1.00,242.00,-1.75,-51.25,-1.75,2.25,1.19,35.76,2.24
42.00,2.00,327.00,-27.31,8.56,0.38,-1.25,0.38,35.76,2.24
42.00,0.00,219.44,17.62,-109.44,-0.06,-6.62,5.75,35.73,2.26
42.00,1.00,241.94,-1.75,-51.19,-1.81,1.56,0.81,35.73,2.26
42.00,2.00,327.00,-27.25,8.56,0.81,-0.81,0.06,35.73,2.26
42.00,0.00,219.50,17.69,-109.44,-0.62,-4.31,5.06,35.72,2.28
42.00,1.00,242.00,-1.75,-51.12,-2.25,1.44,0.75,35.72,2.28
42.00,2.00,327.00,-27.25,8.56,-0.19,-0.62,0.12,35.72,2.28
42.00,0.00,219.50,17.75,-109.44,-2.25,-2.19,4.38,35.69,2.30
42.00,1.00,241.94,-1.75,-51.12,-2.38,1.69,0.81,35.69,2.30
42.00,2.00,327.00,-27.25,8.56,-1.12,0.44,0.94,35.69,2.30
42.00,0.00,219.50,17.88,-109.38,-3.44,-0.25,4.56,35.64,2.32
42.00,1.00,241.94,-1.81,-51.06,-2.38,1.81,0.88,35.64,2.32
42.00,2.00,326.94,-27.25,8.56,-1.81,0.69,1.62,35.64,2.32
42.00,0.00,219.44,17.94,-109.31,-4.12,1.19,4.31,35.58,2.34
42.00,1.00,241.88,-1.81,-51.00,-2.44,2.44,1.00,35.58,2.34
42.00,2.00,326.94,-27.25,8.56,-2.19,1.25,1.19,35.58,2.34
42.00,0.00,219.38,18.00,-109.19,-4.69,2.19,2.94,35.53,2.36
42.00,1.00,241.81,-1.81,-50.94,-2.88,2.56,0.94,35.53,2.36
42.00,2.00,326.88,-27.31,8.62,-2.75,1.56,1.56,35.53,2.36
42.00,0.00,219.31,18.06,-109.12,-5.00,2.44,2.00,35.46,2.38
42.00,1.00,241.75,-1.81,-50.94,-2.44,3.12,1.25,35.46,2.38
42.00,2.00,326.81,-27.31,8.62,-2.94,2.56,2.12,35.46,2.38
42.00,0.00,219.31,18.06,-109.00,-5.25,1.44,1.44,35.41,2.40
42.00,1.00,241.69,-1.88,-50.88,-2.75,4.62,1.56,35.41,2.40
42.00,2.00,326.75,-27.38,8.69,-3.56,2.75,2.94,35.41,2.40
42.00,0.00,219.38,18.06,-108.94,-4.75,-0.12,1.19,35.42,2.42
42.00,1.00,241.62,-1.88,-50.81,-2.38,4.69,1.94,35.42,2.42
42.00,2.00,326.69,-27.44,8.75,-4.94,1.88,3.19,35.42,2.42
42.00,0.00,219.50,18.06,-108.81,-4.62,-0.75,0.12,35.44,2.44
42.00,1.00,241.56,-1.94,-50.75,-2.19,4.69,1.81,35.44,2.44
42.00,2.00,326.62,-27.44,8.81,-5.44,2.50,3.12,35.44,2.44
42.00,0.00,219.69,18.00,-108.75,-3.62,-2.44,-1.62,35.47,2.46
42.00,1.00,241.50,-1.94,-50.75,-1.94,5.19,1.25,35.47,2.46
42.00,2.00,326.50,-27.50,8.88,-4.62,3.06,2.88,35.47,2.46
42.00,0.00,219.81,18.00,-108.75,0.31,-4.38,0.56,35.61,2.48
42.00,1.00,241.38,-2.00,-50.69,-1.44,4.56,0.69,35.61,2.48
42.00,2.00,326.44,-27.56,8.94,-4.44,2.19,2.25,35.61,2.48
42.00,0.00,219.88,18.00,-108.75,0.62,-2.38,-1.50,35.73,2.50
42.00,1.00,241.38,-2.06,-50.69,-0.50,3.50,0.00,35.73,2.50
42.00,2.00,326.44,-27.56,9.00,-3.12,1.69,1.19,35.73,2.50
42.00,0.00,219.94,17.94,-108.81,1.50,-2.19,-2.81,35.80,2.52
42.00,1.00,241.38,-2.12,-50.69,-0.56,2.44,-0.50,35.80,2.52
42.00,2.00,326.44,-27.56,9.06,-1.12,1.75,0.38,35.80,2.52
42.00,0.00,220.06,17.88,-108.81,2.25,-1.75,-3.31,35.88,2.54
42.00,1.00,241.38,-2.12,-50.69,-0.31,1.25,-0.69,35.88,2.54
42.00,2.00,326.44,-27.62,9.12,-0.25,1.44,0.38,35.88,2.54
42.00,0.00,220.12,17.75,-108.88,2.00,-1.62,-3.94,35.93,2.56
42.00,1.00,241.38,-2.19,-50.69,0.44,0.44,-0.94,35.93,2.56
42.00,2.00,326.44,-27.62,9.12,0.06,1.06,0.25,35.93,2.56
42.00,0.00,220.25,17.69,-108.94,2.12,0.56,-4.56,36.00,2.58
42.00,1.00,241.44,-2.19,-50.69,0.38,-0.31,-0.75,36.00,2.58
42.00,2.00,326.44,-27.62,9.12,-0.06,0.94,0.00,36.00,2.58
42.00,0.00,220.31,17.62,-108.94,2.12,0.75,-3.62,36.06,2.60
42.00,1.00,241.50,-2.19,-50.69,0.38,-0.62,-1.06,36.06,2.60
42.00,2.00,326.44,-27.69,9.12,-0.06,1.12,0.38,36.06,2.60
42.00,0.00,220.31,17.56,-109.00,2.19,0.38,-2.88,36.12,2.62
42.00,1.00,241.50,-2.25,-50.69,0.75,-0.12,-0.94,36.12,2.62
42.00,2.00,326.44,-27.69,9.12,0.38,0.50,0.31,36.12,2.62
42.00,0.00,220.38,17.50,-109.00,1.81,-1.62,-1.62,36.15,2.64
42.00,1.00,241.50,-2.25,-50.69,0.44,-0.69,-0.94,36.15,2.64
42.00,2.00,326.44,-27.69,9.12,0.62,0.56,-0.38,36.15,2.64
42.00,0.00,220.44,17.50,-109.06,1.69,-2.06,-1.31,36.18,2.66
42.00,1.00,241.56,-2.25,-50.69,0.44,-0.81,-1.06,36.18,2.66
42.00,2.00,326.44,-27.69,9.12,0.75,0.50,-0.56,36.18,2.66
42.00,0.00,220.50,17.50,-109.06,1.31,-0.56,-0.06,36.19,2.68
42.00,1.00,241.62,-2.25,-50.69,0.69,-0.31,-1.06,36.19,2.68
42.00,2.00,326.44,-27.69,9.06,0.94,0.38,-0.56,36.19,2.68
42.00,0.00,220.50,17.50,-109.12,1.44,-0.25,0.19,36.22,2.70
42.00,1.00,241.62,-2.31,-50.69,1.12,-0.56,-1.06,36.22,2.70
42.00,2.00,326.44,-27.69,9.06,0.62,0.31,-0.75,36.22,2.70
42.00,0.00,220.50,17.50,-109.12,1.50,-0.25,0.31,36.23,2.72
42.00,1.00,241.69,-2.31,-50.69,0.88,-0.94,-0.88,36.23,2.72
42.00,2.00,326.50,-27.69,9.06,0.88,-0.25,-0.88,36.23,2.72
42.00,0.00,220.50,17.50,-109.12,0.62,-0.44,-0.38,36.22,2.74
42.00,1.00,241.75,-2.31,-50.75,1.12,-1.25,-0.62,36.22,2.74
42.00,2.00,326.50,-27.62,9.06,1.19,-0.50,-1.38,36.22,2.74
42.00,0.00,220.50,17.44,-109.12,0.44,-0.19,-0.69,36.19,2.76
42.00,1.00,241.75,-2.31,-50.75,1.31,-1.81,-0.31,36.19,2.76
42.00,2.00,326.56,-27.62,9.06,1.31,-0.81,-1.50,36.19,2.76
42.00,0.00,220.62,17.44,-109.06,-0.06,-0.19,-2.12,36.16,2.78
42.00,1.00,241.75,-2.31,-50.75,1.50,-2.00,-0.25,36.16,2.78
42.00,2.00,326.56,-27.62,9.06,1.00,-0.75,-1.56,36.16,2.78
