Iteration,IMUNo,OrientationX (deg),OrientationY,OrientationZ,GyroX (20rad/sec),GyroY,GyroZ,Elbow_Pos (rad),Time (sec)
58.00,0.00,259.69,3.38,-94.81,-1.06,-0.62,2.44,-0.08,1.00
58.00,1.00,254.25,2.62,-59.81,-3.19,2.19,0.38,-0.08,1.00
58.00,2.00,338.75,-25.00,10.44,1.25,1.81,1.25,-0.08,1.02
58.00,0.00,259.62,3.44,-94.81,0.31,-0.50,4.88,-0.09,1.02
58.00,1.00,254.25,2.62,-59.75,-4.81,5.06,0.50,-0.09,1.02
58.00,2.00,338.69,-25.00,10.38,0.56,1.69,1.81,-0.09,1.02
58.00,0.00,259.44,3.56,-94.88,2.25,1.31,7.25,0.05,1.04
58.00,1.00,254.12,2.56,-59.62,-6.00,7.81,1.12,0.05,1.04
58.00,2.00,338.62,-25.06,10.25,-1.62,1.06,3.88,0.05,1.04
58.00,0.00,259.19,3.75,-94.94,4.81,5.19,8.88,0.33,1.06
58.00,1.00,254.00,2.50,-59.56,-6.62,7.56,2.12,0.33,1.06
58.00,2.00,338.44,-25.12,10.19,-3.44,-0.31,6.56,0.33,1.06
58.00,0.00,258.88,3.94,-95.06,7.88,7.25,10.56,0.72,1.08
58.00,1.00,253.88,2.50,-59.44,-5.50,7.06,2.88,0.72,1.08
58.00,2.00,338.25,-25.19,10.12,-3.50,-0.81,9.75,0.72,1.08
58.00,0.00,258.25,4.38,-95.75,11.50,6.44,13.00,1.16,1.10
58.00,1.00,253.81,2.50,-59.38,-6.75,9.38,3.50,1.16,1.10
58.00,2.00,338.00,-25.19,9.94,-1.06,0.69,11.12,1.16,1.10
58.00,0.00,257.62,4.88,-96.44,15.38,4.75,15.44,1.75,1.12
58.00,1.00,253.62,2.44,-59.25,-8.25,12.25,4.00,1.75,1.12
58.00,2.00,337.75,-25.25,9.75,-1.81,1.81,12.31,1.75,1.12
58.00,0.00,257.12,5.19,-96.81,18.94,6.56,16.94,2.58,1.14
58.00,1.00,253.38,2.44,-59.12,-8.25,13.62,5.50,2.58,1.14
58.00,2.00,337.44,-25.38,9.62,-5.00,1.12,14.62,2.58,1.14
58.00,0.00,256.56,5.56,-97.19,21.69,8.81,17.94,3.55,1.16
58.00,1.00,253.12,2.38,-59.00,-8.50,13.38,6.25,3.55,1.16
58.00,2.00,337.06,-25.44,9.56,-6.19,-0.19,17.44,3.55,1.16
58.00,0.00,255.81,6.06,-97.81,25.25,9.62,19.88,4.65,1.18
58.00,1.00,252.88,2.38,-58.81,-8.75,15.06,6.75,4.65,1.18
58.00,2.00,336.69,-25.50,9.44,-6.56,1.31,19.44,4.65,1.18
58.00,0.00,254.81,6.75,-98.62,28.25,10.75,23.69,5.85,1.20
58.00,1.00,252.56,2.31,-58.62,-9.44,18.00,7.62,5.85,1.20
58.00,2.00,336.25,-25.62,9.38,-6.50,1.81,20.62,5.85,1.20
58.00,0.00,253.81,7.44,-99.31,29.31,12.44,24.31,7.10,1.22
58.00,1.00,252.19,2.31,-58.44,-10.25,19.50,8.25,7.10,1.22
58.00,2.00,335.81,-25.69,9.25,-6.81,-0.12,21.62,7.10,1.22
58.00,0.00,253.25,7.75,-99.69,31.25,15.19,25.31,8.43,1.24
58.00,1.00,251.81,2.25,-58.25,-10.06,19.31,8.69,8.43,1.24
58.00,2.00,335.31,-25.75,9.19,-7.19,-1.69,22.94,8.43,1.24
58.00,0.00,251.62,8.69,-100.69,32.44,18.12,26.81,9.83,1.26
58.00,1.00,251.44,2.19,-58.06,-10.19,19.25,8.69,9.83,1.26
58.00,2.00,334.81,-25.75,9.06,-8.00,-1.06,23.69,9.83,1.26
58.00,0.00,251.06,9.00,-100.94,31.56,21.12,26.75,11.23,1.28
58.00,1.00,251.06,2.12,-57.81,-11.69,21.06,9.44,11.23,1.28
58.00,2.00,334.31,-25.81,9.00,-8.75,-1.75,24.31,11.23,1.28
58.00,0.00,249.88,9.62,-101.56,31.12,25.00,27.50,12.62,1.30
58.00,1.00,250.62,2.06,-57.56,-11.50,20.75,10.19,12.62,1.30
58.00,2.00,333.81,-25.88,8.94,-8.94,-2.50,25.25,12.62,1.30
58.00,0.00,248.56,10.31,-102.12,32.75,27.06,28.69,14.09,1.32
58.00,1.00,250.25,2.00,-57.38,-10.88,21.56,10.62,14.09,1.32
58.00,2.00,333.25,-25.88,8.88,-9.94,-3.31,26.25,14.09,1.32
58.00,0.00,247.19,10.94,-102.69,35.69,24.06,29.06,15.71,1.34
58.00,1.00,249.81,1.94,-57.12,-11.50,21.75,11.00,15.71,1.34
58.00,2.00,332.69,-25.88,8.88,-11.06,-3.38,26.75,15.71,1.34
58.00,0.00,245.94,11.62,-103.31,36.06,22.81,29.31,17.33,1.36
58.00,1.00,249.38,1.94,-56.88,-12.50,21.94,11.50,17.33,1.36
58.00,2.00,332.12,-25.88,8.81,-10.56,-2.56,26.38,17.33,1.36
58.00,0.00,244.62,12.25,-103.94,34.56,22.75,27.81,18.90,1.38
58.00,1.00,248.94,1.88,-56.62,-10.88,23.06,11.38,18.90,1.38
58.00,2.00,331.56,-25.94,8.81,-10.81,-3.00,25.06,18.90,1.38
58.00,0.00,243.56,12.75,-104.44,31.19,21.88,23.75,20.32,1.40
58.00,1.00,248.44,1.81,-56.38,-10.06,22.88,11.06,20.32,1.40
58.00,2.00,331.06,-25.94,8.75,-9.81,-2.81,24.56,20.32,1.40
58.00,0.00,242.56,13.12,-104.81,31.69,20.56,23.75,21.72,1.42
58.00,1.00,248.06,1.69,-56.19,-10.75,19.75,9.56,21.72,1.42
58.00,2.00,330.50,-25.94,8.75,-8.81,-1.38,23.50,21.72,1.42
58.00,0.00,241.44,13.69,-105.38,32.81,16.19,24.12,23.10,1.44
58.00,1.00,247.69,1.62,-55.94,-9.12,20.62,8.00,23.10,1.44
58.00,2.00,330.06,-26.00,8.75,-7.19,0.44,22.00,23.10,1.44
58.00,0.00,240.56,14.06,-105.88,31.69,13.62,22.44,24.39,1.46
58.00,1.00,247.38,1.50,-55.69,-8.56,19.44,7.31,24.39,1.46
58.00,2.00,329.69,-26.06,8.75,-5.56,-0.06,20.19,24.39,1.46
58.00,0.00,239.75,14.44,-106.31,31.12,13.81,20.81,25.58,1.48
58.00,1.00,247.06,1.38,-55.50,-5.00,15.25,3.94,25.58,1.48
58.00,2.00,329.31,-26.12,8.69,-3.19,-0.75,17.69,25.58,1.48
58.00,0.00,238.81,14.88,-106.88,29.69,14.00,17.12,26.62,1.50
58.00,1.00,246.88,1.19,-55.38,-4.69,13.50,2.69,26.62,1.50
58.00,2.00,329.00,-26.12,8.56,-0.31,0.44,15.00,26.62,1.50
58.00,0.00,238.00,15.25,-107.44,32.00,8.50,16.75,27.64,1.52
58.00,1.00,246.75,1.06,-55.25,-4.94,11.50,1.31,27.64,1.52
58.00,2.00,328.75,-26.25,8.38,2.62,1.94,11.62,27.64,1.52
58.00,0.00,237.25,15.62,-108.06,33.62,5.31,16.81,28.75,1.54
58.00,1.00,246.62,0.94,-55.12,-5.75,11.06,1.12,28.75,1.54
58.00,2.00,328.56,-26.31,8.25,1.44,1.75,9.88,28.75,1.54
58.00,0.00,236.56,15.94,-108.75,34.12,2.12,15.88,29.93,1.56
58.00,1.00,246.50,0.81,-55.00,-5.50,10.81,1.00,29.93,1.56
58.00,2.00,328.38,-26.31,8.12,0.12,1.06,10.12,29.93,1.56
58.00,0.00,235.94,16.19,-109.44,33.06,2.56,13.81,31.08,1.58
58.00,1.00,246.44,0.69,-54.88,-5.19,10.44,1.00,31.08,1.58
58.00,2.00,328.19,-26.38,8.06,-0.38,0.62,10.94,31.08,1.58
58.00,0.00,235.44,16.44,-110.06,30.25,1.62,10.31,32.19,1.60
58.00,1.00,246.31,0.56,-54.75,-5.44,10.69,1.06,32.19,1.60
58.00,2.00,327.94,-26.44,8.00,-1.75,0.62,11.81,32.19,1.60
58.00,0.00,234.94,16.62,-110.62,29.44,0.69,9.56,33.31,1.62
58.00,1.00,246.19,0.44,-54.62,-6.06,9.88,1.38,33.31,1.62
58.00,2.00,327.69,-26.50,7.94,-2.81,-0.25,11.56,33.31,1.62
58.00,0.00,234.62,16.75,-111.06,28.00,-0.19,8.38,34.35,1.64
58.00,1.00,246.06,0.31,-54.44,-5.62,9.88,1.44,34.35,1.64
58.00,2.00,327.50,-26.50,8.00,-2.25,-0.12,11.19,34.35,1.64
58.00,0.00,234.19,16.88,-111.62,27.06,1.06,8.56,35.31,1.66
58.00,1.00,246.00,0.19,-54.31,-5.44,8.50,1.56,35.31,1.66
58.00,2.00,327.31,-26.56,7.94,-0.50,1.44,10.69,35.31,1.66
58.00,0.00,233.94,17.00,-111.88,24.31,3.56,7.56,36.20,1.68
58.00,1.00,245.88,0.06,-54.19,-5.81,8.69,2.06,36.20,1.68
58.00,2.00,327.06,-26.62,7.88,-1.38,1.44,10.12,36.20,1.68
58.00,0.00,233.69,17.00,-112.00,19.25,5.25,5.56,36.99,1.70
58.00,1.00,245.75,0.00,-54.06,-6.19,9.25,2.44,36.99,1.70
58.00,2.00,326.88,-26.69,7.81,-3.69,1.19,10.56,36.99,1.70
58.00,0.00,233.44,17.06,-112.00,15.12,5.75,5.50,37.71,1.72
58.00,1.00,245.62,-0.06,-53.88,-6.50,9.88,3.19,37.71,1.72
58.00,2.00,326.62,-26.75,7.81,-5.50,0.81,10.94,37.71,1.72
58.00,0.00,233.19,17.12,-112.00,11.06,7.50,5.00,38.30,1.74
58.00,1.00,245.50,-0.12,-53.75,-6.69,10.12,3.44,38.30,1.74
58.00,2.00,326.44,-26.81,7.88,-6.19,0.62,10.12,38.30,1.74
58.00,0.00,233.00,17.19,-111.88,7.31,7.38,2.88,38.77,1.76
58.00,1.00,245.31,-0.25,-53.56,-7.88,10.12,3.38,38.77,1.76
58.00,2.00,326.19,-26.81,7.94,-6.12,1.44,9.06,38.77,1.76
58.00,0.00,232.94,17.19,-111.75,5.88,5.56,2.94,39.17,1.78
58.00,1.00,245.19,-0.31,-53.44,-8.38,10.06,3.06,39.17,1.78
58.00,2.00,326.06,-26.88,8.00,-5.75,1.62,8.00,39.17,1.78
58.00,0.00,232.81,17.19,-111.62,3.62,4.88,3.38,39.51,1.80
58.00,1.00,245.00,-0.38,-53.25,-8.19,10.06,2.88,39.51,1.80
58.00,2.00,325.88,-26.94,8.12,-6.12,1.75,6.88,39.51,1.80
58.00,0.00,232.69,17.25,-111.50,1.50,5.19,1.50,39.75,1.82
58.00,1.00,244.88,-0.44,-53.06,-8.00,9.06,2.25,39.75,1.82
58.00,2.00,325.75,-27.00,8.25,-5.56,2.31,6.38,39.75,1.82
58.00,0.00,232.56,17.25,-111.38,0.75,5.19,0.94,39.97,1.84
58.00,1.00,244.75,-0.56,-52.94,-8.19,9.19,2.12,39.97,1.84
58.00,2.00,325.62,-27.06,8.31,-5.44,2.62,5.12,39.97,1.84
58.00,0.00,232.50,17.31,-111.31,0.75,4.38,1.00,40.20,1.86
58.00,1.00,244.62,-0.62,-52.75,-7.81,7.75,1.62,40.20,1.86
58.00,2.00,325.56,-27.06,8.50,-5.88,2.12,4.12,40.20,1.86
58.00,0.00,232.38,17.31,-111.25,1.06,4.44,1.31,40.42,1.88
58.00,1.00,244.56,-0.75,-52.56,-7.12,6.06,0.69,40.42,1.88
58.00,2.00,325.50,-27.12,8.69,-5.50,2.19,2.88,40.42,1.88
58.00,0.00,232.19,17.38,-111.25,0.75,5.75,0.44,40.60,1.90
58.00,1.00,244.56,-0.81,-52.44,-6.38,4.56,0.38,40.60,1.90
58.00,2.00,325.44,-27.19,8.88,-4.38,2.06,1.88,40.60,1.90
58.00,0.00,232.06,17.44,-111.19,0.44,5.31,-0.25,40.72,1.92
58.00,1.00,244.50,-0.88,-52.25,-5.94,3.81,0.00,40.72,1.92
58.00,2.00,325.44,-27.19,8.94,-3.06,1.50,0.69,40.72,1.92
58.00,0.00,231.94,17.44,-111.19,0.12,4.19,-0.69,40.84,1.94
58.00,1.00,244.50,-0.94,-52.12,-5.31,3.06,0.06,40.84,1.94
58.00,2.00,325.38,-27.25,9.06,-3.25,0.75,0.81,40.84,1.94
58.00,0.00,231.88,17.44,-111.19,0.62,4.19,-1.00,40.96,1.96
58.00,1.00,244.50,-1.00,-52.00,-4.56,2.31,0.06,40.96,1.96
58.00,2.00,325.38,-27.25,9.12,-2.94,0.12,0.81,40.96,1.96
58.00,0.00,231.75,17.44,-111.19,1.75,3.56,-0.44,41.12,1.98
58.00,1.00,244.50,-1.06,-51.94,-4.19,2.06,0.44,41.12,1.98
58.00,2.00,325.31,-27.25,9.19,-2.81,0.69,1.19,41.12,1.98
58.00,0.00,231.62,17.50,-111.19,2.38,3.38,1.00,41.31,2.00
58.00,1.00,244.44,-1.06,-51.81,-3.75,2.12,0.75,41.31,2.00
58.00,2.00,325.31,-27.25,9.25,-3.00,0.81,1.38,41.31,2.00
58.00,0.00,231.50,17.50,-111.19,1.88,3.50,1.31,41.50,2.02
58.00,1.00,244.44,-1.12,-51.75,-2.81,1.81,0.94,41.50,2.02
58.00,2.00,325.25,-27.31,9.31,-3.81,0.19,1.88,41.50,2.02
58.00,0.00,231.44,17.56,-111.25,0.19,3.31,0.75,41.62,2.04
58.00,1.00,244.38,-1.12,-51.69,-2.38,2.19,1.06,41.62,2.04
58.00,2.00,325.19,-27.31,9.38,-3.31,0.56,2.44,41.62,2.04
58.00,0.00,231.44,17.56,-111.25,1.19,-2.75,0.50,41.77,2.06
58.00,1.00,244.38,-1.12,-51.69,-2.12,2.38,1.19,41.77,2.06
58.00,2.00,325.12,-27.31,9.38,-3.00,0.81,1.94,41.77,2.06
58.00,0.00,231.44,17.56,-111.31,2.38,-3.06,3.75,41.93,2.08
58.00,1.00,244.31,-1.19,-51.62,-1.88,2.19,0.81,41.93,2.08
58.00,2.00,325.12,-27.31,9.44,-2.12,0.69,1.31,41.93,2.08
58.00,0.00,231.44,17.62,-111.38,1.81,-2.88,2.31,42.04,2.10
58.00,1.00,244.31,-1.19,-51.56,-1.38,2.00,0.50,42.04,2.10
58.00,2.00,325.06,-27.31,9.50,-1.56,0.81,0.88,42.04,2.10
58.00,0.00,231.50,17.62,-111.44,2.31,-2.62,2.00,42.19,2.12
58.00,1.00,244.25,-1.19,-51.56,-0.75,1.38,0.25,42.19,2.12
58.00,2.00,325.06,-27.31,9.56,-1.88,-0.06,0.69,42.19,2.12
58.00,0.00,231.50,17.62,-111.44,2.56,-1.75,0.88,42.32,2.14
58.00,1.00,244.25,-1.25,-51.50,0.00,0.44,0.06,42.32,2.14
58.00,2.00,325.06,-27.31,9.62,-1.31,-0.25,0.06,42.32,2.14
58.00,0.00,231.50,17.62,-111.50,2.19,-1.19,0.00,42.39,2.16
58.00,1.00,244.31,-1.25,-51.50,-0.06,-0.56,-0.06,42.39,2.16
58.00,2.00,325.06,-27.31,9.69,0.06,-0.56,-0.44,42.39,2.16
58.00,0.00,231.50,17.62,-111.50,1.94,-1.00,-0.50,42.45,2.18
58.00,1.00,244.31,-1.25,-51.50,0.50,-1.50,-0.38,42.45,2.18
58.00,2.00,325.12,-27.31,9.75,0.31,-0.75,-1.38,42.45,2.18
58.00,0.00,231.56,17.56,-111.56,1.56,-0.44,-0.88,42.47,2.20
58.00,1.00,244.31,-1.25,-51.50,1.50,-2.56,-0.31,42.47,2.20
58.00,2.00,325.12,-27.25,9.81,0.94,-1.38,-1.50,42.47,2.20
