Iteration,IMUNo,OrientationX (deg),OrientationY,OrientationZ,GyroX (20rad/sec),GyroY,GyroZ,Elbow_Pos (rad),Time (sec)
1.00,0.00,217.25,0.44,-106.81,-0.56,0.56,0.12,0.01,0.00
1.00,1.00,297.62,-4.06,-58.50,-0.94,0.12,0.94,0.01,0.00
1.00,2.00,0.38,-24.69,6.38,-1.19,-0.19,0.75,0.01,0.00
1.00,0.00,217.94,0.44,-106.81,0.25,0.56,0.00,0.03,1.02
1.00,1.00,297.50,-3.94,-58.44,-0.38,0.19,-0.50,0.03,1.02
1.00,2.00,0.38,-24.88,6.50,-0.62,0.38,-0.19,0.03,1.02
1.00,0.00,217.94,0.44,-106.81,0.25,0.06,-0.19,0.05,1.04
1.00,1.00,297.50,-3.94,-58.44,-0.94,0.19,-1.00,0.05,1.04
1.00,2.00,0.44,-24.88,6.50,-0.56,0.62,-0.88,0.05,1.04
1.00,0.00,218.06,0.44,-106.81,0.00,-0.56,-0.38,0.06,1.06
1.00,1.00,297.50,-4.00,-58.38,-1.31,-0.19,-0.38,0.06,1.06
1.00,2.00,0.44,-24.88,6.50,-0.75,0.50,-0.94,0.06,1.06
1.00,0.00,218.06,0.44,-106.81,-0.31,-0.62,-0.25,0.07,1.08
1.00,1.00,297.50,-4.00,-58.38,-0.31,-0.12,-0.25,0.07,1.08
1.00,2.00,0.44,-24.88,6.56,-0.69,0.44,-0.75,0.07,1.08
1.00,0.00,218.06,0.44,-106.81,-0.38,-0.56,-0.25,0.07,1.10
1.00,1.00,297.50,-4.00,-58.38,-0.62,-0.31,-0.75,0.07,1.10
1.00,2.00,0.44,-24.88,6.56,-0.38,0.44,-0.69,0.07,1.10
1.00,0.00,218.06,0.44,-106.81,-0.06,-0.56,-0.12,0.07,1.12
1.00,1.00,297.50,-4.00,-58.38,-0.31,-0.44,-0.50,0.07,1.12
1.00,2.00,0.44,-24.88,6.56,-0.19,0.75,-0.50,0.07,1.12
1.00,0.00,218.06,0.44,-106.81,-0.25,-0.62,-0.06,0.06,1.14
1.00,1.00,297.50,-4.00,-58.38,0.00,0.12,-0.75,0.06,1.14
1.00,2.00,0.50,-24.88,6.56,0.25,0.88,-0.69,0.06,1.14
1.00,0.00,218.06,0.44,-106.81,0.12,-0.56,-0.44,0.06,1.16
1.00,1.00,297.56,-4.00,-58.38,-0.44,0.06,-0.81,0.06,1.16
1.00,2.00,0.50,-24.88,6.56,0.00,0.88,-0.69,0.06,1.16
1.00,0.00,218.06,0.44,-106.81,0.25,-1.50,-0.38,0.07,1.18
1.00,1.00,297.56,-4.00,-58.38,-0.25,0.06,-0.69,0.07,1.18
1.00,2.00,0.50,-24.94,6.56,0.00,1.06,-0.69,0.07,1.18
1.00,0.00,218.12,0.44,-106.81,0.12,-1.31,-0.56,0.07,1.20
1.00,1.00,297.56,-4.00,-58.38,-0.44,0.31,-0.75,0.07,1.20
1.00,2.00,0.50,-24.94,6.56,-0.06,1.12,-0.69,0.07,1.20
1.00,0.00,218.19,0.44,-106.81,0.12,-1.00,-0.69,0.07,1.22
1.00,1.00,297.56,-4.00,-58.38,-0.06,0.25,-0.44,0.07,1.22
1.00,2.00,0.50,-24.94,6.56,0.06,1.31,0.00,0.07,1.22
1.00,0.00,218.19,0.44,-106.81,0.00,-0.50,-0.50,0.08,1.24
1.00,1.00,297.56,-4.00,-58.38,0.19,0.19,-0.06,0.08,1.24
1.00,2.00,0.50,-25.00,6.56,-0.06,0.56,-0.44,0.08,1.24
1.00,0.00,218.25,0.44,-106.81,-0.06,-0.81,-0.31,0.07,1.26
1.00,1.00,297.56,-4.00,-58.38,0.38,0.31,-0.25,0.07,1.26
1.00,2.00,0.50,-25.00,6.62,0.12,1.00,-0.69,0.07,1.26
1.00,0.00,218.31,0.44,-106.81,0.12,-0.69,-0.38,0.09,1.28
1.00,1.00,297.56,-4.00,-58.38,-0.38,-0.06,-0.25,0.09,1.28
1.00,2.00,0.50,-25.00,6.62,-0.56,0.31,-0.62,0.09,1.28
1.00,0.00,218.31,0.44,-106.81,-0.12,-0.25,-0.31,0.10,1.30
1.00,1.00,297.56,-4.00,-58.38,-0.31,0.06,-0.12,0.10,1.30
1.00,2.00,0.50,-25.00,6.62,-0.69,0.06,-0.50,0.10,1.30
1.00,0.00,218.31,0.44,-106.81,-0.38,-0.25,-0.31,0.10,1.32
1.00,1.00,297.56,-4.00,-58.38,-0.19,0.19,-0.12,0.10,1.32
1.00,2.00,0.50,-25.00,6.62,-0.69,0.12,0.19,0.10,1.32
1.00,0.00,218.31,0.44,-106.81,-0.12,0.25,-0.19,0.10,1.34
1.00,1.00,297.56,-4.00,-58.38,0.12,0.31,0.00,0.10,1.34
1.00,2.00,0.50,-25.00,6.62,0.00,0.56,-0.31,0.10,1.34
1.00,0.00,218.38,0.44,-106.81,-0.19,-0.06,-0.12,0.10,1.36
1.00,1.00,297.56,-4.00,-58.38,-0.31,0.31,0.12,0.10,1.36
1.00,2.00,0.50,-25.00,6.62,-0.19,0.75,-0.38,0.10,1.36
1.00,0.00,218.38,0.44,-106.81,0.06,-0.50,0.12,0.11,1.38
1.00,1.00,297.56,-4.00,-58.38,-0.31,0.19,0.12,0.11,1.38
1.00,2.00,0.50,-25.00,6.62,-0.25,1.06,-0.06,0.11,1.38
1.00,0.00,218.38,0.44,-106.81,-0.31,-0.62,0.12,0.11,1.40
1.00,1.00,297.56,-4.00,-58.38,-0.56,0.25,0.12,0.11,1.40
1.00,2.00,0.50,-25.06,6.62,-0.25,1.56,0.06,0.11,1.40
1.00,0.00,218.44,0.38,-106.81,-0.12,-1.06,0.50,0.09,1.42
1.00,1.00,297.56,-4.00,-58.38,-0.62,0.50,0.19,0.09,1.42
1.00,2.00,0.50,-25.06,6.62,0.62,1.38,0.44,0.09,1.42
1.00,0.00,218.38,0.44,-106.81,-0.12,-0.38,1.06,0.07,1.44
1.00,1.00,297.56,-4.00,-58.38,-0.50,0.81,0.31,0.07,1.44
1.00,2.00,0.50,-25.06,6.62,1.06,0.75,1.12,0.07,1.44
1.00,0.00,218.38,0.50,-106.88,0.69,0.25,1.88,0.08,1.46
1.00,1.00,297.56,-4.06,-58.38,-0.44,1.00,0.25,0.08,1.46
1.00,2.00,0.50,-25.12,6.56,0.12,1.50,2.62,0.08,1.46
1.00,0.00,218.25,0.56,-106.88,1.38,1.50,3.31,0.14,1.48
1.00,1.00,297.50,-4.06,-58.38,-0.44,1.75,0.69,0.14,1.48
1.00,2.00,0.44,-25.19,6.56,-1.94,5.25,3.50,0.14,1.48
1.00,0.00,218.00,0.69,-107.00,2.56,1.69,5.38,0.30,1.50
1.00,1.00,297.50,-4.06,-58.38,-1.31,2.75,1.44,0.30,1.50
1.00,2.00,0.31,-25.31,6.62,-5.19,6.06,3.56,0.30,1.50
1.00,0.00,217.75,0.88,-107.12,4.06,2.88,7.56,0.51,1.52
1.00,1.00,297.44,-4.06,-58.31,-2.50,3.69,1.12,0.51,1.52
1.00,2.00,0.25,-25.44,6.75,-6.50,4.75,3.88,0.51,1.52
1.00,0.00,217.44,1.06,-107.19,5.00,6.81,9.12,0.71,1.54
1.00,1.00,297.38,-4.12,-58.25,-2.06,3.25,-0.12,0.71,1.54
1.00,2.00,0.12,-25.56,6.81,-4.81,4.62,5.38,0.71,1.54
1.00,0.00,217.00,1.31,-107.31,6.00,11.31,9.44,0.90,1.56
1.00,1.00,297.38,-4.12,-58.25,-1.62,2.50,-0.69,0.90,1.56
1.00,2.00,0.00,-25.62,6.81,-3.75,3.81,7.06,0.90,1.56
1.00,0.00,216.44,1.56,-107.44,7.25,13.50,9.56,1.11,1.58
1.00,1.00,297.31,-4.19,-58.19,-1.56,3.06,-0.62,1.11,1.58
1.00,2.00,359.81,-25.69,6.81,-3.00,2.44,7.12,1.11,1.58
1.00,0.00,215.94,1.81,-107.62,8.88,12.00,9.38,1.31,1.60
1.00,1.00,297.31,-4.25,-58.19,-1.44,3.25,-0.62,1.31,1.60
1.00,2.00,359.69,-25.75,6.75,-1.19,2.50,6.69,1.31,1.60
1.00,0.00,215.44,2.00,-107.81,10.62,7.56,8.25,1.53,1.62
1.00,1.00,297.25,-4.25,-58.19,-1.31,3.12,-0.38,1.53,1.62
1.00,2.00,359.56,-25.81,6.75,-0.44,2.56,6.06,1.53,1.62
1.00,0.00,215.19,2.12,-108.06,11.31,3.00,7.12,1.76,1.64
1.00,1.00,297.25,-4.31,-58.12,-1.75,3.38,-0.12,1.76,1.64
1.00,2.00,359.44,-25.88,6.69,-0.31,2.81,5.44,1.76,1.64
1.00,0.00,215.19,2.19,-108.38,11.56,-0.81,5.31,1.99,1.66
1.00,1.00,297.19,-4.31,-58.12,-1.62,3.88,-0.25,1.99,1.66
1.00,2.00,359.38,-25.94,6.62,0.00,3.19,5.19,1.99,1.66
1.00,0.00,215.19,2.25,-108.62,12.25,-3.00,3.94,2.24,1.68
1.00,1.00,297.12,-4.38,-58.06,-1.56,3.56,0.38,2.24,1.68
1.00,2.00,359.25,-26.00,6.56,0.00,2.44,5.75,2.24,1.68
1.00,0.00,215.25,2.25,-108.88,11.88,-4.94,2.31,2.45,1.70
1.00,1.00,297.12,-4.44,-58.06,-0.75,3.81,0.12,2.45,1.70
1.00,2.00,359.12,-26.06,6.50,1.31,1.12,7.56,2.45,1.70
1.00,0.00,215.25,2.25,-109.06,9.31,-5.69,1.56,2.61,1.72
1.00,1.00,297.06,-4.44,-58.06,-0.88,3.44,0.06,2.61,1.72
1.00,2.00,359.00,-26.12,6.38,1.38,0.81,7.31,2.61,1.72
1.00,0.00,215.31,2.25,-109.25,7.69,-5.75,2.56,2.77,1.74
1.00,1.00,297.00,-4.50,-58.06,-2.12,4.62,0.75,2.77,1.74
1.00,2.00,358.88,-26.12,6.31,-0.50,1.12,6.31,2.77,1.74
1.00,0.00,215.38,2.25,-109.31,9.12,-6.62,3.62,3.00,1.76
1.00,1.00,296.94,-4.50,-58.00,-3.00,4.56,1.06,3.00,1.76
1.00,2.00,358.69,-26.19,6.31,-2.38,2.19,7.38,3.00,1.76
1.00,0.00,215.31,2.31,-109.62,11.00,-4.50,5.44,3.30,1.78
1.00,1.00,296.88,-4.56,-57.94,-2.44,4.31,1.56,3.30,1.78
1.00,2.00,358.56,-26.25,6.31,-4.12,2.31,8.62,3.30,1.78
1.00,0.00,215.25,2.44,-109.88,13.06,-2.94,7.56,3.64,1.80
1.00,1.00,296.81,-4.56,-57.88,-1.94,4.75,1.50,3.64,1.80
1.00,2.00,358.38,-26.31,6.31,-3.94,2.31,9.06,3.64,1.80
1.00,0.00,215.31,2.62,-110.19,14.06,-0.69,8.19,3.98,1.82
1.00,1.00,296.69,-4.56,-57.88,-2.75,4.75,1.19,3.98,1.82
1.00,2.00,358.19,-26.38,6.31,-2.75,3.31,7.62,3.98,1.82
1.00,0.00,215.06,2.75,-110.44,14.69,0.12,8.50,4.31,1.84
1.00,1.00,296.62,-4.62,-57.81,-3.31,4.12,0.50,4.31,1.84
1.00,2.00,358.00,-26.50,6.25,-1.88,3.62,7.81,4.31,1.84
1.00,0.00,214.88,2.94,-110.75,15.00,-0.38,8.69,4.66,1.86
1.00,1.00,296.62,-4.62,-57.75,-2.75,4.62,0.06,4.66,1.86
1.00,2.00,357.88,-26.56,6.25,-2.25,4.19,9.12,4.66,1.86
1.00,0.00,214.75,3.06,-111.06,14.62,-0.94,8.00,5.00,1.88
1.00,1.00,296.56,-4.75,-57.69,-2.31,5.44,0.50,5.00,1.88
1.00,2.00,357.69,-26.69,6.19,-2.69,3.88,9.50,5.00,1.88
1.00,0.00,214.62,3.19,-111.25,16.44,-0.12,10.25,5.39,1.90
1.00,1.00,296.44,-4.75,-57.69,-2.56,5.19,0.88,5.39,1.90
1.00,2.00,357.44,-26.75,6.12,-3.06,3.31,9.75,5.39,1.90
1.00,0.00,214.38,3.38,-111.56,17.81,2.56,12.38,5.80,1.92
1.00,1.00,296.38,-4.81,-57.62,-1.88,4.81,0.88,5.80,1.92
1.00,2.00,357.25,-26.88,6.12,-2.69,3.81,10.75,5.80,1.92
1.00,0.00,214.00,3.62,-111.94,18.62,0.69,11.19,6.23,1.94
1.00,1.00,296.31,-4.88,-57.62,-1.81,6.00,0.31,6.23,1.94
1.00,2.00,357.00,-26.94,6.06,-2.94,4.81,11.81,6.23,1.94
1.00,0.00,213.75,3.81,-112.31,18.81,-1.75,11.19,6.69,1.96
1.00,1.00,296.25,-4.94,-57.56,-2.69,6.38,0.88,6.69,1.96
1.00,2.00,356.75,-27.06,6.00,-3.81,4.25,12.56,6.69,1.96
1.00,0.00,213.56,4.00,-112.69,16.69,-1.81,9.56,7.13,1.98
1.00,1.00,296.12,-5.00,-57.50,-4.00,7.44,1.25,7.13,1.98
1.00,2.00,356.50,-27.19,5.94,-5.38,4.31,13.88,7.13,1.98
1.00,0.00,213.44,4.12,-113.00,16.25,-3.06,9.12,7.61,2.00
1.00,1.00,296.00,-5.06,-57.44,-4.25,8.19,2.00,7.61,2.00
1.00,2.00,356.12,-27.31,5.94,-7.88,3.94,15.44,7.61,2.00
1.00,0.00,213.31,4.25,-113.38,16.75,-3.38,9.69,8.16,2.02
1.00,1.00,295.94,-5.06,-57.44,-4.62,8.81,2.75,8.16,2.02
1.00,2.00,355.81,-27.38,5.94,-10.56,2.69,15.50,8.16,2.02
1.00,0.00,213.19,4.38,-113.69,17.81,-4.00,9.88,8.70,2.04
1.00,1.00,295.69,-5.12,-57.31,-4.94,8.62,2.75,8.70,2.04
1.00,2.00,355.44,-27.50,6.00,-9.19,3.12,15.56,8.70,2.04
1.00,0.00,213.12,4.50,-114.06,18.25,-4.06,9.62,9.21,2.06
1.00,1.00,295.62,-5.12,-57.25,-5.06,8.31,2.69,9.21,2.06
1.00,2.00,355.12,-27.62,6.00,-7.69,4.69,14.94,9.21,2.06
1.00,0.00,213.00,4.69,-114.44,19.25,-3.50,8.56,9.72,2.08
1.00,1.00,295.44,-5.19,-57.12,-5.38,7.88,2.38,9.72,2.08
1.00,2.00,354.81,-27.75,6.00,-5.81,6.12,14.81,9.72,2.08
1.00,0.00,212.88,4.75,-114.81,18.56,-1.94,7.38,10.21,2.10
1.00,1.00,295.31,-5.25,-57.06,-5.12,7.94,2.44,10.21,2.10
1.00,2.00,354.50,-27.88,5.94,-6.12,6.06,15.00,10.21,2.10
1.00,0.00,212.75,4.88,-115.19,18.38,-1.88,7.12,10.73,2.12
1.00,1.00,295.25,-5.25,-57.00,-5.00,8.38,2.50,10.73,2.12
1.00,2.00,354.19,-28.00,5.94,-7.50,5.12,15.25,10.73,2.12
1.00,0.00,212.56,5.00,-115.56,20.31,-1.31,8.62,11.30,2.14
1.00,1.00,295.00,-5.31,-56.88,-4.56,8.56,3.69,11.30,2.14
1.00,2.00,353.81,-28.12,5.94,-8.38,4.81,16.88,11.30,2.14
1.00,0.00,212.38,5.12,-116.00,20.06,-0.38,7.69,11.90,2.16
1.00,1.00,294.88,-5.38,-56.88,-4.75,8.88,3.81,11.90,2.16
1.00,2.00,353.44,-28.25,5.94,-9.81,3.94,18.06,11.90,2.16
1.00,0.00,212.19,5.25,-116.38,17.94,1.19,5.31,12.48,2.18
1.00,1.00,294.69,-5.38,-56.75,-5.69,9.12,4.94,12.48,2.18
1.00,2.00,353.00,-28.31,5.94,-11.06,3.19,18.94,12.48,2.18
1.00,0.00,212.00,5.38,-116.69,17.62,1.69,5.12,13.07,2.20
1.00,1.00,294.38,-5.38,-56.62,-6.25,9.69,5.88,13.07,2.20
1.00,2.00,352.56,-28.44,5.94,-11.69,3.25,19.38,13.07,2.20
1.00,0.00,211.75,5.50,-117.06,18.25,1.69,5.56,13.70,2.22
1.00,1.00,294.25,-5.38,-56.56,-6.44,10.00,6.44,13.70,2.22
1.00,2.00,352.12,-28.50,6.00,-13.56,2.81,19.38,13.70,2.22
1.00,0.00,211.50,5.62,-117.44,20.25,1.44,7.25,14.39,2.24
1.00,1.00,294.06,-5.38,-56.50,-5.75,10.25,5.81,14.39,2.24
1.00,2.00,351.69,-28.62,6.06,-14.25,1.75,20.12,14.39,2.24
1.00,0.00,211.19,5.75,-117.81,19.94,3.56,6.62,15.02,2.26
1.00,1.00,293.81,-5.44,-56.38,-5.44,9.88,5.50,15.02,2.26
1.00,2.00,351.25,-28.69,6.06,-11.62,2.25,19.88,15.02,2.26
1.00,0.00,210.75,5.94,-118.12,18.12,4.88,6.19,15.57,2.28
1.00,1.00,293.62,-5.44,-56.31,-6.06,11.12,5.75,15.57,2.28
1.00,2.00,350.81,-28.75,6.06,-9.31,3.62,19.12,15.57,2.28
1.00,0.00,210.38,6.06,-118.38,16.19,6.44,5.38,16.09,2.30
1.00,1.00,293.38,-5.44,-56.19,-6.81,11.94,6.62,16.09,2.30
1.00,2.00,350.44,-28.88,6.06,-9.81,3.12,18.50,16.09,2.30
1.00,0.00,209.88,6.25,-118.69,17.62,5.38,6.25,16.62,2.32
1.00,1.00,293.12,-5.50,-56.12,-6.00,12.50,6.56,16.62,2.32
1.00,2.00,350.00,-28.94,6.00,-8.62,1.12,19.38,16.62,2.32
1.00,0.00,209.62,6.31,-118.88,17.00,4.38,5.38,17.12,2.34
1.00,1.00,292.81,-5.50,-56.00,-6.25,14.69,7.31,17.12,2.34
1.00,2.00,349.56,-29.00,5.94,-7.94,0.44,20.62,17.12,2.34
1.00,0.00,209.50,6.38,-119.06,14.56,0.88,3.19,17.57,2.36
1.00,1.00,292.50,-5.56,-55.94,-6.88,15.25,7.69,17.57,2.36
1.00,2.00,349.12,-29.06,5.88,-8.06,0.19,20.75,17.57,2.36
1.00,0.00,209.25,6.38,-119.31,14.00,-1.94,2.75,18.02,2.38
1.00,1.00,292.19,-5.62,-55.81,-7.69,15.81,8.50,18.02,2.38
1.00,2.00,348.69,-29.06,5.81,-8.56,0.00,20.00,18.02,2.38
1.00,0.00,209.25,6.38,-119.50,12.25,-1.19,1.38,18.45,2.40
1.00,1.00,291.81,-5.62,-55.69,-7.62,15.94,8.31,18.45,2.40
1.00,2.00,348.25,-29.06,5.81,-9.38,-0.69,19.75,18.45,2.40
1.00,0.00,209.31,6.38,-119.69,10.69,-1.25,1.69,18.86,2.42
1.00,1.00,291.50,-5.69,-55.56,-8.19,15.50,8.44,18.86,2.42
1.00,2.00,347.81,-29.12,5.75,-9.62,0.19,18.81,18.86,2.42
1.00,0.00,209.25,6.44,-119.88,10.38,-1.50,4.19,19.30,2.44
1.00,1.00,291.19,-5.69,-55.44,-9.50,14.69,8.31,19.30,2.44
1.00,2.00,347.44,-29.12,5.81,-11.81,0.69,18.00,19.30,2.44
1.00,0.00,209.12,6.50,-120.06,10.12,-0.12,4.75,19.73,2.46
1.00,1.00,290.88,-5.75,-55.25,-8.94,14.00,7.75,19.73,2.46
1.00,2.00,347.06,-29.19,5.81,-11.25,-0.06,17.38,19.73,2.46
1.00,0.00,208.94,6.56,-120.25,9.25,0.25,3.81,20.08,2.48
1.00,1.00,290.62,-5.75,-55.12,-9.06,13.06,5.44,20.08,2.48
1.00,2.00,346.69,-29.25,5.81,-8.25,1.75,16.44,20.08,2.48
1.00,0.00,208.88,6.62,-120.38,7.50,-0.12,3.06,20.40,2.50
1.00,1.00,290.38,-5.81,-55.00,-9.44,12.00,6.25,20.40,2.50
1.00,2.00,346.31,-29.31,5.81,-8.44,2.69,15.38,20.40,2.50
1.00,0.00,208.75,6.62,-120.50,6.88,-0.12,3.25,20.71,2.52
1.00,1.00,290.12,-5.88,-54.81,-9.25,11.81,5.94,20.71,2.52
1.00,2.00,346.00,-29.38,5.88,-8.69,1.62,15.25,20.71,2.52
1.00,0.00,208.69,6.69,-120.62,6.75,0.31,3.12,21.00,2.54
1.00,1.00,289.88,-5.94,-54.69,-8.31,11.00,4.81,21.00,2.54
1.00,2.00,345.69,-29.38,5.94,-7.69,1.44,15.56,21.00,2.54
1.00,0.00,208.56,6.75,-120.69,4.50,2.31,1.12,21.21,2.56
1.00,1.00,289.69,-5.94,-54.56,-8.00,10.50,4.44,21.21,2.56
1.00,2.00,345.38,-29.44,5.94,-5.94,1.31,15.06,21.21,2.56
1.00,0.00,208.44,6.81,-120.75,3.75,3.69,0.62,21.39,2.58
1.00,1.00,289.44,-6.00,-54.38,-8.50,10.25,4.19,21.39,2.58
1.00,2.00,345.06,-29.50,5.94,-5.31,2.88,14.31,21.39,2.58
1.00,0.00,208.25,6.88,-120.88,5.44,4.94,1.69,21.63,2.60
1.00,1.00,289.25,-6.06,-54.25,-8.56,10.38,3.50,21.63,2.60
1.00,2.00,344.75,-29.56,5.94,-6.69,1.88,14.19,21.63,2.60
1.00,0.00,207.94,7.00,-121.00,7.31,6.31,3.31,21.91,2.62
1.00,1.00,289.12,-6.12,-54.12,-8.06,10.12,3.25,21.91,2.62
1.00,2.00,344.50,-29.56,5.94,-6.88,1.94,13.44,21.91,2.62
1.00,0.00,207.56,7.12,-121.06,7.38,8.56,3.50,22.21,2.64
1.00,1.00,288.94,-6.19,-54.00,-8.00,10.12,3.06,22.21,2.64
1.00,2.00,344.19,-29.62,5.94,-7.25,3.00,12.50,22.21,2.64
1.00,0.00,207.12,7.25,-121.12,6.31,9.50,3.12,22.46,2.66
1.00,1.00,288.75,-6.25,-53.81,-8.19,10.19,2.88,22.46,2.66
1.00,2.00,343.94,-29.69,5.94,-6.25,3.19,11.69,22.46,2.66
1.00,0.00,206.75,7.38,-121.19,7.25,7.88,3.56,22.71,2.68
1.00,1.00,288.62,-6.31,-53.69,-7.94,10.56,2.19,22.71,2.68
1.00,2.00,343.69,-29.75,5.94,-5.12,2.81,11.69,22.71,2.68
1.00,0.00,206.50,7.50,-121.25,7.56,5.44,4.06,22.92,2.70
1.00,1.00,288.44,-6.44,-53.56,-7.50,11.69,1.38,22.92,2.70
1.00,2.00,343.44,-29.88,5.94,-3.38,4.75,11.50,22.92,2.70
1.00,0.00,206.25,7.56,-121.31,5.31,3.75,1.75,23.10,2.72
1.00,1.00,288.25,-6.56,-53.44,-8.25,12.88,1.94,23.10,2.72
1.00,2.00,343.25,-30.00,5.88,-3.50,5.38,11.00,23.10,2.72
1.00,0.00,206.12,7.56,-121.38,3.94,2.12,0.00,23.28,2.74
1.00,1.00,288.06,-6.69,-53.31,-8.75,14.25,2.81,23.28,2.74
1.00,2.00,343.00,-30.12,5.81,-5.12,5.69,11.75,23.28,2.74
1.00,0.00,206.06,7.62,-121.44,2.38,1.31,-0.19,23.47,2.76
1.00,1.00,287.88,-6.81,-53.19,-8.19,14.31,3.62,23.47,2.76
1.00,2.00,342.75,-30.25,5.81,-7.00,6.38,12.44,23.47,2.76
1.00,0.00,205.94,7.62,-121.44,0.94,1.00,-0.56,23.64,2.78
1.00,1.00,287.62,-6.94,-53.06,-7.56,14.31,3.19,23.64,2.78
1.00,2.00,342.44,-30.38,5.88,-7.81,6.00,12.06,23.64,2.78
1.00,0.00,206.00,7.56,-121.44,-0.12,-0.81,0.19,23.80,2.80
1.00,1.00,287.44,-7.00,-52.94,-7.94,13.62,2.81,23.80,2.80
1.00,2.00,342.19,-30.56,5.88,-7.81,6.75,11.25,23.80,2.80
1.00,0.00,206.06,7.56,-121.44,-0.06,-1.25,0.94,23.98,2.82
1.00,1.00,287.25,-7.12,-52.81,-8.81,13.00,2.12,23.98,2.82
1.00,2.00,341.94,-30.69,5.94,-8.94,7.44,10.00,23.98,2.82
1.00,0.00,206.12,7.50,-121.38,-1.44,-0.94,-1.06,24.14,2.84
1.00,1.00,287.12,-7.25,-52.62,-9.12,12.12,1.00,24.14,2.84
1.00,2.00,341.75,-30.81,6.06,-9.69,9.19,9.31,24.14,2.84
1.00,0.00,206.25,7.50,-121.38,-0.31,-2.38,-1.81,24.30,2.86
1.00,1.00,287.00,-7.44,-52.50,-9.00,10.94,0.44,24.30,2.86
1.00,2.00,341.56,-31.00,6.19,-8.44,8.38,8.00,24.30,2.86
1.00,0.00,206.25,7.44,-121.38,0.38,-2.50,-2.81,24.45,2.88
1.00,1.00,286.88,-7.56,-52.38,-7.88,10.38,0.25,24.45,2.88
1.00,2.00,341.38,-31.19,6.25,-6.81,7.81,7.62,24.45,2.88
1.00,0.00,206.44,7.31,-121.44,1.94,-3.88,-2.62,24.61,2.90
1.00,1.00,286.81,-7.75,-52.25,-7.06,9.56,0.12,24.61,2.90
1.00,2.00,341.25,-31.31,6.38,-6.25,6.94,6.25,24.61,2.90
1.00,0.00,206.56,7.25,-121.50,3.00,-3.50,-2.19,24.78,2.92
1.00,1.00,286.75,-7.88,-52.12,-6.50,7.94,-0.31,24.78,2.92
1.00,2.00,341.12,-31.38,6.50,-5.56,5.94,5.81,24.78,2.92
1.00,0.00,206.69,7.19,-121.56,4.50,-2.00,-2.56,24.97,2.94
1.00,1.00,286.69,-7.94,-52.00,-6.19,6.75,-0.50,24.97,2.94
1.00,2.00,341.00,-31.50,6.62,-5.06,4.56,4.88,24.97,2.94
1.00,0.00,206.81,7.12,-121.69,6.19,-3.56,-2.62,25.17,2.96
1.00,1.00,286.62,-8.06,-51.88,-5.75,5.69,-0.81,25.17,2.96
1.00,2.00,340.94,-31.56,6.69,-3.69,4.06,4.25,25.17,2.96
1.00,0.00,206.88,7.00,-121.81,8.50,-7.50,-2.50,25.36,2.98
1.00,1.00,286.62,-8.19,-51.81,-4.62,4.88,-2.12,25.36,2.98
1.00,2.00,340.88,-31.56,6.81,-0.94,3.31,3.69,25.36,2.98
1.00,0.00,207.25,6.88,-122.06,12.12,-11.62,-1.06,25.58,3.00
1.00,1.00,286.62,-8.31,-51.69,-4.38,3.75,-2.62,25.58,3.00
1.00,2.00,340.81,-31.62,6.81,1.12,3.56,2.25,25.58,3.00
1.00,0.00,207.44,6.75,-122.31,11.75,-9.81,-2.19,25.79,3.02
1.00,1.00,286.62,-8.38,-51.62,-4.12,4.00,-2.44,25.79,3.02
1.00,2.00,340.81,-31.69,6.75,1.12,2.94,1.62,25.79,3.02
1.00,0.00,207.69,6.62,-122.56,11.56,-8.69,-1.50,25.99,3.04
1.00,1.00,286.62,-8.50,-51.56,-4.38,3.38,-2.00,25.99,3.04
1.00,2.00,340.81,-31.75,6.75,1.69,1.69,1.75,25.99,3.04
1.00,0.00,207.75,6.62,-122.75,11.75,-5.19,1.19,26.19,3.06
1.00,1.00,286.69,-8.56,-51.44,-4.31,3.06,-1.69,26.19,3.06
1.00,2.00,340.75,-31.75,6.69,1.81,1.00,2.25,26.19,3.06
1.00,0.00,207.50,6.75,-123.00,11.50,-0.06,3.19,26.39,3.08
1.00,1.00,286.69,-8.69,-51.38,-4.00,3.38,-1.88,26.39,3.08
1.00,2.00,340.75,-31.75,6.62,1.31,-0.75,2.31,26.39,3.08
1.00,0.00,207.06,6.94,-123.19,10.69,5.19,5.44,26.59,3.10
1.00,1.00,286.69,-8.75,-51.31,-4.38,3.06,-1.75,26.59,3.10
1.00,2.00,340.69,-31.75,6.56,0.75,-1.12,2.19,26.59,3.10
1.00,0.00,206.62,7.19,-123.31,7.62,12.00,4.62,26.74,3.12
1.00,1.00,286.69,-8.81,-51.25,-4.75,2.94,-1.81,26.74,3.12
1.00,2.00,340.62,-31.75,6.56,0.06,-1.00,2.00,26.74,3.12
1.00,0.00,206.06,7.38,-123.38,6.38,14.00,4.06,26.87,3.14
1.00,1.00,286.69,-8.88,-51.19,-4.25,2.56,-2.31,26.87,3.14
1.00,2.00,340.62,-31.69,6.56,-0.06,-0.94,2.12,26.87,3.14
1.00,0.00,205.44,7.62,-123.50,7.00,13.56,5.12,27.03,3.16
1.00,1.00,286.69,-8.94,-51.06,-4.56,2.69,-2.69,27.03,3.16
1.00,2.00,340.56,-31.69,6.50,-1.00,-0.31,1.44,27.03,3.16
1.00,0.00,204.94,7.88,-123.56,5.00,15.19,4.25,27.17,3.18
1.00,1.00,286.75,-9.06,-51.00,-5.94,2.31,-3.00,27.17,3.18
1.00,2.00,340.56,-31.69,6.56,-2.06,0.75,0.25,27.17,3.18
1.00,0.00,204.44,8.00,-123.62,3.62,14.50,2.12,27.30,3.20
1.00,1.00,286.75,-9.12,-50.88,-6.38,2.38,-3.44,27.30,3.20
1.00,2.00,340.56,-31.69,6.62,-2.94,0.50,-0.38,27.30,3.20
1.00,0.00,204.31,8.06,-123.56,1.56,14.31,-0.62,27.38,3.22
1.00,1.00,286.81,-9.19,-50.81,-6.00,2.75,-4.06,27.38,3.22
1.00,2.00,340.56,-31.62,6.69,-2.50,1.62,-0.94,27.38,3.22
1.00,0.00,204.19,8.00,-123.50,0.81,11.25,-2.50,27.44,3.24
1.00,1.00,286.88,-9.31,-50.69,-6.12,3.12,-4.62,27.44,3.24
1.00,2.00,340.56,-31.69,6.69,-1.88,3.62,-0.44,27.44,3.24
1.00,0.00,204.19,7.94,-123.44,1.12,6.31,-3.56,27.52,3.26
1.00,1.00,286.88,-9.44,-50.56,-7.56,3.88,-4.38,27.52,3.26
1.00,2.00,340.50,-31.75,6.69,-3.19,5.38,-0.12,27.52,3.26
1.00,0.00,204.31,7.75,-123.38,0.25,3.19,-6.19,27.63,3.28
1.00,1.00,286.88,-9.56,-50.44,-7.81,4.75,-3.75,27.63,3.28
1.00,2.00,340.50,-31.81,6.75,-4.94,6.00,0.06,27.63,3.28
1.00,0.00,204.56,7.56,-123.31,-1.00,0.25,-8.81,27.71,3.30
1.00,1.00,286.94,-9.62,-50.31,-7.69,4.81,-3.75,27.71,3.30
1.00,2.00,340.44,-31.88,6.88,-5.31,6.94,0.12,27.71,3.30
1.00,0.00,204.69,7.50,-123.31,-1.69,-2.06,-10.31,27.80,3.32
1.00,1.00,286.94,-9.75,-50.19,-7.62,5.12,-4.00,27.80,3.32
1.00,2.00,340.44,-32.00,7.00,-6.00,6.75,0.19,27.80,3.32
1.00,0.00,205.06,7.31,-123.25,-3.12,-3.69,-11.69,27.86,3.34
1.00,1.00,286.94,-9.88,-50.06,-7.12,5.19,-4.00,27.86,3.34
1.00,2.00,340.44,-32.12,7.12,-6.00,7.25,0.56,27.86,3.34
1.00,0.00,205.50,7.06,-123.19,-4.75,-3.88,-12.19,27.88,3.36
1.00,1.00,286.94,-10.00,-49.94,-7.31,5.00,-3.38,27.88,3.36
1.00,2.00,340.38,-32.25,7.19,-5.69,8.56,0.75,27.88,3.36
1.00,0.00,205.94,6.81,-123.06,-5.81,-3.06,-12.50,27.89,3.38
1.00,1.00,286.94,-10.12,-49.81,-7.19,5.19,-3.50,27.89,3.38
1.00,2.00,340.38,-32.44,7.38,-6.62,8.50,0.38,27.89,3.38
1.00,0.00,206.31,6.56,-122.94,-6.75,-2.19,-12.50,27.90,3.40
1.00,1.00,286.94,-10.25,-49.75,-6.56,5.75,-3.44,27.90,3.40
1.00,2.00,340.31,-32.56,7.50,-7.19,8.62,0.62,27.90,3.40
1.00,0.00,206.62,6.38,-122.75,-7.38,-1.06,-11.69,27.90,3.42
1.00,1.00,286.94,-10.38,-49.62,-6.81,6.12,-3.31,27.90,3.42
1.00,2.00,340.25,-32.75,7.62,-7.44,8.69,0.38,27.90,3.42
1.00,0.00,206.88,6.19,-122.62,-8.25,-0.56,-10.25,27.90,3.44
1.00,1.00,286.94,-10.50,-49.50,-7.62,6.56,-2.81,27.90,3.44
1.00,2.00,340.19,-32.88,7.75,-8.12,8.31,1.06,27.90,3.44
1.00,0.00,207.06,6.06,-122.44,-8.81,-0.31,-9.06,27.89,3.46
1.00,1.00,286.88,-10.62,-49.38,-8.56,6.88,-2.00,27.89,3.46
1.00,2.00,340.12,-33.06,7.94,-8.31,7.88,0.88,27.89,3.46
1.00,0.00,207.19,5.94,-122.25,-9.25,-0.44,-8.81,27.87,3.48
1.00,1.00,286.88,-10.75,-49.25,-8.88,6.81,-2.19,27.87,3.48
1.00,2.00,340.12,-33.19,8.06,-8.44,7.38,0.56,27.87,3.48
1.00,0.00,207.38,5.81,-122.06,-10.94,0.94,-8.31,27.82,3.50
1.00,1.00,286.81,-10.88,-49.06,-8.88,6.69,-2.31,27.82,3.50
1.00,2.00,340.06,-33.31,8.25,-8.19,6.56,0.62,27.82,3.50
1.00,0.00,207.56,5.69,-121.81,-11.19,0.81,-8.19,27.76,3.52
1.00,1.00,286.81,-11.00,-48.94,-9.25,6.81,-2.62,27.76,3.52
1.00,2.00,340.00,-33.44,8.38,-8.19,7.19,0.75,27.76,3.52
1.00,0.00,207.50,5.56,-121.62,-10.75,-0.12,-7.31,27.73,3.54
1.00,1.00,286.75,-11.12,-48.75,-9.88,6.69,-2.44,27.73,3.54
1.00,2.00,339.94,-33.56,8.56,-9.25,7.44,0.56,27.73,3.54
1.00,0.00,207.69,5.50,-121.44,-9.56,-1.12,-7.06,27.74,3.56
1.00,1.00,286.75,-11.25,-48.56,-10.00,6.81,-2.56,27.74,3.56
1.00,2.00,339.88,-33.69,8.81,-10.25,7.62,-0.12,27.74,3.56
1.00,0.00,207.88,5.38,-121.31,-8.69,-1.50,-6.62,27.77,3.58
1.00,1.00,286.69,-11.38,-48.38,-9.44,6.88,-3.06,27.77,3.58
1.00,2.00,339.88,-33.88,9.00,-10.06,7.62,-0.56,27.77,3.58
1.00,0.00,208.00,5.25,-121.19,-5.94,-1.56,-6.25,27.85,3.60
1.00,1.00,286.69,-11.50,-48.25,-9.38,6.50,-3.25,27.85,3.60
1.00,2.00,339.81,-34.00,9.25,-10.06,8.31,-0.94,27.85,3.60
1.00,0.00,208.19,5.12,-121.12,-4.75,-2.06,-6.00,28.00,3.62
1.00,1.00,286.69,-11.62,-48.06,-10.00,6.38,-3.31,28.00,3.62
1.00,2.00,339.75,-34.12,9.50,-12.00,8.62,-1.50,28.00,3.62
1.00,0.00,208.56,5.00,-121.12,-2.50,-4.62,-5.38,28.18,3.64
1.00,1.00,286.69,-11.81,-47.88,-9.06,5.06,-4.25,28.18,3.64
1.00,2.00,339.75,-34.31,9.75,-11.62,7.25,-2.25,28.18,3.64
1.00,0.00,208.81,4.88,-121.12,0.62,-5.56,-5.25,28.33,3.66
1.00,1.00,286.75,-11.94,-47.75,-6.38,3.88,-5.94,28.33,3.66
1.00,2.00,339.75,-34.38,10.00,-6.69,6.12,-2.56,28.33,3.66
1.00,0.00,209.00,4.75,-121.12,3.25,-4.00,-6.12,28.45,3.68
1.00,1.00,286.81,-12.06,-47.62,-4.69,3.25,-5.44,28.45,3.68
1.00,2.00,339.81,-34.50,10.06,-3.06,6.06,-2.25,28.45,3.68
1.00,0.00,209.12,4.62,-121.25,4.44,0.88,-6.00,28.62,3.70
1.00,1.00,286.88,-12.19,-47.50,-4.62,3.06,-3.88,28.62,3.70
1.00,2.00,339.81,-34.62,10.19,-4.06,4.50,-0.38,28.62,3.70
1.00,0.00,209.06,4.62,-121.31,4.06,5.81,-4.25,28.81,3.72
1.00,1.00,286.88,-12.19,-47.50,-5.25,3.00,-2.12,28.81,3.72
1.00,2.00,339.75,-34.69,10.25,-5.31,3.31,1.69,28.81,3.72
1.00,0.00,208.62,4.62,-121.38,4.44,7.81,-1.56,29.01,3.74
1.00,1.00,286.88,-12.31,-47.38,-4.75,3.25,-1.81,29.01,3.74
1.00,2.00,339.69,-34.75,10.38,-5.69,1.50,2.88,29.01,3.74
1.00,0.00,208.31,4.75,-121.44,5.12,8.25,0.62,29.17,3.76
1.00,1.00,286.88,-12.38,-47.25,-4.00,3.62,-2.00,29.17,3.76
1.00,2.00,339.62,-34.75,10.38,-2.69,1.38,2.75,29.17,3.76
1.00,0.00,208.00,4.81,-121.50,4.88,8.00,1.06,29.32,3.78
1.00,1.00,286.88,-12.44,-47.25,-4.19,3.94,-1.56,29.32,3.78
1.00,2.00,339.56,-34.81,10.44,-2.62,2.00,2.06,29.32,3.78
1.00,0.00,207.75,4.88,-121.56,3.81,5.94,-0.31,29.46,3.80
1.00,1.00,286.88,-12.56,-47.12,-5.25,4.00,-1.06,29.46,3.80
1.00,2.00,339.50,-34.88,10.50,-3.31,2.56,0.44,29.46,3.80
1.00,0.00,207.56,4.94,-121.56,2.88,4.94,-0.75,29.57,3.82
1.00,1.00,286.81,-12.56,-47.12,-5.00,3.19,-1.56,29.57,3.82
1.00,2.00,339.50,-34.88,10.56,-2.75,2.25,0.56,29.57,3.82
1.00,0.00,207.50,4.94,-121.56,0.06,4.50,-3.12,29.64,3.84
1.00,1.00,286.88,-12.69,-46.94,-4.94,2.56,-2.19,29.64,3.84
1.00,2.00,339.50,-34.94,10.62,-3.06,2.00,1.06,29.64,3.84
1.00,0.00,207.50,4.88,-121.56,-2.75,2.56,-4.50,29.67,3.86
1.00,1.00,286.88,-12.75,-46.88,-5.50,2.88,-2.00,29.67,3.86
1.00,2.00,339.44,-34.94,10.69,-4.25,2.88,1.00,29.67,3.86
1.00,0.00,207.38,4.81,-121.50,-3.06,-1.25,-3.00,29.70,3.88
1.00,1.00,286.88,-12.81,-46.81,-7.00,3.31,-2.50,29.70,3.88
1.00,2.00,339.44,-35.06,10.75,-4.50,5.00,0.06,29.70,3.88
1.00,0.00,207.56,4.75,-121.44,-1.88,-5.69,-1.81,29.77,3.90
1.00,1.00,286.88,-12.94,-46.62,-6.88,3.88,-2.75,29.77,3.90
1.00,2.00,339.38,-35.12,10.88,-5.50,4.56,-0.44,29.77,3.90
1.00,0.00,207.88,4.62,-121.38,-2.31,-8.12,-3.12,29.83,3.92
1.00,1.00,286.88,-13.00,-46.56,-6.69,3.56,-2.75,29.83,3.92
1.00,2.00,339.38,-35.19,11.00,-5.19,4.62,-0.75,29.83,3.92
1.00,0.00,208.25,4.44,-121.31,-4.19,-7.31,-4.88,29.83,3.94
1.00,1.00,286.88,-13.12,-46.38,-6.88,3.69,-2.81,29.83,3.94
1.00,2.00,339.38,-35.31,11.12,-4.50,5.06,-1.25,29.83,3.94
1.00,0.00,208.56,4.31,-121.25,-4.62,-5.62,-4.62,29.83,3.96
1.00,1.00,286.88,-13.25,-46.25,-6.56,3.81,-2.69,29.83,3.96
1.00,2.00,339.38,-35.38,11.25,-4.75,4.81,-0.06,29.83,3.96
1.00,0.00,208.75,4.25,-121.12,-4.06,-3.88,-3.69,29.84,3.98
1.00,1.00,286.88,-13.25,-46.25,-6.25,4.06,-2.50,29.84,3.98
1.00,2.00,339.38,-35.44,11.38,-4.50,4.94,0.56,29.84,3.98
1.00,0.00,208.81,4.19,-121.06,-3.88,-1.00,-2.12,29.86,4.00
1.00,1.00,286.88,-13.44,-46.06,-5.88,4.06,-2.38,29.86,4.00
1.00,2.00,339.31,-35.56,11.44,-4.50,3.75,0.00,29.86,4.00
1.00,0.00,208.81,4.25,-120.94,-4.75,1.62,-1.12,29.85,4.02
1.00,1.00,286.88,-13.44,-46.00,-6.00,3.75,-2.25,29.85,4.02
1.00,2.00,339.31,-35.56,11.56,-4.31,3.69,-1.12,29.85,4.02
1.00,0.00,208.44,4.25,-120.81,-5.25,2.25,-1.38,29.82,4.04
1.00,1.00,286.88,-13.56,-45.88,-6.06,2.75,-2.44,29.82,4.04
1.00,2.00,339.31,-35.62,11.69,-3.88,3.94,-1.38,29.82,4.04
1.00,0.00,208.44,4.19,-120.75,-5.38,2.75,-2.44,29.77,4.06
1.00,1.00,286.88,-13.62,-45.75,-5.56,2.12,-2.56,29.77,4.06
1.00,2.00,339.31,-35.69,11.75,-3.12,3.06,-0.44,29.77,4.06
1.00,0.00,208.50,4.19,-120.62,-6.38,4.06,-3.19,29.70,4.08
1.00,1.00,286.88,-13.69,-45.69,-5.31,2.31,-2.12,29.70,4.08
1.00,2.00,339.31,-35.75,11.81,-2.81,2.56,0.19,29.70,4.08
1.00,0.00,208.44,4.19,-120.44,-7.31,4.06,-3.56,29.65,4.10
1.00,1.00,286.88,-13.75,-45.56,-5.69,2.38,-1.00,29.65,4.10
1.00,2.00,339.25,-35.81,11.88,-4.56,2.19,1.00,29.65,4.10
1.00,0.00,208.44,4.19,-120.31,-7.25,2.50,-3.19,29.62,4.12
1.00,1.00,286.88,-13.81,-45.50,-6.19,2.75,-0.56,29.62,4.12
1.00,2.00,339.25,-35.81,12.00,-5.94,3.00,0.56,29.62,4.12
1.00,0.00,208.56,4.12,-120.19,-5.88,1.94,-2.88,29.58,4.14
1.00,1.00,286.88,-13.81,-45.38,-6.12,3.25,-1.00,29.58,4.14
1.00,2.00,339.25,-35.88,12.06,-3.94,3.94,0.50,29.58,4.14
1.00,0.00,208.56,4.06,-120.06,-5.56,1.44,-3.50,29.55,4.16
1.00,1.00,286.81,-13.88,-45.25,-5.62,3.56,-0.75,29.55,4.16
1.00,2.00,339.19,-35.94,12.19,-3.81,4.50,0.69,29.55,4.16
1.00,0.00,208.50,4.06,-119.94,-6.38,1.25,-3.69,29.52,4.18
1.00,1.00,286.81,-13.94,-45.19,-5.50,3.62,-0.50,29.52,4.18
1.00,2.00,339.19,-36.06,12.25,-4.75,3.75,0.56,29.52,4.18
1.00,0.00,208.56,4.00,-119.81,-6.44,1.94,-3.62,29.52,4.20
1.00,1.00,286.75,-14.00,-45.06,-6.56,3.25,-0.25,29.52,4.20
1.00,2.00,339.12,-36.12,12.38,-6.62,3.94,0.31,29.52,4.20
1.00,0.00,208.62,3.94,-119.69,-5.88,1.00,-3.50,29.56,4.22
1.00,1.00,286.69,-14.06,-45.00,-6.50,2.75,-0.38,29.56,4.22
1.00,2.00,339.06,-36.19,12.56,-7.94,3.81,0.06,29.56,4.22
1.00,0.00,208.81,3.88,-119.56,-4.88,0.12,-3.75,29.61,4.24
1.00,1.00,286.69,-14.12,-44.88,-5.44,2.12,-1.00,29.61,4.24
1.00,2.00,339.06,-36.25,12.75,-7.56,4.06,-0.44,29.61,4.24
1.00,0.00,208.88,3.81,-119.50,-4.50,-1.31,-4.00,29.65,4.26
1.00,1.00,286.69,-14.19,-44.75,-5.19,1.88,-0.88,29.65,4.26
1.00,2.00,339.00,-36.31,12.88,-6.06,4.25,-0.38,29.65,4.26
1.00,0.00,208.88,3.69,-119.44,-2.88,-2.81,-3.81,29.71,4.28
1.00,1.00,286.69,-14.25,-44.69,-5.25,1.88,-1.00,29.71,4.28
1.00,2.00,339.00,-36.38,13.00,-6.00,3.19,-1.38,29.71,4.28
1.00,0.00,209.12,3.62,-119.44,-0.44,-4.31,-4.00,29.76,4.30
1.00,1.00,286.75,-14.31,-44.56,-3.56,0.75,-2.44,29.76,4.30
1.00,2.00,339.00,-36.44,13.12,-3.25,1.88,-2.25,29.76,4.30
1.00,0.00,209.38,3.50,-119.50,2.19,-5.44,-4.12,29.79,4.32
1.00,1.00,286.81,-14.38,-44.50,-1.56,-0.38,-4.19,29.79,4.32
1.00,2.00,339.06,-36.44,13.19,1.12,2.00,-3.38,29.79,4.32
1.00,0.00,209.44,3.38,-119.56,4.12,-5.56,-4.00,29.78,4.34
1.00,1.00,286.88,-14.44,-44.50,-0.31,-0.88,-3.88,29.78,4.34
1.00,2.00,339.19,-36.50,13.19,4.38,2.88,-3.12,29.78,4.34
1.00,0.00,209.69,3.25,-119.69,4.88,-4.94,-2.88,29.85,4.36
1.00,1.00,286.94,-14.50,-44.50,-0.06,-0.94,-2.19,29.85,4.36
1.00,2.00,339.25,-36.50,13.12,1.56,0.56,-1.25,29.85,4.36
1.00,0.00,209.88,3.19,-119.75,4.06,-4.00,-1.56,29.94,4.38
1.00,1.00,287.00,-14.50,-44.50,-0.44,-1.06,-0.56,29.94,4.38
1.00,2.00,339.25,-36.50,13.12,-0.69,-0.19,-0.06,29.94,4.38
1.00,0.00,210.00,3.12,-119.81,3.00,-3.44,0.12,30.02,4.40
1.00,1.00,287.00,-14.50,-44.44,-1.38,-0.31,0.69,30.02,4.40
1.00,2.00,339.25,-36.50,13.19,-1.12,-0.81,0.31,30.02,4.40
1.00,0.00,209.94,3.19,-119.81,1.44,-1.69,0.75,30.06,4.42
1.00,1.00,286.94,-14.50,-44.44,-1.12,-0.25,1.00,30.06,4.42
1.00,2.00,339.25,-36.44,13.19,-0.12,-0.69,0.00,30.06,4.42
1.00,0.00,209.69,3.31,-119.75,-1.00,2.06,1.31,30.03,4.44
1.00,1.00,286.94,-14.50,-44.44,-1.19,0.19,1.19,30.03,4.44
1.00,2.00,339.25,-36.44,13.19,0.12,0.25,-0.62,30.03,4.44
1.00,0.00,209.38,3.44,-119.69,-3.62,6.69,2.69,29.99,4.46
1.00,1.00,286.94,-14.50,-44.44,-1.81,0.31,1.62,29.99,4.46
1.00,2.00,339.25,-36.44,13.25,-1.31,-0.62,-1.31,29.99,4.46
1.00,0.00,208.94,3.62,-119.56,-5.50,11.31,3.75,29.89,4.48
1.00,1.00,286.88,-14.50,-44.38,-1.50,0.12,0.75,29.89,4.48
1.00,2.00,339.25,-36.44,13.25,-0.50,-0.88,-0.56,29.89,4.48
1.00,0.00,208.50,3.81,-119.44,-7.25,11.88,4.25,29.78,4.50
1.00,1.00,286.88,-14.44,-44.38,-2.00,0.06,1.06,29.78,4.50
1.00,2.00,339.25,-36.44,13.25,-1.69,-0.44,0.25,29.78,4.50
1.00,0.00,208.06,4.00,-119.25,-8.12,11.25,4.50,29.70,4.52
1.00,1.00,286.81,-14.44,-44.31,-2.81,0.19,1.62,29.70,4.52
1.00,2.00,339.25,-36.38,13.31,-4.25,-1.19,0.81,29.70,4.52
1.00,0.00,207.69,4.19,-119.06,-7.12,8.62,4.00,29.63,4.54
1.00,1.00,286.81,-14.44,-44.25,-3.31,0.62,1.75,29.63,4.54
1.00,2.00,339.19,-36.38,13.38,-3.62,-0.12,0.69,29.63,4.54
1.00,0.00,207.50,4.25,-118.94,-6.12,4.00,2.56,29.56,4.56
1.00,1.00,286.75,-14.38,-44.19,-3.06,0.44,1.44,29.56,4.56
1.00,2.00,339.12,-36.38,13.44,-2.69,-0.50,0.81,29.56,4.56
1.00,0.00,207.56,4.19,-118.88,-4.69,-0.75,1.12,29.51,4.58
1.00,1.00,286.69,-14.38,-44.12,-2.75,0.81,1.44,29.51,4.58
1.00,2.00,339.12,-36.38,13.50,-2.19,0.50,0.62,29.51,4.58
1.00,0.00,207.75,4.19,-118.81,-3.25,-3.56,0.56,29.51,4.60
1.00,1.00,286.69,-14.38,-44.12,-4.00,1.31,1.38,29.51,4.60
1.00,2.00,339.12,-36.38,13.50,-3.31,1.50,0.50,29.51,4.60
1.00,0.00,207.88,4.12,-118.75,-2.06,-3.88,0.19,29.56,4.62
1.00,1.00,286.62,-14.38,-44.00,-4.12,2.31,1.31,29.56,4.62
1.00,2.00,339.06,-36.44,13.62,-4.69,0.81,0.81,29.56,4.62
1.00,0.00,208.00,4.06,-118.75,-1.06,-5.62,0.12,29.62,4.64
1.00,1.00,286.56,-14.44,-43.94,-3.88,2.69,1.00,29.62,4.64
1.00,2.00,339.00,-36.44,13.69,-4.19,1.50,2.06,29.62,4.64
1.00,0.00,208.25,4.00,-118.81,0.12,-7.31,0.62,29.68,4.66
1.00,1.00,286.50,-14.44,-43.94,-3.81,4.12,1.19,29.68,4.66
1.00,2.00,338.94,-36.44,13.69,-2.75,2.69,2.56,29.68,4.66
1.00,0.00,208.50,3.94,-118.81,0.56,-7.94,0.31,29.72,4.68
1.00,1.00,286.44,-14.50,-43.88,-3.56,5.25,1.25,29.72,4.68
1.00,2.00,338.88,-36.50,13.69,-1.12,3.75,3.12,29.72,4.68
1.00,0.00,208.69,3.88,-118.88,-0.25,-7.31,-0.38,29.75,4.70
1.00,1.00,286.31,-14.56,-43.81,-4.06,5.94,1.50,29.75,4.70
1.00,2.00,338.81,-36.56,13.69,-1.88,3.56,3.44,29.75,4.70
1.00,0.00,208.88,3.81,-118.88,-1.00,-4.50,-0.88,29.79,4.72
1.00,1.00,286.25,-14.62,-43.75,-3.75,5.88,1.50,29.79,4.72
1.00,2.00,338.75,-36.62,13.69,-3.19,2.56,3.69,29.79,4.72
1.00,0.00,208.69,3.81,-118.88,-2.25,0.06,-0.88,29.80,4.74
1.00,1.00,286.12,-14.69,-43.75,-3.56,5.44,1.56,29.80,4.74
1.00,2.00,338.62,-36.69,13.69,-2.81,2.62,4.19,29.80,4.74
1.00,0.00,208.69,3.81,-118.81,-3.00,4.56,-0.44,29.80,4.76
1.00,1.00,286.06,-14.75,-43.69,-3.25,5.12,1.81,29.80,4.76
1.00,2.00,338.56,-36.75,13.69,-2.69,2.12,4.25,29.80,4.76
1.00,0.00,208.44,3.88,-118.75,-3.00,8.31,0.31,29.79,4.78
1.00,1.00,286.00,-14.75,-43.62,-3.19,4.12,1.62,29.79,4.78
1.00,2.00,338.44,-36.75,13.69,-2.69,1.44,4.00,29.79,4.78
1.00,0.00,208.12,4.00,-118.62,-3.00,10.56,-0.19,29.78,4.80
1.00,1.00,285.94,-14.81,-43.62,-3.00,3.38,1.50,29.78,4.80
1.00,2.00,338.38,-36.81,13.69,-2.62,1.38,3.75,29.78,4.80
1.00,0.00,207.75,4.06,-118.56,-2.19,10.25,-0.88,29.81,4.82
1.00,1.00,285.88,-14.81,-43.56,-2.94,3.25,1.44,29.81,4.82
1.00,2.00,338.31,-36.81,13.69,-3.44,1.50,3.44,29.81,4.82
1.00,0.00,207.50,4.19,-118.50,-1.50,8.25,-2.00,29.83,4.84
1.00,1.00,285.81,-14.88,-43.56,-3.12,3.31,1.25,29.83,4.84
1.00,2.00,338.19,-36.88,13.75,-2.75,2.44,3.12,29.83,4.84
1.00,0.00,207.31,4.19,-118.50,-1.00,5.31,-3.00,29.87,4.86
1.00,1.00,285.75,-14.88,-43.50,-2.88,3.31,1.44,29.87,4.86
1.00,2.00,338.12,-36.94,13.75,-2.94,2.25,2.88,29.87,4.86
1.00,0.00,207.31,4.12,-118.44,-1.00,1.44,-3.44,29.92,4.88
1.00,1.00,285.69,-14.94,-43.50,-2.62,3.31,1.38,29.92,4.88
1.00,2.00,338.06,-37.00,13.81,-3.62,1.62,2.44,29.92,4.88
1.00,0.00,207.25,4.06,-118.44,-0.56,-2.44,-3.69,29.97,4.90
1.00,1.00,285.62,-14.94,-43.44,-2.62,3.06,1.25,29.97,4.90
1.00,2.00,338.00,-37.00,13.81,-2.94,1.81,1.94,29.97,4.90
1.00,0.00,207.44,3.94,-118.44,-0.62,-4.56,-4.12,30.00,4.92
1.00,1.00,285.56,-15.00,-43.38,-3.50,2.56,1.06,30.00,4.92
1.00,2.00,338.00,-37.06,13.88,-2.25,2.56,1.00,30.00,4.92
1.00,0.00,207.69,3.81,-118.38,-1.12,-5.81,-4.31,30.03,4.94
1.00,1.00,285.56,-15.00,-43.38,-3.56,1.94,0.62,30.03,4.94
1.00,2.00,337.94,-37.12,13.94,-2.56,2.31,0.75,30.03,4.94
1.00,0.00,208.00,3.69,-118.38,-1.94,-6.19,-4.12,30.04,4.96
1.00,1.00,285.50,-15.06,-43.31,-3.44,2.25,0.38,30.04,4.96
1.00,2.00,337.94,-37.12,14.00,-2.31,2.06,0.88,30.04,4.96
1.00,0.00,208.31,3.56,-118.31,-2.06,-5.56,-3.88,30.04,4.98
1.00,1.00,285.50,-15.12,-43.25,-3.19,2.56,0.31,30.04,4.98
1.00,2.00,337.88,-37.19,14.00,-2.12,1.81,1.12,30.04,4.98
1.00,0.00,208.44,3.50,-118.31,-2.19,-0.50,-1.81,30.05,5.00
1.00,1.00,285.50,-15.12,-43.19,-3.50,2.88,0.31,30.05,5.00
1.00,2.00,337.88,-37.19,14.06,-2.75,1.94,0.94,30.05,5.00
1.00,0.00,208.38,3.50,-118.25,-2.00,1.94,-0.31,30.08,5.02
1.00,1.00,285.44,-15.19,-43.12,-3.81,3.00,0.19,30.08,5.02
1.00,2.00,337.81,-37.25,14.12,-3.56,1.81,0.88,30.08,5.02
1.00,0.00,208.25,3.50,-118.19,-1.81,2.69,0.25,30.12,5.04
1.00,1.00,285.44,-15.25,-43.06,-4.00,2.75,-0.56,30.12,5.04
1.00,2.00,337.81,-37.31,14.19,-3.38,1.75,0.44,30.12,5.04
1.00,0.00,208.19,3.56,-118.19,-0.38,1.00,0.88,30.17,5.06
1.00,1.00,285.38,-15.31,-43.00,-3.50,2.31,-0.75,30.17,5.06
1.00,2.00,337.81,-37.31,14.25,-2.94,1.31,-0.31,30.17,5.06
1.00,0.00,208.12,3.56,-118.19,-0.44,0.12,0.12,30.20,5.08
1.00,1.00,285.38,-15.38,-42.94,-3.31,1.69,-0.94,30.20,5.08
1.00,2.00,337.81,-37.31,14.31,-2.12,1.25,-0.62,30.20,5.08
1.00,0.00,208.19,3.56,-118.19,0.06,-1.50,0.25,30.23,5.10
1.00,1.00,285.44,-15.44,-42.88,-2.81,1.12,-0.88,30.23,5.10
1.00,2.00,337.81,-37.31,14.38,-1.44,1.25,-1.00,30.23,5.10
1.00,0.00,208.19,3.56,-118.19,-0.19,-0.19,0.88,30.24,5.12
1.00,1.00,285.44,-15.44,-42.81,-1.62,0.69,-0.44,30.24,5.12
1.00,2.00,337.81,-37.31,14.44,-0.88,0.00,-0.69,30.24,5.12
1.00,0.00,208.12,3.62,-118.19,-0.25,1.94,1.12,30.25,5.14
1.00,1.00,285.38,-15.44,-42.81,-0.81,0.62,0.25,30.25,5.14
1.00,2.00,337.81,-37.31,14.44,-0.56,-0.38,-0.62,30.25,5.14
1.00,0.00,208.06,3.62,-118.19,-0.44,0.81,1.25,30.26,5.16
1.00,1.00,285.38,-15.44,-42.75,-1.12,0.12,0.56,30.26,5.16
1.00,2.00,337.88,-37.31,14.50,-1.12,-0.62,-1.06,30.26,5.16
1.00,0.00,208.06,3.62,-118.19,-0.06,-2.25,1.44,30.27,5.18
1.00,1.00,285.44,-15.44,-42.75,-1.25,-0.69,0.06,30.27,5.18
1.00,2.00,337.88,-37.25,14.56,-0.31,-0.38,-1.62,30.27,5.18
1.00,0.00,208.00,3.62,-118.19,0.00,-2.44,2.38,30.25,5.20
1.00,1.00,285.44,-15.50,-42.75,-1.12,-1.00,0.00,30.25,5.20
1.00,2.00,337.94,-37.25,14.56,1.00,-0.69,-1.88,30.25,5.20
1.00,0.00,208.00,3.69,-118.19,-0.31,-1.50,2.88,30.21,5.22
1.00,1.00,285.44,-15.50,-42.69,-0.38,-1.44,0.06,30.21,5.22
1.00,2.00,338.00,-37.19,14.56,1.44,-2.12,-1.81,30.21,5.22
1.00,0.00,207.94,3.75,-118.12,-0.81,-0.62,2.94,30.18,5.24
1.00,1.00,285.44,-15.44,-42.69,0.00,-1.69,0.69,30.18,5.24
1.00,2.00,338.00,-37.19,14.56,1.00,-2.81,-1.56,30.18,5.24
1.00,0.00,207.88,3.81,-118.12,-1.00,0.12,2.75,30.14,5.26
1.00,1.00,285.44,-15.44,-42.69,0.00,-2.12,1.38,30.14,5.26
1.00,2.00,338.06,-37.06,14.62,0.75,-2.94,-1.94,30.14,5.26
1.00,0.00,207.81,3.88,-118.06,-0.94,1.12,3.25,30.12,5.28
1.00,1.00,285.44,-15.38,-42.69,0.25,-2.50,1.81,30.12,5.28
1.00,2.00,338.06,-37.00,14.62,0.19,-3.50,-2.50,30.12,5.28
1.00,0.00,207.69,3.94,-118.00,-0.75,2.69,3.81,30.07,5.30
1.00,1.00,285.44,-15.38,-42.62,1.25,-3.31,1.38,30.07,5.30
1.00,2.00,338.12,-36.94,14.62,1.75,-3.56,-3.19,30.07,5.30
1.00,0.00,207.56,4.00,-118.00,-0.50,2.62,3.81,30.00,5.32
1.00,1.00,285.50,-15.31,-42.69,2.06,-4.56,1.31,30.00,5.32
1.00,2.00,338.25,-36.81,14.62,3.12,-3.62,-4.00,30.00,5.32
1.00,0.00,207.44,4.06,-117.94,0.12,1.31,4.25,29.93,5.34
1.00,1.00,285.50,-15.25,-42.69,1.94,-5.12,1.38,29.93,5.34
1.00,2.00,338.31,-36.75,14.62,3.62,-4.38,-4.62,29.93,5.34
1.00,0.00,207.44,4.12,-117.88,0.56,-0.75,4.38,29.87,5.36
1.00,1.00,285.50,-15.19,-42.69,2.44,-5.44,1.62,29.87,5.36
1.00,2.00,338.44,-36.62,14.62,3.69,-4.88,-4.56,29.87,5.36
1.00,0.00,207.50,4.12,-117.81,1.31,-4.06,4.19,29.78,5.38
1.00,1.00,285.56,-15.06,-42.75,3.50,-6.31,1.62,29.78,5.38
1.00,2.00,338.50,-36.56,14.62,5.44,-5.38,-5.50,29.78,5.38
1.00,0.00,207.69,4.12,-117.81,0.94,-7.19,2.62,29.66,5.40
1.00,1.00,285.56,-15.00,-42.81,4.12,-6.50,1.44,29.66,5.40
1.00,2.00,338.75,-36.31,14.62,7.06,-4.94,-6.75,29.66,5.40
1.00,0.00,207.94,4.00,-117.81,0.44,-8.19,0.69,29.53,5.42
1.00,1.00,285.62,-14.88,-42.88,4.19,-6.56,1.25,29.53,5.42
1.00,2.00,338.94,-36.25,14.62,7.12,-3.12,-7.81,29.53,5.42
1.00,0.00,208.25,3.94,-117.75,0.06,-8.69,-0.25,29.42,5.44
1.00,1.00,285.69,-14.75,-42.94,3.81,-7.44,1.75,29.42,5.44
1.00,2.00,339.06,-36.19,14.56,5.50,-3.38,-7.75,29.42,5.44
1.00,0.00,208.50,3.88,-117.75,-0.62,-8.50,0.81,29.29,5.46
1.00,1.00,285.69,-14.62,-42.94,3.44,-7.81,1.50,29.29,5.46
1.00,2.00,339.31,-36.00,14.56,5.69,-4.62,-7.81,29.29,5.46
1.00,0.00,208.62,3.88,-117.75,-1.19,-5.38,2.75,29.11,5.48
1.00,1.00,285.81,-14.56,-43.00,5.19,-8.62,0.38,29.11,5.48
1.00,2.00,339.38,-35.94,14.56,8.12,-5.50,-8.56,29.11,5.48
1.00,0.00,208.69,3.88,-117.69,-2.06,-1.62,3.50,28.84,5.50
1.00,1.00,285.88,-14.44,-43.06,6.12,-8.62,0.12,28.84,5.50
1.00,2.00,339.75,-35.69,14.44,11.06,-6.50,-9.19,28.84,5.50
1.00,0.00,208.56,3.94,-117.69,-2.19,0.19,3.81,28.59,5.52
1.00,1.00,285.94,-14.31,-43.19,6.12,-9.31,0.88,28.59,5.52
1.00,2.00,339.94,-35.56,14.31,10.31,-4.19,-8.94,28.59,5.52
1.00,0.00,208.62,4.00,-117.62,-2.62,-3.69,4.06,28.40,5.54
1.00,1.00,286.00,-14.12,-43.25,5.06,-9.25,1.94,28.40,5.54
1.00,2.00,340.06,-35.50,14.25,6.88,-4.56,-8.56,28.40,5.54
1.00,0.00,208.69,4.06,-117.56,-2.31,-6.12,4.19,28.19,5.56
1.00,1.00,286.06,-14.00,-43.31,5.25,-8.94,0.94,28.19,5.56
1.00,2.00,340.38,-35.31,14.19,8.12,-5.25,-8.44,28.19,5.56
1.00,0.00,208.88,4.06,-117.56,-1.75,-5.56,2.75,27.93,5.58
1.00,1.00,286.19,-13.88,-43.38,6.88,-9.31,-0.06,27.93,5.58
1.00,2.00,340.50,-35.25,14.19,11.25,-5.31,-9.12,27.93,5.58
1.00,0.00,208.94,4.00,-117.50,-3.94,-3.88,2.06,27.63,5.60
1.00,1.00,286.25,-13.75,-43.50,6.50,-9.12,0.81,27.63,5.60
1.00,2.00,340.81,-35.06,14.00,11.06,-3.44,-7.62,27.63,5.60
1.00,0.00,208.94,4.12,-117.44,-4.25,-1.75,4.75,27.47,5.62
1.00,1.00,286.25,-13.56,-43.56,4.19,-7.75,2.62,27.47,5.62
1.00,2.00,340.94,-34.94,13.94,4.00,-6.12,-4.38,27.47,5.62
1.00,0.00,208.75,4.25,-117.38,-3.62,3.25,6.69,27.30,5.64
1.00,1.00,286.31,-13.44,-43.62,4.31,-7.19,2.50,27.30,5.64
1.00,2.00,341.00,-34.88,13.88,4.81,-7.12,-1.75,27.30,5.64
1.00,0.00,208.38,4.44,-117.31,-2.38,8.81,7.19,27.10,5.66
1.00,1.00,286.31,-13.31,-43.75,5.50,-6.12,1.56,27.10,5.66
1.00,2.00,341.00,-34.69,13.75,7.88,-5.62,-0.06,27.10,5.66
1.00,0.00,207.88,4.62,-117.25,-3.38,12.88,6.75,26.87,5.68
1.00,1.00,286.31,-13.19,-43.88,5.81,-4.94,2.12,26.87,5.68
1.00,2.00,341.06,-34.62,13.62,7.69,-4.12,2.81,26.87,5.68
1.00,0.00,207.31,4.88,-117.19,-4.62,13.56,6.56,26.67,5.70
1.00,1.00,286.31,-13.06,-43.94,4.75,-3.56,3.25,26.67,5.70
1.00,2.00,340.94,-34.56,13.31,5.56,-2.06,6.69,26.67,5.70
1.00,0.00,206.81,5.12,-117.06,-4.62,13.19,6.38,26.58,5.72
1.00,1.00,286.25,-13.00,-44.00,2.88,-0.50,4.56,26.58,5.72
1.00,2.00,340.81,-34.56,13.12,-0.19,-3.00,9.25,26.58,5.72
1.00,0.00,206.25,5.31,-116.94,-3.69,14.25,4.94,26.53,5.74
1.00,1.00,286.19,-12.94,-44.06,2.38,1.94,4.81,26.53,5.74
1.00,2.00,340.69,-34.56,13.06,-1.06,-2.25,10.31,26.53,5.74
1.00,0.00,205.75,5.50,-116.88,-1.38,12.69,4.44,26.50,5.76
1.00,1.00,286.00,-12.81,-44.19,2.19,4.12,4.62,26.50,5.76
1.00,2.00,340.50,-34.56,12.94,-0.06,0.81,10.44,26.50,5.76
1.00,0.00,205.31,5.69,-116.88,-0.50,11.19,3.50,26.56,5.78
1.00,1.00,285.81,-12.69,-44.38,0.69,5.75,5.56,26.56,5.78
1.00,2.00,340.25,-34.62,12.81,-3.44,1.88,10.50,26.56,5.78
1.00,0.00,204.94,5.81,-116.88,-0.94,11.12,1.69,26.66,5.80
1.00,1.00,285.62,-12.62,-44.44,-0.38,6.19,5.69,26.66,5.80
1.00,2.00,340.06,-34.62,12.62,-5.88,3.50,10.06,26.66,5.80
1.00,0.00,204.62,5.94,-116.81,-0.75,9.75,-0.31,26.76,5.82
1.00,1.00,285.50,-12.62,-44.50,-0.88,6.00,5.25,26.76,5.82
1.00,2.00,339.69,-34.75,12.62,-5.75,3.75,8.81,26.76,5.82
1.00,0.00,204.50,5.94,-116.81,0.19,2.38,-2.81,26.85,5.84
1.00,1.00,285.31,-12.62,-44.56,-0.38,5.69,3.75,26.85,5.84
1.00,2.00,339.62,-34.81,12.62,-4.31,3.75,6.62,26.85,5.84
1.00,0.00,204.75,5.81,-116.88,1.38,-7.69,-5.19,26.90,5.86
1.00,1.00,285.25,-12.69,-44.56,0.50,4.50,2.19,26.90,5.86
1.00,2.00,339.50,-34.88,12.62,-1.31,4.62,4.81,26.90,5.86
1.00,0.00,205.38,5.56,-116.94,2.31,-17.31,-8.19,26.94,5.88
1.00,1.00,285.12,-12.69,-44.56,0.56,4.25,1.56,26.94,5.88
1.00,2.00,339.38,-35.00,12.56,0.44,5.00,4.06,26.94,5.88
1.00,0.00,206.19,5.19,-117.00,3.38,-23.12,-9.19,27.02,5.90
1.00,1.00,285.12,-12.75,-44.62,1.25,2.88,1.75,27.02,5.90
1.00,2.00,339.31,-35.12,12.50,-0.25,2.88,4.88,27.02,5.90
1.00,0.00,207.06,4.81,-117.06,2.38,-20.44,-10.06,27.05,5.92
1.00,1.00,285.06,-12.75,-44.62,1.75,2.69,2.19,27.05,5.92
1.00,2.00,339.19,-35.19,12.44,0.50,1.88,5.38,27.05,5.92
1.00,0.00,207.69,4.56,-117.12,1.25,-11.81,-9.00,27.07,5.94
1.00,1.00,285.00,-12.75,-44.69,2.19,3.00,2.69,27.07,5.94
1.00,2.00,339.12,-35.25,12.38,0.25,1.19,5.44,27.07,5.94
1.00,0.00,207.94,4.38,-117.12,1.56,-1.31,-5.75,27.11,5.96
1.00,1.00,284.94,-12.75,-44.81,1.81,3.25,2.06,27.11,5.96
1.00,2.00,339.00,-35.25,12.25,-0.25,0.88,4.56,27.11,5.96
1.00,0.00,207.81,4.38,-117.19,3.06,7.62,-2.38,27.18,5.98
1.00,1.00,284.88,-12.81,-44.88,1.31,3.50,1.50,27.18,5.98
1.00,2.00,338.94,-35.25,12.25,-0.31,2.31,3.88,27.18,5.98
1.00,0.00,207.44,4.50,-117.25,4.69,12.75,1.00,27.25,6.00
1.00,1.00,284.81,-12.88,-44.88,-0.19,3.56,-0.50,27.25,6.00
1.00,2.00,338.88,-35.31,12.19,0.81,3.69,3.44,27.25,6.00
1.00,0.00,206.94,4.69,-117.31,4.94,14.38,2.56,27.37,6.02
1.00,1.00,284.81,-12.94,-44.88,-0.62,4.12,-1.12,27.37,6.02
1.00,2.00,338.75,-35.44,12.12,-1.00,3.19,2.88,27.37,6.02
1.00,0.00,206.44,4.81,-117.38,4.56,12.00,2.75,27.49,6.04
1.00,1.00,284.81,-13.00,-44.94,-0.50,4.06,-0.88,27.49,6.04
1.00,2.00,338.75,-35.50,12.12,-1.56,2.88,3.00,27.49,6.04
1.00,0.00,206.12,4.94,-117.50,4.12,7.38,1.75,27.63,6.06
1.00,1.00,284.75,-13.06,-44.88,-1.19,3.62,0.31,27.63,6.06
1.00,2.00,338.62,-35.56,12.12,-2.69,1.44,2.75,27.63,6.06
1.00,0.00,206.00,5.00,-117.56,3.31,1.25,0.38,27.73,6.08
1.00,1.00,284.75,-13.12,-44.88,-0.94,3.12,0.56,27.73,6.08
1.00,2.00,338.62,-35.56,12.12,-1.62,0.44,2.50,27.73,6.08
1.00,0.00,206.12,4.94,-117.56,2.06,-4.25,-1.25,27.77,6.10
1.00,1.00,284.69,-13.19,-44.88,-0.75,1.81,0.69,27.77,6.10
1.00,2.00,338.50,-35.56,12.12,0.00,1.25,2.25,27.77,6.10
1.00,0.00,206.44,4.81,-117.62,1.31,-9.12,-1.88,27.80,6.12
1.00,1.00,284.69,-13.19,-44.88,-0.81,1.25,0.69,27.80,6.12
1.00,2.00,338.50,-35.62,12.06,-0.06,1.19,2.25,27.80,6.12
1.00,0.00,206.62,4.75,-117.62,1.56,-11.38,-1.81,27.84,6.14
1.00,1.00,284.69,-13.19,-44.88,-1.31,1.00,0.75,27.84,6.14
1.00,2.00,338.44,-35.62,12.06,-0.75,1.25,2.06,27.84,6.14
1.00,0.00,207.25,4.50,-117.75,2.62,-12.69,-1.62,27.94,6.16
1.00,1.00,284.62,-13.19,-44.88,-1.38,1.50,0.94,27.94,6.16
1.00,2.00,338.38,-35.69,12.06,-1.94,1.31,1.62,27.94,6.16
1.00,0.00,207.44,4.50,-117.75,3.50,-9.88,1.06,28.04,6.18
1.00,1.00,284.62,-13.25,-44.81,-1.50,2.12,0.94,28.04,6.18
1.00,2.00,338.38,-35.69,12.12,-1.75,1.62,1.44,28.04,6.18
1.00,0.00,207.69,4.44,-117.88,2.56,-5.31,1.25,28.12,6.20
1.00,1.00,284.56,-13.25,-44.81,-2.31,2.00,0.88,28.12,6.20
1.00,2.00,338.31,-35.75,12.12,-1.62,1.50,1.25,28.12,6.20
1.00,0.00,207.81,4.38,-117.88,1.06,-2.00,1.94,28.19,6.22
1.00,1.00,284.56,-13.25,-44.75,-2.75,1.62,0.44,28.19,6.22
1.00,2.00,338.31,-35.75,12.12,-2.25,0.75,1.00,28.19,6.22
1.00,0.00,207.75,4.44,-117.94,-0.38,0.94,1.62,28.23,6.24
1.00,1.00,284.50,-13.31,-44.69,-3.12,1.75,-0.56,28.23,6.24
1.00,2.00,338.25,-35.75,12.12,-2.38,0.56,0.88,28.23,6.24
1.00,0.00,207.69,4.50,-117.88,-1.12,1.12,1.44,28.25,6.26
1.00,1.00,284.50,-13.31,-44.62,-3.56,1.44,-1.06,28.25,6.26
1.00,2.00,338.25,-35.75,12.25,-2.25,0.75,-0.06,28.25,6.26
1.00,0.00,207.56,4.56,-117.88,-1.94,2.19,0.94,28.26,6.28
1.00,1.00,284.50,-13.38,-44.56,-3.44,1.38,-1.62,28.26,6.28
1.00,2.00,338.25,-35.75,12.25,-2.25,1.12,-1.25,28.26,6.28
1.00,0.00,207.44,4.62,-117.81,-2.19,3.25,0.62,28.26,6.30
1.00,1.00,284.56,-13.44,-44.50,-4.38,1.50,-2.00,28.26,6.30
1.00,2.00,338.31,-35.81,12.38,-2.19,2.06,-1.75,28.26,6.30
1.00,0.00,207.31,4.62,-117.75,-2.94,5.69,0.12,28.26,6.32
1.00,1.00,284.56,-13.50,-44.38,-4.56,1.25,-2.12,28.26,6.32
1.00,2.00,338.31,-35.81,12.44,-3.19,1.69,-2.12,28.26,6.32
1.00,0.00,207.12,4.69,-117.69,-3.56,6.12,-0.12,28.27,6.34
1.00,1.00,284.56,-13.56,-44.31,-4.81,1.00,-2.00,28.27,6.34
1.00,2.00,338.31,-35.81,12.50,-3.62,1.50,-2.12,28.27,6.34
1.00,0.00,207.00,4.75,-117.56,-3.94,3.56,-1.44,28.23,6.36
1.00,1.00,284.62,-13.56,-44.19,-4.75,0.69,-2.06,28.23,6.36
1.00,2.00,338.38,-35.88,12.69,-2.19,2.25,-1.88,28.23,6.36
1.00,0.00,206.94,4.75,-117.50,-3.12,2.00,-1.19,28.21,6.38
1.00,1.00,284.62,-13.62,-44.06,-4.62,0.88,-2.00,28.21,6.38
1.00,2.00,338.38,-35.88,12.69,-1.88,2.06,-2.25,28.21,6.38
1.00,0.00,207.00,4.69,-117.44,-2.75,1.19,-1.38,28.17,6.40
1.00,1.00,284.69,-13.69,-44.00,-3.69,0.50,-1.69,28.17,6.40
1.00,2.00,338.44,-35.94,12.81,-1.19,1.56,-2.31,28.17,6.40
1.00,0.00,207.06,4.62,-117.44,-1.50,-2.00,-2.06,28.17,6.42
1.00,1.00,284.69,-13.69,-43.94,-3.56,0.44,-1.56,28.17,6.42
1.00,2.00,338.50,-35.94,12.88,-1.06,2.25,-2.31,28.17,6.42
1.00,0.00,207.19,4.56,-117.38,-1.19,-2.25,-2.25,28.17,6.44
1.00,1.00,284.69,-13.75,-43.81,-3.69,0.75,-1.31,28.17,6.44
1.00,2.00,338.50,-35.94,12.94,-1.62,2.75,-2.00,28.17,6.44
1.00,0.00,207.31,4.50,-117.38,-1.00,-1.56,-2.56,28.20,6.46
1.00,1.00,284.69,-13.75,-43.75,-3.25,0.81,-1.00,28.20,6.46
1.00,2.00,338.56,-36.00,13.06,-2.19,2.62,-1.44,28.20,6.46
1.00,0.00,207.38,4.44,-117.38,-0.88,-2.06,-2.25,28.22,6.48
1.00,1.00,284.69,-13.81,-43.69,-3.12,0.88,-0.94,28.22,6.48
1.00,2.00,338.56,-36.00,13.06,-1.94,2.06,-0.94,28.22,6.48
1.00,0.00,207.50,4.44,-117.38,-1.19,-1.94,-2.19,28.24,6.50
1.00,1.00,284.69,-13.81,-43.62,-2.94,1.00,-0.56,28.24,6.50
1.00,2.00,338.56,-36.06,13.12,-2.06,1.94,-0.94,28.24,6.50
1.00,0.00,207.62,4.38,-117.31,-1.75,-2.50,-1.88,28.26,6.52
1.00,1.00,284.69,-13.81,-43.56,-3.38,1.00,-0.25,28.26,6.52
1.00,2.00,338.56,-36.12,13.19,-2.75,1.88,-0.69,28.26,6.52
1.00,0.00,207.75,4.31,-117.31,-1.94,-2.62,-1.06,28.27,6.54
1.00,1.00,284.69,-13.88,-43.50,-3.38,1.31,-0.19,28.27,6.54
1.00,2.00,338.56,-36.12,13.25,-2.81,1.81,-0.88,28.27,6.54
1.00,0.00,207.75,4.31,-117.31,-1.00,-1.81,-0.44,28.29,6.56
1.00,1.00,284.69,-13.88,-43.44,-2.19,1.44,0.06,28.29,6.56
1.00,2.00,338.56,-36.12,13.38,-1.94,1.12,-0.12,28.29,6.56
1.00,0.00,207.88,4.25,-117.31,-0.94,-3.00,-1.38,28.30,6.58
1.00,1.00,284.62,-13.94,-43.44,-1.56,1.56,0.38,28.30,6.58
1.00,2.00,338.56,-36.19,13.38,-1.25,1.00,0.38,28.30,6.58
1.00,0.00,208.00,4.19,-117.31,-0.25,-4.06,-1.19,28.34,6.60
1.00,1.00,284.62,-13.94,-43.38,-1.81,1.62,0.75,28.34,6.60
1.00,2.00,338.56,-36.19,13.38,-2.44,0.44,0.25,28.34,6.60
1.00,0.00,208.12,4.19,-117.31,-0.25,-3.06,-0.25,28.39,6.62
1.00,1.00,284.62,-14.00,-43.38,-2.19,1.12,0.62,28.39,6.62
1.00,2.00,338.50,-36.19,13.50,-2.69,0.62,-0.50,28.39,6.62
1.00,0.00,208.19,4.19,-117.31,0.44,-1.81,0.62,28.45,6.64
1.00,1.00,284.62,-14.00,-43.31,-2.12,-0.19,0.06,28.45,6.64
1.00,2.00,338.50,-36.19,13.50,-2.44,0.81,-0.88,28.45,6.64
1.00,0.00,208.19,4.19,-117.25,0.50,-1.38,1.50,28.46,6.66
1.00,1.00,284.62,-14.06,-43.19,-1.81,-1.19,-0.19,28.46,6.66
1.00,2.00,338.56,-36.19,13.62,-0.19,0.62,-2.44,28.46,6.66
1.00,0.00,208.19,4.19,-117.31,1.44,-1.12,1.38,28.47,6.68
1.00,1.00,284.69,-14.12,-43.12,-0.25,-1.69,-0.06,28.47,6.68
1.00,2.00,338.62,-36.19,13.69,1.06,-0.56,-2.44,28.47,6.68
1.00,0.00,208.19,4.25,-117.31,1.56,-1.50,0.75,28.47,6.70
1.00,1.00,284.69,-14.12,-43.12,1.31,-2.31,0.88,28.47,6.70
1.00,2.00,338.69,-36.19,13.69,1.81,-1.12,-1.88,28.47,6.70
1.00,0.00,208.19,4.25,-117.31,0.75,-0.94,0.50,28.45,6.72
1.00,1.00,284.69,-14.06,-43.12,1.25,-2.81,1.94,28.45,6.72
1.00,2.00,338.69,-36.12,13.62,1.38,-2.88,-0.75,28.45,6.72
1.00,0.00,208.19,4.25,-117.31,0.38,0.19,1.50,28.43,6.74
1.00,1.00,284.69,-14.00,-43.12,1.94,-3.44,1.88,28.43,6.74
1.00,2.00,338.75,-36.06,13.62,1.38,-3.62,-0.38,28.43,6.74
1.00,0.00,208.06,4.31,-117.38,0.75,2.81,2.25,28.38,6.76
1.00,1.00,284.75,-13.94,-43.12,2.62,-3.62,1.75,28.38,6.76
1.00,2.00,338.75,-35.94,13.62,3.44,-4.44,-1.06,28.38,6.76
1.00,0.00,207.88,4.38,-117.38,0.94,2.75,2.44,28.32,6.78
1.00,1.00,284.75,-13.94,-43.19,2.69,-4.38,1.19,28.32,6.78
1.00,2.00,338.81,-35.88,13.62,4.00,-4.06,-1.44,28.32,6.78
1.00,0.00,207.81,4.44,-117.38,1.50,1.44,3.06,28.27,6.80
1.00,1.00,284.81,-13.88,-43.19,3.94,-4.88,1.50,28.27,6.80
1.00,2.00,338.88,-35.81,13.56,4.12,-4.38,-1.69,28.27,6.80
1.00,0.00,207.69,4.50,-117.44,1.19,1.81,3.44,28.21,6.82
1.00,1.00,284.81,-13.81,-43.25,4.56,-5.50,2.12,28.21,6.82
1.00,2.00,338.94,-35.69,13.50,4.19,-4.38,-1.81,28.21,6.82
1.00,0.00,207.56,4.56,-117.44,1.06,0.44,3.62,28.13,6.84
1.00,1.00,284.88,-13.75,-43.31,4.94,-5.69,2.56,28.13,6.84
1.00,2.00,339.00,-35.62,13.44,4.88,-4.50,-2.06,28.13,6.84
1.00,0.00,207.50,4.69,-117.44,1.44,0.25,4.19,28.05,6.86
1.00,1.00,284.88,-13.62,-43.38,5.69,-6.06,2.69,28.05,6.86
1.00,2.00,339.06,-35.50,13.44,5.56,-5.44,-2.50,28.05,6.86
1.00,0.00,207.44,4.75,-117.44,1.69,-0.56,4.12,27.95,6.88
1.00,1.00,284.88,-13.50,-43.44,6.31,-6.38,3.25,27.95,6.88
1.00,2.00,339.12,-35.38,13.31,6.38,-5.50,-2.50,27.95,6.88
1.00,0.00,207.38,4.81,-117.50,1.88,-1.69,4.19,27.86,6.90
1.00,1.00,284.88,-13.38,-43.56,6.31,-6.81,3.56,27.86,6.90
1.00,2.00,339.19,-35.31,13.25,6.50,-5.44,-2.19,27.86,6.90
1.00,0.00,207.31,4.88,-117.50,1.44,-0.94,4.31,27.77,6.92
1.00,1.00,284.88,-13.25,-43.62,6.19,-7.06,4.00,27.77,6.92
1.00,2.00,339.31,-35.12,13.06,6.06,-6.56,-1.62,27.77,6.92
