Iteration,IMUNo,OrientationX (deg),OrientationY,OrientationZ,GyroX (20rad/sec),GyroY,GyroZ,Elbow_Pos (rad),Time (sec)
8.00,0.00,228.62,3.50,-104.94,-0.19,-0.19,-0.44,0.00,1.02
8.00,1.00,291.50,-3.31,-57.19,-0.25,0.44,0.00,0.00,1.02
8.00,2.00,354.94,-26.31,6.00,-0.44,0.38,0.06,0.00,1.02
8.00,0.00,228.62,3.50,-104.94,-0.50,0.31,-0.19,0.00,1.02
8.00,1.00,291.50,-3.31,-57.19,-0.19,0.19,0.12,0.00,1.02
8.00,2.00,354.94,-26.31,6.00,-0.31,0.62,0.19,0.00,1.04
8.00,0.00,228.62,3.50,-104.94,-0.56,0.38,-0.12,-0.01,1.04
8.00,1.00,291.50,-3.31,-57.19,0.06,0.19,0.00,-0.01,1.04
8.00,2.00,354.94,-26.31,6.00,0.25,0.81,0.00,-0.01,1.04
8.00,0.00,228.62,3.50,-104.94,0.06,0.19,0.06,-0.01,1.06
8.00,1.00,291.50,-3.31,-57.19,0.00,0.31,0.19,-0.01,1.06
8.00,2.00,354.94,-26.31,6.00,0.06,0.88,0.00,-0.01,1.06
8.00,0.00,228.62,3.50,-104.94,0.06,-0.31,-0.12,-0.02,1.08
8.00,1.00,291.50,-3.31,-57.19,-0.25,0.38,-0.06,-0.02,1.08
8.00,2.00,354.94,-26.31,6.00,0.19,0.50,0.06,-0.02,1.08
8.00,0.00,228.62,3.50,-104.94,-0.06,-0.19,-0.44,-0.02,1.10
8.00,1.00,291.50,-3.31,-57.19,-0.06,0.19,-0.25,-0.02,1.10
8.00,2.00,354.94,-26.31,6.00,0.12,0.62,0.06,-0.02,1.10
8.00,0.00,228.62,3.50,-104.94,0.06,-0.38,-0.25,-0.02,1.12
8.00,1.00,291.50,-3.31,-57.19,-0.31,0.00,-0.50,-0.02,1.12
8.00,2.00,354.94,-26.31,6.00,0.25,0.75,-0.25,-0.02,1.12
8.00,0.00,228.62,3.50,-104.94,0.00,-0.31,-0.19,-0.02,1.14
8.00,1.00,291.50,-3.31,-57.19,-0.19,-0.06,-0.44,-0.02,1.14
8.00,2.00,354.94,-26.38,6.00,0.12,0.94,-0.12,-0.02,1.14
8.00,0.00,228.62,3.50,-104.94,0.12,-0.06,-0.19,-0.02,1.16
8.00,1.00,291.50,-3.31,-57.19,0.12,-0.19,-0.25,-0.02,1.16
8.00,2.00,354.94,-26.38,6.00,0.12,0.75,0.06,-0.02,1.16
8.00,0.00,228.62,3.50,-104.94,0.00,-0.12,-0.25,-0.03,1.18
8.00,1.00,291.50,-3.31,-57.19,0.00,0.19,-0.31,-0.03,1.18
8.00,2.00,354.94,-26.38,6.00,0.38,0.50,-0.12,-0.03,1.18
8.00,0.00,228.62,3.50,-104.94,0.25,-0.50,-0.56,-0.04,1.20
8.00,1.00,291.50,-3.31,-57.19,0.00,-0.12,-0.25,-0.04,1.20
8.00,2.00,354.94,-26.38,6.00,0.56,0.44,-0.38,-0.04,1.20
8.00,0.00,228.62,3.44,-104.94,0.38,-0.50,-0.50,-0.03,1.22
8.00,1.00,291.50,-3.31,-57.19,-0.25,-0.31,-0.19,-0.03,1.22
8.00,2.00,354.94,-26.38,6.00,0.06,0.31,-0.31,-0.03,1.22
8.00,0.00,228.69,3.44,-104.94,0.00,-0.50,-0.38,-0.03,1.24
8.00,1.00,291.50,-3.31,-57.19,-0.25,-0.19,-0.06,-0.03,1.24
8.00,2.00,354.94,-26.38,6.00,0.19,0.38,-0.19,-0.03,1.24
8.00,0.00,228.69,3.44,-104.94,-0.19,-0.25,-0.19,-0.04,1.26
8.00,1.00,291.50,-3.31,-57.19,0.06,0.12,-0.06,-0.04,1.26
8.00,2.00,354.94,-26.38,6.00,-0.06,0.31,-0.12,-0.04,1.26
8.00,0.00,228.69,3.44,-104.94,-0.44,-0.19,-0.19,-0.04,1.28
8.00,1.00,291.50,-3.31,-57.19,-0.31,-0.19,0.06,-0.04,1.28
8.00,2.00,354.94,-26.38,6.00,-0.06,0.25,-0.44,-0.04,1.28
8.00,0.00,228.69,3.44,-104.94,-0.31,-0.31,-0.06,-0.05,1.30
8.00,1.00,291.50,-3.31,-57.19,-0.44,0.00,-0.06,-0.05,1.30
8.00,2.00,354.94,-26.38,6.00,-0.19,0.38,-0.50,-0.05,1.30
8.00,0.00,228.69,3.44,-104.94,-0.38,-0.44,-0.19,-0.05,1.32
8.00,1.00,291.50,-3.31,-57.19,-0.44,-0.06,-0.12,-0.05,1.32
8.00,2.00,355.00,-26.38,6.00,0.00,0.44,-0.56,-0.05,1.32
8.00,0.00,228.69,3.44,-104.94,-0.12,-0.56,0.00,-0.06,1.34
8.00,1.00,291.50,-3.31,-57.19,-0.50,0.31,0.00,-0.06,1.34
8.00,2.00,355.00,-26.38,6.00,0.12,0.62,-0.38,-0.06,1.34
8.00,0.00,228.69,3.44,-104.94,-0.12,-0.69,0.06,-0.06,1.36
8.00,1.00,291.50,-3.31,-57.19,-0.75,0.62,0.12,-0.06,1.36
8.00,2.00,355.00,-26.44,6.00,0.00,1.12,-0.06,-0.06,1.36
8.00,0.00,228.69,3.44,-104.94,-0.12,-1.19,0.12,-0.06,1.38
8.00,1.00,291.50,-3.31,-57.12,-0.94,1.31,0.31,-0.06,1.38
8.00,2.00,355.00,-26.44,6.06,-0.25,1.06,0.56,-0.06,1.38
8.00,0.00,228.75,3.44,-104.94,-0.25,-1.12,0.06,-0.04,1.40
8.00,1.00,291.50,-3.31,-57.12,-1.06,1.31,0.25,-0.04,1.40
8.00,2.00,354.94,-26.44,6.06,-1.06,1.12,0.94,-0.04,1.40
8.00,0.00,228.75,3.44,-105.00,0.00,-0.75,0.31,-0.03,1.42
8.00,1.00,291.50,-3.31,-57.12,-1.62,1.25,0.44,-0.03,1.42
8.00,2.00,354.94,-26.50,6.06,-0.75,1.44,0.69,-0.03,1.42
8.00,0.00,228.69,3.50,-105.06,0.94,-0.19,1.00,-0.01,1.44
8.00,1.00,291.50,-3.38,-57.06,-2.06,2.06,0.44,-0.01,1.44
8.00,2.00,354.94,-26.50,6.06,-0.25,1.12,0.38,-0.01,1.44
8.00,0.00,228.56,3.56,-105.12,2.50,1.62,1.94,0.05,1.46
8.00,1.00,291.44,-3.38,-57.00,-2.12,2.06,0.31,0.05,1.46
8.00,2.00,354.94,-26.50,6.06,-0.56,0.31,0.38,0.05,1.46
8.00,0.00,228.38,3.69,-105.25,3.94,3.94,2.75,0.12,1.48
8.00,1.00,291.44,-3.38,-57.00,-1.81,1.81,-0.69,0.12,1.48
8.00,2.00,354.94,-26.50,6.06,0.06,-0.50,1.44,0.12,1.48
8.00,0.00,228.12,3.75,-105.38,4.88,5.88,3.56,0.19,1.50
8.00,1.00,291.44,-3.44,-56.94,-2.38,2.38,-1.44,0.19,1.50
8.00,2.00,354.88,-26.56,6.00,0.69,1.00,1.38,0.19,1.50
8.00,0.00,227.88,3.88,-105.50,5.81,6.62,4.56,0.29,1.52
8.00,1.00,291.44,-3.44,-56.88,-3.06,2.19,-1.25,0.29,1.52
8.00,2.00,354.88,-26.56,6.00,0.31,2.00,0.44,0.29,1.52
8.00,0.00,227.56,4.06,-105.69,7.06,7.06,5.38,0.43,1.54
8.00,1.00,291.44,-3.50,-56.88,-2.31,2.69,0.12,0.43,1.54
8.00,2.00,354.88,-26.62,6.00,-0.75,3.12,0.12,0.43,1.54
8.00,0.00,227.25,4.19,-105.81,8.25,7.50,6.06,0.59,1.56
8.00,1.00,291.38,-3.50,-56.81,-2.50,2.88,0.00,0.59,1.56
8.00,2.00,354.88,-26.69,6.06,-0.56,3.56,0.88,0.59,1.56
8.00,0.00,226.88,4.38,-106.00,9.31,8.81,6.06,0.76,1.58
8.00,1.00,291.31,-3.56,-56.75,-2.31,3.12,-0.50,0.76,1.58
8.00,2.00,354.81,-26.75,6.00,-0.44,3.44,2.75,0.76,1.58
8.00,0.00,226.44,4.56,-106.19,9.62,9.75,5.81,0.96,1.60
8.00,1.00,291.31,-3.56,-56.69,-1.75,3.62,-0.69,0.96,1.60
8.00,2.00,354.75,-26.88,6.00,-1.31,3.19,4.06,0.96,1.60
8.00,0.00,226.12,4.69,-106.38,9.12,9.06,5.88,1.17,1.62
8.00,1.00,291.25,-3.62,-56.69,-1.81,3.94,-0.62,1.17,1.62
8.00,2.00,354.69,-26.94,6.00,-2.50,3.75,4.00,1.17,1.62
8.00,0.00,225.81,4.81,-106.62,9.38,7.44,5.62,1.40,1.64
8.00,1.00,291.25,-3.69,-56.62,-3.06,4.50,0.12,1.40,1.64
8.00,2.00,354.56,-27.00,6.00,-3.31,3.56,3.94,1.40,1.64
8.00,0.00,225.56,4.94,-106.81,10.06,5.00,4.81,1.65,1.66
8.00,1.00,291.19,-3.75,-56.56,-3.06,4.75,-0.12,1.65,1.66
8.00,2.00,354.50,-27.06,6.06,-3.94,3.69,4.00,1.65,1.66
8.00,0.00,225.44,5.00,-107.06,10.81,2.75,3.88,1.91,1.68
8.00,1.00,291.12,-3.81,-56.50,-3.25,4.38,-0.31,1.91,1.68
8.00,2.00,354.38,-27.12,6.06,-3.62,4.19,4.06,1.91,1.68
8.00,0.00,225.38,5.00,-107.31,11.94,0.31,3.00,2.18,1.70
8.00,1.00,291.06,-3.81,-56.44,-3.44,4.69,-0.44,2.18,1.70
8.00,2.00,354.31,-27.25,6.12,-3.19,4.12,4.31,2.18,1.70
8.00,0.00,225.38,5.00,-107.56,12.44,-1.31,2.69,2.48,1.72
8.00,1.00,291.06,-3.88,-56.38,-3.06,5.12,-0.25,2.48,1.72
8.00,2.00,354.19,-27.31,6.12,-4.06,4.06,3.81,2.48,1.72
8.00,0.00,225.38,5.00,-107.81,11.44,-1.94,1.31,2.75,1.74
8.00,1.00,291.00,-3.94,-56.31,-4.00,5.38,-0.38,2.75,1.74
8.00,2.00,354.12,-27.38,6.19,-4.00,4.81,3.62,2.75,1.74
8.00,0.00,225.38,5.00,-108.06,11.62,-1.50,1.31,3.05,1.76
8.00,1.00,290.94,-4.00,-56.25,-5.19,5.19,-0.94,3.05,1.76
8.00,2.00,354.00,-27.50,6.19,-4.88,3.69,4.38,3.05,1.76
8.00,0.00,225.38,5.06,-108.19,12.06,-0.50,2.56,3.35,1.78
8.00,1.00,290.88,-4.12,-56.12,-5.12,5.75,-1.19,3.35,1.78
8.00,2.00,353.88,-27.56,6.25,-4.69,3.94,4.94,3.35,1.78
8.00,0.00,225.19,5.12,-108.50,10.81,1.62,1.88,3.63,1.80
8.00,1.00,290.88,-4.19,-56.06,-5.25,6.00,-1.25,3.63,1.80
8.00,2.00,353.75,-27.62,6.25,-4.88,3.75,6.19,3.63,1.80
8.00,0.00,225.12,5.12,-108.62,10.69,2.75,1.88,3.92,1.82
8.00,1.00,290.81,-4.25,-55.94,-6.06,6.38,-1.19,3.92,1.82
8.00,2.00,353.62,-27.75,6.25,-5.56,4.69,6.88,3.92,1.82
8.00,0.00,225.00,5.19,-108.81,11.88,2.69,2.69,4.24,1.84
8.00,1.00,290.75,-4.38,-55.81,-6.31,7.06,-0.88,4.24,1.84
8.00,2.00,353.44,-27.88,6.31,-5.94,4.56,7.06,4.24,1.84
8.00,0.00,224.88,5.25,-109.06,13.25,1.06,3.56,4.60,1.86
8.00,1.00,290.69,-4.44,-55.75,-6.06,6.94,-0.44,4.60,1.86
8.00,2.00,353.25,-27.94,6.38,-6.56,4.25,7.19,4.60,1.86
8.00,0.00,224.69,5.31,-109.31,12.12,0.75,2.56,4.94,1.88
8.00,1.00,290.62,-4.56,-55.62,-6.12,7.44,-0.81,4.94,1.88
8.00,2.00,353.12,-28.06,6.44,-6.75,4.50,7.44,4.94,1.88
8.00,0.00,224.62,5.38,-109.56,10.19,1.00,1.31,5.25,1.90
8.00,1.00,290.56,-4.62,-55.50,-6.88,7.12,-0.88,5.25,1.90
8.00,2.00,352.94,-28.12,6.50,-7.00,4.81,7.62,5.25,1.90
8.00,0.00,224.56,5.44,-109.75,10.12,1.94,2.00,5.54,1.92
8.00,1.00,290.50,-4.75,-55.38,-6.56,7.44,-0.94,5.54,1.92
8.00,2.00,352.75,-28.25,6.56,-6.12,5.31,7.31,5.54,1.92
8.00,0.00,224.38,5.50,-109.94,12.19,2.88,4.44,5.89,1.94
8.00,1.00,290.38,-4.81,-55.25,-5.88,7.62,-0.12,5.89,1.94
8.00,2.00,352.56,-28.38,6.56,-7.12,5.56,7.62,5.89,1.94
8.00,0.00,224.19,5.56,-110.19,11.88,3.38,4.50,6.22,1.96
8.00,1.00,290.31,-4.88,-55.12,-6.31,6.88,0.06,6.22,1.96
8.00,2.00,352.44,-28.50,6.69,-6.75,4.56,7.44,6.22,1.96
8.00,0.00,224.00,5.69,-110.44,11.44,3.12,3.50,6.53,1.98
8.00,1.00,290.25,-5.00,-55.06,-6.12,6.81,-0.56,6.53,1.98
8.00,2.00,352.25,-28.56,6.69,-5.88,4.62,7.56,6.53,1.98
8.00,0.00,223.81,5.75,-110.69,13.81,1.25,4.94,6.88,2.00
8.00,1.00,290.19,-5.06,-54.94,-6.00,6.81,-0.75,6.88,2.00
8.00,2.00,352.06,-28.69,6.75,-5.31,5.69,7.38,6.88,2.00
8.00,0.00,223.69,5.88,-110.94,14.44,1.12,4.75,7.25,2.02
8.00,1.00,290.12,-5.12,-54.81,-5.38,7.25,-0.25,7.25,2.02
8.00,2.00,351.88,-28.81,6.75,-6.56,5.88,7.44,7.25,2.02
8.00,0.00,223.50,5.94,-111.25,14.56,0.12,4.06,7.65,2.04
8.00,1.00,290.00,-5.25,-54.75,-5.94,7.31,0.31,7.65,2.04
8.00,2.00,351.75,-28.94,6.81,-7.69,5.94,7.06,7.65,2.04
8.00,0.00,223.38,6.00,-111.50,14.69,-0.25,4.06,8.07,2.06
8.00,1.00,289.94,-5.31,-54.62,-6.00,7.19,0.31,8.07,2.06
8.00,2.00,351.56,-29.06,6.94,-8.50,5.56,7.75,8.07,2.06
8.00,0.00,223.25,6.06,-111.81,14.62,0.25,4.31,8.50,2.08
8.00,1.00,289.88,-5.38,-54.50,-5.56,7.44,-0.31,8.50,2.08
8.00,2.00,351.38,-29.19,7.00,-9.06,6.06,8.25,8.50,2.08
8.00,0.00,223.12,6.19,-112.06,14.50,1.25,4.50,8.90,2.10
8.00,1.00,289.81,-5.44,-54.44,-4.50,7.12,-0.44,8.90,2.10
8.00,2.00,351.19,-29.31,7.12,-7.94,6.50,8.06,8.90,2.10
8.00,0.00,222.94,6.25,-112.38,15.50,0.69,5.25,9.29,2.12
8.00,1.00,289.69,-5.56,-54.38,-4.38,7.38,-0.50,9.29,2.12
8.00,2.00,351.00,-29.50,7.19,-6.38,6.62,7.81,9.29,2.12
8.00,0.00,222.75,6.38,-112.69,17.44,-0.31,7.12,9.74,2.14
8.00,1.00,289.62,-5.62,-54.25,-5.19,8.06,-0.12,9.74,2.14
8.00,2.00,350.81,-29.62,7.19,-7.44,6.38,7.00,9.74,2.14
8.00,0.00,222.56,6.50,-113.00,14.44,-0.25,4.69,10.15,2.16
8.00,1.00,289.56,-5.75,-54.19,-6.38,8.06,0.31,10.15,2.16
8.00,2.00,350.62,-29.75,7.31,-8.25,5.12,6.88,10.15,2.16
8.00,0.00,222.44,6.56,-113.25,13.31,0.12,3.81,10.54,2.18
8.00,1.00,289.44,-5.81,-54.06,-6.50,7.88,-0.19,10.54,2.18
8.00,2.00,350.50,-29.81,7.38,-8.38,4.31,6.75,10.54,2.18
8.00,0.00,222.31,6.62,-113.50,12.94,-0.19,4.25,10.91,2.20
8.00,1.00,289.38,-5.88,-53.94,-6.62,7.69,-0.12,10.91,2.20
8.00,2.00,350.31,-29.94,7.44,-8.00,4.31,6.69,10.91,2.20
8.00,0.00,222.19,6.75,-113.81,14.00,0.00,5.50,11.31,2.22
8.00,1.00,289.31,-6.00,-53.81,-7.25,8.00,0.50,11.31,2.22
8.00,2.00,350.12,-30.00,7.50,-8.25,4.50,7.00,11.31,2.22
8.00,0.00,222.00,6.81,-114.06,13.31,-0.06,4.31,11.72,2.24
8.00,1.00,289.19,-6.06,-53.69,-7.88,8.19,0.81,11.72,2.24
8.00,2.00,349.94,-30.12,7.62,-9.56,4.38,7.62,11.72,2.26
8.00,0.00,221.88,6.88,-114.31,12.25,0.25,4.00,12.13,2.26
8.00,1.00,289.06,-6.12,-53.56,-7.62,8.06,1.12,12.13,2.26
8.00,2.00,349.75,-30.19,7.75,-10.38,3.44,8.06,12.13,2.26
8.00,0.00,221.75,7.00,-114.56,13.06,-0.31,4.81,12.54,2.28
8.00,1.00,288.94,-6.25,-53.44,-7.88,8.38,0.56,12.54,2.28
8.00,2.00,349.56,-30.31,7.88,-10.12,3.75,7.38,12.54,2.28
8.00,0.00,221.56,7.06,-114.75,11.94,1.25,5.06,12.93,2.30
8.00,1.00,288.88,-6.31,-53.31,-6.81,8.69,0.31,12.93,2.30
8.00,2.00,349.38,-30.38,7.94,-9.25,3.88,7.31,12.93,2.30
8.00,0.00,221.38,7.19,-114.94,10.19,2.44,3.81,13.27,2.32
8.00,1.00,288.75,-6.44,-53.19,-7.69,8.12,0.94,13.27,2.32
8.00,2.00,349.19,-30.44,8.06,-9.12,4.19,7.00,13.27,2.32
8.00,0.00,221.19,7.25,-115.12,9.50,2.81,4.19,13.60,2.34
8.00,1.00,288.69,-6.50,-53.00,-8.12,8.19,0.56,13.60,2.34
8.00,2.00,349.00,-30.56,8.19,-8.81,4.06,7.12,13.60,2.36
8.00,0.00,220.94,7.38,-115.25,9.00,3.88,4.25,13.92,2.36
8.00,1.00,288.56,-6.62,-52.88,-8.75,8.31,0.31,13.92,2.36
8.00,2.00,348.81,-30.69,8.25,-8.62,5.06,7.12,13.92,2.36
8.00,0.00,220.75,7.44,-115.44,8.94,3.94,4.44,14.26,2.38
8.00,1.00,288.50,-6.69,-52.75,-8.25,9.06,0.50,14.26,2.38
8.00,2.00,348.62,-30.75,8.38,-10.38,5.00,7.69,14.26,2.38
8.00,0.00,220.56,7.56,-115.62,9.31,2.50,4.56,14.64,2.40
8.00,1.00,288.38,-6.81,-52.56,-8.31,9.06,0.75,14.64,2.40
8.00,2.00,348.44,-30.88,8.50,-11.44,4.75,8.31,14.64,2.40
8.00,0.00,220.38,7.62,-115.75,8.69,1.25,4.06,15.00,2.42
8.00,1.00,288.25,-6.88,-52.44,-8.12,9.12,1.00,15.00,2.42
8.00,2.00,348.19,-31.00,8.69,-11.44,4.81,7.81,15.00,2.42
8.00,0.00,220.31,7.69,-115.94,7.94,0.38,2.94,15.33,2.44
8.00,1.00,288.12,-7.00,-52.31,-8.31,8.69,1.31,15.33,2.44
8.00,2.00,348.00,-31.12,8.81,-10.75,4.44,7.56,15.33,2.44
8.00,0.00,220.19,7.75,-116.06,8.88,-0.25,3.50,15.67,2.46
8.00,1.00,288.00,-7.06,-52.19,-7.69,9.31,1.50,15.67,2.46
8.00,2.00,347.81,-31.19,8.94,-9.62,4.25,7.50,15.67,2.46
8.00,0.00,220.06,7.81,-116.25,9.50,0.38,4.44,15.99,2.48
8.00,1.00,287.88,-7.12,-52.06,-7.19,8.94,1.75,15.99,2.48
8.00,2.00,347.62,-31.31,9.00,-8.31,3.69,7.81,15.99,2.48
8.00,0.00,219.94,7.88,-116.44,9.00,1.50,3.69,16.30,2.50
8.00,1.00,287.75,-7.25,-51.94,-7.00,8.62,2.00,16.30,2.50
8.00,2.00,347.44,-31.38,9.12,-8.56,3.50,7.88,16.30,2.50
8.00,0.00,219.75,7.94,-116.56,7.56,3.44,2.88,16.59,2.52
8.00,1.00,287.62,-7.31,-51.81,-7.62,8.56,1.62,16.59,2.52
8.00,2.00,347.25,-31.44,9.19,-8.38,3.12,7.94,16.59,2.52
8.00,0.00,219.50,8.06,-116.69,7.44,5.19,3.00,16.88,2.54
8.00,1.00,287.56,-7.44,-51.69,-7.50,7.69,1.38,16.88,2.54
8.00,2.00,347.06,-31.50,9.31,-8.56,2.00,8.50,16.88,2.54
8.00,0.00,219.19,8.19,-116.88,10.00,5.44,4.25,17.20,2.56
8.00,1.00,287.44,-7.50,-51.56,-6.12,7.69,1.19,17.20,2.56
8.00,2.00,346.81,-31.56,9.38,-7.94,2.00,9.19,17.20,2.56
8.00,0.00,218.94,8.31,-117.06,11.81,3.12,5.00,17.55,2.58
8.00,1.00,287.31,-7.56,-51.44,-6.75,7.25,2.00,17.55,2.58
8.00,2.00,346.62,-31.69,9.38,-7.50,3.12,9.44,17.55,2.58
8.00,0.00,218.69,8.38,-117.25,10.06,3.56,3.94,17.87,2.60
8.00,1.00,287.19,-7.62,-51.31,-7.19,7.50,2.88,17.87,2.60
8.00,2.00,346.38,-31.75,9.44,-7.81,2.00,9.38,17.87,2.60
8.00,0.00,218.56,8.44,-117.38,7.19,2.88,1.44,18.13,2.62
8.00,1.00,287.06,-7.69,-51.19,-7.44,7.25,3.25,18.13,2.62
8.00,2.00,346.12,-31.81,9.44,-7.50,1.62,10.62,18.13,2.62
8.00,0.00,218.44,8.44,-117.50,5.12,3.12,-0.12,18.39,2.64
8.00,1.00,286.94,-7.75,-51.06,-7.88,7.81,3.94,18.39,2.64
8.00,2.00,345.88,-31.88,9.50,-9.25,1.50,11.81,18.39,2.64
8.00,0.00,218.25,8.50,-117.56,6.19,4.06,1.25,18.70,2.66
8.00,1.00,286.75,-7.75,-50.94,-7.94,8.19,5.06,18.70,2.66
8.00,2.00,345.56,-31.94,9.56,-11.31,0.50,12.69,18.70,2.66
8.00,0.00,218.06,8.56,-117.69,7.19,4.12,2.44,19.01,2.68
8.00,1.00,286.56,-7.81,-50.88,-7.06,8.69,4.88,19.01,2.68
8.00,2.00,345.25,-31.94,9.62,-10.06,0.69,12.50,19.01,2.68
8.00,0.00,217.88,8.62,-117.81,6.69,4.50,1.81,19.25,2.70
8.00,1.00,286.38,-7.88,-50.75,-7.19,8.38,4.00,19.25,2.70
8.00,2.00,345.00,-32.06,9.62,-6.56,2.25,11.56,19.25,2.70
8.00,0.00,217.62,8.69,-117.94,6.50,5.31,1.31,19.49,2.72
8.00,1.00,286.25,-7.94,-50.62,-6.44,8.50,3.62,19.49,2.72
8.00,2.00,344.75,-32.12,9.62,-6.88,2.50,10.38,19.49,2.72
8.00,0.00,217.44,8.75,-118.00,4.81,6.44,-0.12,19.70,2.74
8.00,1.00,286.06,-8.00,-50.56,-5.88,8.62,3.38,19.70,2.74
8.00,2.00,344.50,-32.19,9.62,-6.62,2.81,9.75,19.70,2.74
8.00,0.00,217.25,8.81,-118.06,6.38,5.38,1.25,19.93,2.76
8.00,1.00,285.94,-8.06,-50.44,-6.88,9.00,3.75,19.93,2.76
8.00,2.00,344.31,-32.25,9.69,-6.75,3.38,9.88,19.93,2.76
8.00,0.00,217.06,8.88,-118.19,7.00,4.38,1.75,20.19,2.78
8.00,1.00,285.75,-8.12,-50.38,-6.50,9.19,3.38,20.19,2.78
8.00,2.00,344.06,-32.38,9.69,-7.62,2.62,10.88,20.19,2.78
8.00,0.00,216.94,8.88,-118.25,6.25,4.00,0.19,20.43,2.80
8.00,1.00,285.62,-8.19,-50.25,-6.06,8.75,2.44,20.43,2.80
8.00,2.00,343.81,-32.44,9.69,-6.69,2.00,10.31,20.43,2.80
8.00,0.00,216.81,8.88,-118.38,5.81,3.31,-0.88,20.63,2.82
8.00,1.00,285.50,-8.31,-50.19,-6.44,7.75,2.06,20.63,2.82
8.00,2.00,343.62,-32.50,9.75,-5.38,3.19,9.00,20.63,2.82
8.00,0.00,216.75,8.88,-118.44,5.81,2.12,-0.62,20.83,2.84
8.00,1.00,285.38,-8.38,-50.06,-6.50,8.31,2.12,20.83,2.84
8.00,2.00,343.44,-32.62,9.75,-5.25,3.56,8.62,20.83,2.84
8.00,0.00,216.62,8.88,-118.56,5.06,2.62,-1.31,21.03,2.86
8.00,1.00,285.25,-8.44,-50.00,-7.38,8.06,2.75,21.03,2.86
8.00,2.00,343.25,-32.69,9.75,-6.31,3.44,8.69,21.03,2.86
8.00,0.00,216.50,8.94,-118.62,4.62,3.50,-0.75,21.25,2.88
8.00,1.00,285.12,-8.56,-49.88,-7.00,8.62,2.69,21.25,2.88
8.00,2.00,343.00,-32.75,9.75,-7.38,2.25,8.81,21.25,2.88
8.00,0.00,216.44,8.94,-118.75,5.75,2.62,-0.12,21.47,2.90
8.00,1.00,285.00,-8.62,-49.81,-6.75,7.94,2.12,21.47,2.90
8.00,2.00,342.81,-32.81,9.81,-6.44,2.44,8.69,21.47,2.90
8.00,0.00,216.31,8.94,-118.88,7.12,0.88,0.88,21.68,2.92
8.00,1.00,284.88,-8.69,-49.69,-6.81,7.25,1.69,21.68,2.92
8.00,2.00,342.62,-32.88,9.88,-5.06,2.38,7.50,21.68,2.92
8.00,0.00,216.25,8.94,-119.00,7.12,0.62,0.19,21.87,2.94
8.00,1.00,284.81,-8.75,-49.56,-6.88,6.62,1.06,21.87,2.94
8.00,2.00,342.50,-32.94,9.88,-3.44,2.75,6.69,21.87,2.94
8.00,0.00,216.25,8.94,-119.12,6.62,0.31,-0.62,22.07,2.96
8.00,1.00,284.69,-8.88,-49.50,-7.19,6.69,0.94,22.07,2.96
8.00,2.00,342.38,-33.00,9.88,-4.06,2.88,6.50,22.07,2.96
8.00,0.00,216.25,8.94,-119.25,6.31,-0.81,-0.69,22.28,2.98
8.00,1.00,284.62,-8.94,-49.38,-7.94,6.62,1.56,22.28,2.98
8.00,2.00,342.19,-33.06,9.88,-5.75,2.69,7.19,22.28,2.98
8.00,0.00,216.31,8.88,-119.38,7.81,-2.81,0.62,22.54,3.00
8.00,1.00,284.50,-9.00,-49.25,-7.69,6.88,1.50,22.54,3.00
8.00,2.00,342.00,-33.12,9.94,-6.62,1.75,7.50,22.54,3.00
8.00,0.00,216.31,8.88,-119.50,5.94,-1.44,-0.19,22.76,3.02
8.00,1.00,284.44,-9.06,-49.12,-7.62,5.81,1.06,22.76,3.02
8.00,2.00,341.81,-33.19,9.94,-5.94,1.50,7.12,22.76,3.02
8.00,0.00,216.38,8.81,-119.62,4.94,-1.25,-2.25,22.91,3.04
8.00,1.00,284.38,-9.12,-49.00,-6.81,5.75,0.31,22.91,3.04
8.00,2.00,341.69,-33.25,9.94,-3.88,2.31,5.50,22.91,3.04
8.00,0.00,216.44,8.81,-119.75,6.69,-2.75,-0.19,23.10,3.06
8.00,1.00,284.31,-9.25,-48.88,-7.62,5.12,0.25,23.10,3.06
8.00,2.00,341.56,-33.31,10.00,-3.62,2.88,4.75,23.10,3.06
8.00,0.00,216.44,8.81,-119.88,8.88,-2.75,2.38,23.35,3.08
8.00,1.00,284.19,-9.31,-48.75,-7.50,6.25,0.94,23.35,3.08
8.00,2.00,341.44,-33.38,10.00,-4.94,2.12,5.56,23.35,3.08
8.00,0.00,216.38,8.81,-120.06,6.31,-0.56,1.56,23.56,3.10
8.00,1.00,284.12,-9.38,-48.62,-7.75,5.38,1.81,23.56,3.10
8.00,2.00,341.31,-33.44,10.06,-5.44,1.06,6.31,23.56,3.10
8.00,0.00,216.31,8.81,-120.12,2.81,1.31,-0.56,23.70,3.12
8.00,1.00,284.00,-9.38,-48.50,-7.44,5.69,2.00,23.70,3.12
8.00,2.00,341.19,-33.44,10.06,-4.88,0.75,6.69,23.70,3.12
8.00,0.00,216.25,8.88,-120.19,3.50,2.69,0.50,23.85,3.14
8.00,1.00,283.94,-9.44,-48.38,-7.94,5.31,1.75,23.85,3.14
8.00,2.00,341.00,-33.44,10.12,-5.06,0.19,6.19,23.85,3.14
8.00,0.00,216.00,8.94,-120.31,6.56,4.06,3.19,24.04,3.16
8.00,1.00,283.81,-9.50,-48.25,-7.81,7.69,1.56,24.04,3.16
8.00,2.00,340.88,-33.44,10.12,-3.94,-0.12,6.00,24.04,3.16
8.00,0.00,215.81,9.00,-120.44,7.00,4.25,2.81,24.24,3.18
8.00,1.00,283.69,-9.56,-48.12,-8.69,8.25,2.00,24.24,3.18
8.00,2.00,340.75,-33.44,10.12,-4.12,-0.81,5.62,24.24,3.18
8.00,0.00,215.50,9.12,-120.50,5.62,6.06,2.62,24.44,3.20
8.00,1.00,283.56,-9.62,-48.00,-7.94,7.56,2.62,24.44,3.20
8.00,2.00,340.56,-33.44,10.12,-5.38,-1.62,6.06,24.44,3.20
8.00,0.00,215.12,9.25,-120.56,5.19,7.88,3.19,24.62,3.22
8.00,1.00,283.50,-9.69,-47.94,-8.06,6.50,2.56,24.62,3.22
8.00,2.00,340.44,-33.44,10.19,-5.12,-1.12,6.00,24.62,3.22
8.00,0.00,214.75,9.44,-120.69,6.00,7.56,4.00,24.82,3.24
8.00,1.00,283.38,-9.75,-47.75,-7.81,6.69,2.50,24.82,3.24
8.00,2.00,340.31,-33.38,10.19,-4.81,-1.12,5.81,24.82,3.24
8.00,0.00,214.38,9.56,-120.75,7.00,7.19,4.12,25.04,3.26
8.00,1.00,283.25,-9.81,-47.62,-7.69,6.25,2.44,25.04,3.26
8.00,2.00,340.12,-33.38,10.19,-5.31,-1.06,6.25,25.04,3.26
8.00,0.00,214.19,9.62,-120.88,8.00,7.50,5.25,25.28,3.28
8.00,1.00,283.12,-9.81,-47.50,-6.62,6.31,2.31,25.28,3.28
8.00,2.00,340.00,-33.38,10.25,-5.44,-0.69,6.12,25.28,3.28
8.00,0.00,213.62,9.88,-121.00,5.88,9.06,3.75,25.46,3.30
8.00,1.00,283.06,-9.88,-47.44,-6.50,6.62,1.88,25.46,3.30
8.00,2.00,339.88,-33.38,10.31,-4.06,0.69,5.62,25.46,3.30
8.00,0.00,213.25,10.00,-121.12,5.81,7.88,3.06,25.64,3.32
8.00,1.00,282.94,-9.94,-47.31,-6.44,6.38,2.06,25.64,3.32
8.00,2.00,339.75,-33.38,10.31,-4.38,0.31,5.31,25.64,3.32
8.00,0.00,213.12,10.06,-121.12,5.19,8.00,2.88,25.80,3.34
8.00,1.00,282.81,-10.00,-47.25,-5.56,6.69,1.69,25.80,3.34
8.00,2.00,339.62,-33.38,10.31,-4.00,1.19,5.81,25.80,3.34
8.00,0.00,212.81,10.12,-121.19,5.25,6.19,3.50,25.98,3.36
8.00,1.00,282.75,-10.06,-47.12,-6.12,6.00,1.69,25.98,3.36
8.00,2.00,339.50,-33.44,10.38,-4.69,1.56,5.81,25.98,3.36
8.00,0.00,212.56,10.25,-121.31,5.81,4.88,3.19,26.18,3.38
8.00,1.00,282.62,-10.12,-47.06,-6.38,6.06,1.62,26.18,3.38
8.00,2.00,339.31,-33.50,10.38,-5.06,1.31,6.44,26.18,3.38
8.00,0.00,212.31,10.31,-121.38,5.56,4.69,1.69,26.37,3.40
8.00,1.00,282.56,-10.19,-46.94,-5.50,5.69,1.25,26.37,3.40
8.00,2.00,339.19,-33.50,10.44,-4.81,1.56,6.00,26.37,3.40
8.00,0.00,212.12,10.38,-121.44,4.69,5.56,0.62,26.52,3.42
8.00,1.00,282.44,-10.25,-46.88,-4.62,5.75,0.88,26.52,3.42
8.00,2.00,339.06,-33.56,10.44,-4.00,3.00,5.50,26.52,3.42
8.00,0.00,212.00,10.38,-121.44,3.31,5.56,-0.25,26.66,3.44
8.00,1.00,282.38,-10.31,-46.81,-5.38,5.31,0.69,26.66,3.44
8.00,2.00,338.94,-33.62,10.50,-4.50,4.50,4.75,26.66,3.44
8.00,0.00,211.88,10.44,-121.50,4.19,3.69,0.38,26.83,3.46
8.00,1.00,282.31,-10.38,-46.69,-5.88,5.56,0.38,26.83,3.46
8.00,2.00,338.88,-33.69,10.56,-5.06,4.19,4.81,26.83,3.46
8.00,0.00,211.69,10.44,-121.56,4.00,4.50,0.31,26.97,3.48
8.00,1.00,282.25,-10.50,-46.62,-5.62,5.50,-0.06,26.97,3.48
8.00,2.00,338.75,-33.81,10.56,-4.19,4.00,5.25,26.97,3.48
8.00,0.00,211.50,10.50,-121.56,3.25,4.31,-1.38,27.11,3.50
8.00,1.00,282.19,-10.56,-46.50,-5.12,5.62,-0.19,27.11,3.50
8.00,2.00,338.62,-33.88,10.62,-4.06,4.06,5.25,27.11,3.50
8.00,0.00,211.44,10.50,-121.56,2.00,4.25,-2.19,27.23,3.52
8.00,1.00,282.12,-10.62,-46.44,-4.81,6.19,0.06,27.23,3.52
8.00,2.00,338.50,-33.94,10.62,-4.75,4.50,4.75,27.23,3.52
8.00,0.00,211.38,10.50,-121.56,1.81,3.50,-2.12,27.36,3.54
8.00,1.00,282.06,-10.69,-46.38,-5.75,5.81,0.19,27.36,3.54
8.00,2.00,338.38,-34.06,10.69,-5.31,4.44,4.62,27.36,3.54
8.00,0.00,211.31,10.44,-121.62,2.00,1.50,-2.00,27.46,3.56
8.00,1.00,282.00,-10.81,-46.31,-5.19,5.69,-0.50,27.46,3.56
8.00,2.00,338.25,-34.12,10.75,-4.00,4.50,4.69,27.46,3.56
8.00,0.00,211.31,10.44,-121.62,1.44,1.50,-2.25,27.56,3.58
8.00,1.00,282.00,-10.88,-46.19,-4.50,5.50,-0.44,27.56,3.58
8.00,2.00,338.19,-34.19,10.81,-3.75,4.62,4.50,27.56,3.58
8.00,0.00,211.25,10.38,-121.56,-0.44,3.38,-3.50,27.63,3.60
8.00,1.00,281.94,-10.94,-46.19,-2.00,4.50,-0.31,27.63,3.60
8.00,2.00,338.06,-34.31,10.88,-4.69,3.94,3.94,27.63,3.60
8.00,0.00,211.25,10.38,-121.50,-1.12,3.06,-3.69,27.68,3.62
8.00,1.00,281.88,-11.00,-46.12,-2.88,4.69,-0.44,27.68,3.62
8.00,2.00,338.00,-34.38,10.94,-3.81,4.19,2.81,27.68,3.62
8.00,0.00,211.31,10.31,-121.44,-1.19,2.31,-3.38,27.72,3.64
8.00,1.00,281.88,-11.06,-46.06,-2.81,5.12,-0.62,27.72,3.64
8.00,2.00,337.94,-34.44,11.00,-3.25,4.31,2.62,27.72,3.64
8.00,0.00,211.44,10.19,-121.31,-1.50,0.25,-3.19,27.77,3.66
8.00,1.00,281.81,-11.12,-46.06,-3.50,4.62,-0.56,27.77,3.66
8.00,2.00,337.88,-34.50,11.06,-4.12,4.94,2.38,27.77,3.66
8.00,0.00,211.62,10.12,-121.19,-3.00,-1.31,-3.62,27.79,3.68
8.00,1.00,281.75,-11.19,-46.00,-4.50,4.19,-0.38,27.79,3.68
8.00,2.00,337.88,-34.62,11.12,-4.56,5.25,1.81,27.79,3.68
8.00,0.00,211.88,10.00,-121.06,-4.81,-2.88,-4.31,27.79,3.70
8.00,1.00,281.69,-11.25,-45.88,-4.88,4.06,-0.38,27.79,3.70
8.00,2.00,337.81,-34.75,11.19,-4.44,5.12,1.44,27.79,3.70
8.00,0.00,212.12,9.94,-120.94,-5.94,-4.06,-4.75,27.75,3.72
8.00,1.00,281.69,-11.31,-45.81,-5.12,3.94,-0.12,27.75,3.72
8.00,2.00,337.75,-34.81,11.25,-4.06,4.56,1.44,27.75,3.72
8.00,0.00,212.38,9.81,-120.81,-7.00,-3.94,-4.81,27.70,3.74
8.00,1.00,281.62,-11.31,-45.69,-5.44,3.56,-0.19,27.70,3.74
8.00,2.00,337.69,-34.88,11.38,-4.25,3.94,1.12,27.70,3.74
8.00,0.00,212.56,9.69,-120.62,-8.06,-1.12,-5.19,27.66,3.76
8.00,1.00,281.56,-11.38,-45.62,-5.44,2.75,0.19,27.66,3.76
8.00,2.00,337.62,-34.94,11.44,-5.50,3.38,1.62,27.66,3.76
8.00,0.00,212.69,9.62,-120.44,-9.12,2.69,-4.56,27.60,3.78
8.00,1.00,281.56,-11.44,-45.50,-5.50,2.56,0.06,27.60,3.78
8.00,2.00,337.62,-35.00,11.56,-5.81,4.25,1.19,27.60,3.78
8.00,0.00,212.62,9.62,-120.25,-9.69,4.75,-3.06,27.53,3.80
8.00,1.00,281.50,-11.44,-45.44,-5.12,1.81,-1.31,27.53,3.80
8.00,2.00,337.56,-35.06,11.69,-5.75,3.62,0.56,27.53,3.80
8.00,0.00,212.50,9.69,-120.06,-8.88,6.25,-1.81,27.44,3.82
8.00,1.00,281.50,-11.50,-45.31,-4.69,1.56,-1.88,27.44,3.82
8.00,2.00,337.56,-35.12,11.81,-3.94,4.44,0.00,27.44,3.82
8.00,0.00,212.38,9.75,-119.88,-7.81,6.19,-1.12,27.38,3.84
8.00,1.00,281.56,-11.56,-45.25,-4.50,1.88,-2.44,27.38,3.84
8.00,2.00,337.56,-35.19,11.94,-4.31,4.44,-0.44,27.38,3.84
8.00,0.00,212.25,9.75,-119.69,-7.44,5.94,-1.12,27.34,3.86
8.00,1.00,281.56,-11.62,-45.12,-4.19,2.88,-0.56,27.34,3.86
8.00,2.00,337.50,-35.25,12.06,-5.50,3.44,0.00,27.34,3.86
8.00,0.00,212.12,9.81,-119.56,-7.56,4.88,-1.31,27.29,3.88
8.00,1.00,281.50,-11.62,-45.06,-4.19,2.62,-0.19,27.29,3.88
8.00,2.00,337.50,-35.31,12.12,-4.81,3.75,0.44,27.29,3.88
8.00,0.00,212.12,9.81,-119.38,-7.62,2.88,-1.19,27.25,3.90
8.00,1.00,281.50,-11.69,-45.00,-5.25,2.88,0.31,27.25,3.90
8.00,2.00,337.50,-35.38,12.25,-5.44,3.94,0.62,27.25,3.90
8.00,0.00,212.19,9.75,-119.25,-6.88,0.62,-0.69,27.23,3.92
8.00,1.00,281.44,-11.75,-44.88,-4.62,3.12,0.00,27.23,3.92
8.00,2.00,337.44,-35.44,12.38,-5.50,3.19,0.75,27.23,3.92
8.00,0.00,212.25,9.75,-119.12,-5.75,-0.56,-1.31,27.20,3.94
8.00,1.00,281.38,-11.81,-44.81,-4.00,3.25,-0.44,27.20,3.94
8.00,2.00,337.38,-35.50,12.50,-4.12,3.62,0.69,27.20,3.94
8.00,0.00,212.38,9.69,-119.06,-5.25,-1.44,-2.06,27.17,3.96
8.00,1.00,281.38,-11.81,-44.75,-4.25,3.19,-0.12,27.17,3.96
8.00,2.00,337.38,-35.56,12.56,-3.44,4.44,0.75,27.17,3.96
8.00,0.00,212.50,9.62,-118.94,-5.31,-1.94,-2.31,27.13,3.98
8.00,1.00,281.31,-11.88,-44.69,-4.50,3.31,0.00,27.13,3.98
8.00,2.00,337.31,-35.62,12.62,-3.50,4.25,1.00,27.13,3.98
8.00,0.00,212.62,9.62,-118.88,-4.56,-2.19,-1.38,27.13,4.00
8.00,1.00,281.31,-11.94,-44.62,-4.94,2.56,-0.06,27.13,4.00
8.00,2.00,337.31,-35.69,12.69,-4.19,3.25,1.44,27.13,4.00
8.00,0.00,212.75,9.56,-118.81,-3.94,-2.44,-0.94,27.11,4.02
8.00,1.00,281.25,-11.94,-44.50,-4.38,3.00,-0.44,27.11,4.02
8.00,2.00,337.25,-35.75,12.75,-3.12,3.06,1.19,27.11,4.02
8.00,0.00,212.81,9.50,-118.75,-3.31,-1.62,-1.31,27.11,4.04
8.00,1.00,281.25,-12.00,-44.44,-4.25,3.00,-0.56,27.11,4.04
8.00,2.00,337.25,-35.81,12.81,-3.06,3.12,1.31,27.11,4.04
8.00,0.00,212.88,9.50,-118.69,-3.38,-0.12,-1.62,27.11,4.06
8.00,1.00,281.19,-12.06,-44.38,-4.62,3.62,-0.31,27.11,4.06
8.00,2.00,337.19,-35.88,12.88,-3.75,3.50,1.50,27.11,4.06
8.00,0.00,212.88,9.50,-118.62,-2.88,0.75,-1.75,27.13,4.08
8.00,1.00,281.19,-12.12,-44.25,-5.25,3.94,-0.94,27.13,4.08
8.00,2.00,337.12,-35.94,12.94,-3.75,2.75,2.12,27.13,4.08
8.00,0.00,212.88,9.50,-118.56,-1.94,1.38,-1.38,27.16,4.10
8.00,1.00,281.12,-12.19,-44.19,-4.38,4.81,-0.94,27.16,4.10
8.00,2.00,337.06,-35.94,13.00,-3.38,3.19,2.25,27.16,4.10
8.00,0.00,212.81,9.50,-118.56,-0.94,2.12,-1.25,27.18,4.12
8.00,1.00,281.12,-12.25,-44.12,-4.00,4.62,-1.25,27.18,4.12
8.00,2.00,337.06,-36.00,13.00,-2.31,3.38,1.94,27.18,4.12
8.00,0.00,212.75,9.50,-118.56,-0.56,3.56,-1.69,27.21,4.14
8.00,1.00,281.12,-12.31,-44.06,-3.12,4.44,-1.25,27.21,4.14
8.00,2.00,337.00,-36.06,13.06,-2.19,3.12,2.00,27.21,4.14
8.00,0.00,212.69,9.50,-118.50,-0.62,4.50,-2.38,27.24,4.16
8.00,1.00,281.06,-12.44,-44.00,-2.81,4.44,-1.44,27.24,4.16
8.00,2.00,336.94,-36.12,13.06,-2.12,2.62,2.19,27.24,4.16
8.00,0.00,212.56,9.50,-118.50,-0.81,5.38,-3.12,27.27,4.18
8.00,1.00,281.06,-12.50,-44.00,-2.44,4.38,-1.25,27.27,4.18
8.00,2.00,336.88,-36.19,13.12,-2.94,3.00,2.00,27.27,4.18
8.00,0.00,212.50,9.44,-118.44,-1.31,4.69,-3.88,27.29,4.20
8.00,1.00,281.06,-12.56,-43.94,-2.75,4.38,-1.50,27.29,4.20
8.00,2.00,336.88,-36.25,13.19,-2.44,3.81,1.12,27.29,4.20
8.00,0.00,212.50,9.44,-118.38,-1.50,3.94,-4.50,27.30,4.22
8.00,1.00,281.06,-12.69,-43.88,-2.50,4.12,-2.25,27.30,4.22
8.00,2.00,336.81,-36.31,13.19,-2.00,4.06,1.06,27.30,4.22
8.00,0.00,212.50,9.38,-118.31,-1.31,3.00,-5.31,27.31,4.24
8.00,1.00,281.06,-12.75,-43.88,-2.44,4.12,-2.50,27.31,4.24
8.00,2.00,336.81,-36.38,13.25,-1.81,4.62,0.75,27.31,4.24
8.00,0.00,212.56,9.25,-118.25,-1.88,2.62,-6.44,27.33,4.26
8.00,1.00,281.06,-12.88,-43.81,-3.00,4.06,-2.00,27.33,4.26
8.00,2.00,336.81,-36.50,13.31,-3.00,5.06,0.56,27.33,4.26
8.00,0.00,212.69,9.12,-118.19,-2.94,1.31,-6.00,27.35,4.28
8.00,1.00,281.06,-12.94,-43.75,-4.12,4.06,-2.44,27.35,4.28
8.00,2.00,336.81,-36.56,13.38,-3.81,4.88,0.62,27.35,4.28
8.00,0.00,212.81,9.06,-118.12,-2.56,0.38,-5.25,27.36,4.30
8.00,1.00,281.06,-13.06,-43.62,-3.81,4.44,-3.00,27.36,4.30
8.00,2.00,336.75,-36.62,13.50,-3.38,4.62,0.44,27.36,4.30
8.00,0.00,212.94,8.94,-118.06,-1.75,-1.56,-4.94,27.37,4.32
8.00,1.00,281.12,-13.12,-43.56,-3.06,4.31,-3.44,27.37,4.32
8.00,2.00,336.75,-36.69,13.56,-2.25,4.81,0.06,27.37,4.32
8.00,0.00,213.06,8.88,-118.00,-1.94,-2.06,-4.75,27.37,4.34
8.00,1.00,281.12,-13.25,-43.50,-3.19,4.44,-3.50,27.37,4.34
8.00,2.00,336.75,-36.81,13.62,-1.69,5.75,-0.56,27.37,4.34
8.00,0.00,213.25,8.75,-118.00,-2.50,-2.56,-4.69,27.36,4.36
8.00,1.00,281.19,-13.38,-43.44,-3.75,4.12,-3.56,27.36,4.36
8.00,2.00,336.81,-36.88,13.69,-1.88,5.38,-0.69,27.36,4.36
8.00,0.00,213.44,8.69,-117.94,-2.62,-3.00,-4.25,27.34,4.38
8.00,1.00,281.19,-13.50,-43.38,-3.88,4.06,-3.94,27.34,4.38
8.00,2.00,336.81,-37.00,13.75,-1.88,5.06,-0.94,27.34,4.38
8.00,0.00,213.62,8.56,-117.94,-1.69,-3.50,-3.62,27.34,4.40
8.00,1.00,281.25,-13.56,-43.31,-3.62,4.25,-4.25,27.34,4.40
8.00,2.00,336.81,-37.06,13.81,-1.38,4.62,-1.25,27.34,4.40
8.00,0.00,213.81,8.50,-117.94,0.12,-4.38,-2.62,27.35,4.42
8.00,1.00,281.31,-13.69,-43.25,-3.00,3.69,-4.44,27.35,4.42
8.00,2.00,336.88,-37.12,13.88,-0.44,3.94,-1.69,27.35,4.42
8.00,0.00,213.94,8.44,-117.94,1.12,-3.56,-2.44,27.34,4.44
8.00,1.00,281.38,-13.81,-43.19,-2.38,2.81,-4.44,27.34,4.44
8.00,2.00,336.94,-37.19,13.88,1.38,3.31,-1.56,27.34,4.44
8.00,0.00,214.06,8.38,-117.94,1.19,-2.88,-1.94,27.33,4.46
8.00,1.00,281.38,-13.88,-43.12,-2.50,2.50,-3.75,27.33,4.46
8.00,2.00,337.00,-37.19,13.88,1.88,3.19,-1.50,27.33,4.46
8.00,0.00,214.06,8.38,-118.00,0.94,-0.75,-1.38,27.32,4.48
8.00,1.00,281.44,-13.94,-43.06,-2.44,2.12,-3.12,27.32,4.48
8.00,2.00,337.00,-37.25,13.88,1.38,2.00,-1.06,27.32,4.48
8.00,0.00,214.00,8.44,-118.00,0.75,3.00,-1.62,27.32,4.50
8.00,1.00,281.50,-14.00,-43.06,-2.25,1.62,-2.75,27.32,4.50
8.00,2.00,337.06,-37.25,13.88,0.69,1.38,-0.69,27.32,4.50
8.00,0.00,213.81,8.44,-118.00,0.12,6.44,-1.94,27.33,4.52
8.00,1.00,281.50,-14.06,-43.00,-1.88,1.50,-2.00,27.33,4.52
8.00,2.00,337.06,-37.25,13.88,-0.19,0.44,-0.06,27.33,4.52
8.00,0.00,213.56,8.50,-117.94,-0.31,8.00,-1.44,27.34,4.54
8.00,1.00,281.50,-14.12,-42.94,-2.44,1.44,-1.44,27.34,4.54
8.00,2.00,337.06,-37.25,13.88,-0.69,1.62,0.38,27.34,4.54
8.00,0.00,213.38,8.56,-117.94,0.19,7.56,-0.31,27.37,4.56
8.00,1.00,281.50,-14.19,-42.88,-2.81,1.75,-1.50,27.37,4.56
8.00,2.00,337.06,-37.25,13.88,-1.56,1.19,0.44,27.37,4.56
8.00,0.00,213.19,8.62,-117.94,1.00,5.25,0.00,27.40,4.58
8.00,1.00,281.50,-14.25,-42.88,-2.81,2.69,-1.69,27.40,4.58
8.00,2.00,337.00,-37.31,13.94,-0.81,1.69,0.00,27.40,4.58
8.00,0.00,213.06,8.62,-117.94,1.00,3.12,-0.81,27.44,4.60
8.00,1.00,281.56,-14.31,-42.81,-3.06,2.81,-1.56,27.44,4.60
8.00,2.00,337.00,-37.31,13.94,-1.06,1.56,0.25,27.44,4.60
8.00,0.00,213.06,8.62,-117.94,-0.19,1.81,-1.75,27.47,4.62
8.00,1.00,281.50,-14.31,-42.75,-3.06,2.69,-0.94,27.47,4.62
8.00,2.00,337.00,-37.38,13.94,-1.81,2.19,0.56,27.47,4.62
8.00,0.00,213.06,8.56,-117.94,-1.12,0.12,-2.31,27.49,4.64
8.00,1.00,281.50,-14.38,-42.69,-3.00,2.44,-0.62,27.49,4.64
8.00,2.00,337.00,-37.38,14.00,-2.38,2.06,0.94,27.49,4.64
8.00,0.00,213.19,8.50,-117.88,-1.00,-0.81,-2.25,27.50,4.66
8.00,1.00,281.50,-14.44,-42.62,-2.75,2.31,-1.38,27.50,4.66
8.00,2.00,337.00,-37.44,14.06,-1.62,2.44,0.38,27.50,4.66
8.00,0.00,213.25,8.44,-117.88,-0.44,-1.19,-2.56,27.51,4.68
8.00,1.00,281.50,-14.50,-42.56,-2.31,2.44,-2.00,27.51,4.68
8.00,2.00,337.00,-37.44,14.12,-1.25,3.19,-0.25,27.51,4.68
8.00,0.00,213.44,8.38,-117.88,-0.31,-2.06,-2.94,27.53,4.70
8.00,1.00,281.56,-14.56,-42.56,-2.62,2.06,-2.44,27.53,4.70
8.00,2.00,337.00,-37.50,14.12,-1.06,3.50,-0.94,27.53,4.70
8.00,0.00,213.62,8.25,-117.88,-0.44,-4.19,-3.12,27.55,4.72
8.00,1.00,281.56,-14.69,-42.50,-3.06,1.81,-2.38,27.55,4.72
8.00,2.00,337.00,-37.56,14.19,-1.56,2.75,-1.69,27.55,4.72
8.00,0.00,213.88,8.12,-117.88,-0.19,-6.50,-2.94,27.56,4.74
8.00,1.00,281.62,-14.75,-42.50,-2.88,1.31,-2.50,27.56,4.74
8.00,2.00,337.06,-37.62,14.25,-0.94,2.62,-1.75,27.56,4.74
8.00,0.00,214.19,8.00,-117.88,0.69,-8.44,-2.88,27.58,4.76
8.00,1.00,281.69,-14.81,-42.44,-2.56,0.81,-2.38,27.58,4.76
8.00,2.00,337.06,-37.62,14.31,-0.44,2.69,-1.81,27.58,4.76
8.00,0.00,214.56,7.88,-117.94,1.25,-8.56,-2.56,27.62,4.78
8.00,1.00,281.69,-14.88,-42.38,-2.50,1.00,-2.06,27.62,4.78
8.00,2.00,337.12,-37.69,14.38,-0.75,2.50,-1.69,27.62,4.78
8.00,0.00,214.69,7.81,-117.94,1.50,-6.62,-2.44,27.65,4.80
8.00,1.00,281.75,-14.94,-42.31,-2.38,1.12,-1.88,27.65,4.80
8.00,2.00,337.12,-37.75,14.38,-0.38,1.81,-1.44,27.65,4.80
8.00,0.00,214.81,7.81,-118.00,0.94,-2.25,-0.94,27.68,4.82
8.00,1.00,281.75,-15.00,-42.31,-1.69,1.19,-1.75,27.68,4.82
8.00,2.00,337.19,-37.75,14.44,-0.56,1.94,-0.69,27.68,4.82
8.00,0.00,214.81,7.81,-118.00,0.44,1.94,-0.25,27.70,4.84
8.00,1.00,281.75,-15.06,-42.25,-1.94,1.00,-1.56,27.70,4.84
8.00,2.00,337.19,-37.75,14.44,-0.62,1.00,-0.44,27.70,4.84
8.00,0.00,214.75,7.81,-118.00,-0.25,1.25,0.00,27.71,4.86
8.00,1.00,281.81,-15.12,-42.25,-2.38,1.19,-0.75,27.71,4.86
8.00,2.00,337.19,-37.81,14.44,-1.12,1.12,-0.06,27.71,4.86
8.00,0.00,214.75,7.81,-118.00,-0.44,-0.81,0.31,27.71,4.88
8.00,1.00,281.81,-15.12,-42.19,-2.06,1.25,-0.62,27.71,4.88
8.00,2.00,337.19,-37.81,14.50,-0.50,1.19,-0.12,27.71,4.88
8.00,0.00,214.75,7.81,-118.00,-0.12,-0.62,0.56,27.71,4.90
8.00,1.00,281.81,-15.19,-42.19,-1.50,1.25,-0.56,27.71,4.90
8.00,2.00,337.19,-37.88,14.50,0.31,0.94,0.38,27.71,4.90
8.00,0.00,214.75,7.81,-118.00,-0.06,0.88,0.50,27.71,4.92
8.00,1.00,281.75,-15.19,-42.12,-1.00,1.75,0.50,27.71,4.92
8.00,2.00,337.19,-37.88,14.50,-0.25,0.25,0.69,27.71,4.92
8.00,0.00,214.75,7.81,-118.00,-0.81,1.88,-0.12,27.72,4.94
8.00,1.00,281.75,-15.25,-42.12,-1.25,1.69,1.44,27.72,4.94
8.00,2.00,337.19,-37.88,14.50,-1.31,-0.50,1.00,27.72,4.94
8.00,0.00,214.69,7.81,-117.94,-1.88,2.00,-1.00,27.72,4.96
8.00,1.00,281.69,-15.25,-42.12,-2.12,0.94,1.94,27.72,4.96
8.00,2.00,337.12,-37.88,14.50,-2.06,-0.38,0.88,27.72,4.96
8.00,0.00,214.69,7.81,-117.88,-1.81,1.75,-1.00,27.73,4.98
8.00,1.00,281.69,-15.25,-42.12,-2.25,0.50,1.69,27.73,4.98
8.00,2.00,337.12,-37.88,14.56,-2.19,-0.31,0.94,27.73,4.98
8.00,0.00,214.69,7.81,-117.88,-1.81,1.31,-0.75,27.72,5.00
8.00,1.00,281.62,-15.25,-42.06,-1.69,0.25,1.75,27.72,5.00
8.00,2.00,337.06,-37.88,14.56,-1.12,-0.31,0.81,27.72,5.00
8.00,0.00,214.69,7.81,-117.81,-2.44,0.06,-0.75,27.70,5.02
8.00,1.00,281.56,-15.25,-42.06,-1.44,0.62,2.06,27.70,5.02
8.00,2.00,337.06,-37.88,14.62,-1.25,-0.62,0.69,27.70,5.02
8.00,0.00,214.75,7.75,-117.75,-2.44,-0.12,-0.75,27.68,5.04
8.00,1.00,281.56,-15.19,-42.00,-1.25,0.00,2.62,27.68,5.04
8.00,2.00,337.06,-37.81,14.62,-1.75,-1.00,1.00,27.68,5.04
8.00,0.00,214.75,7.75,-117.69,-2.19,0.12,-0.31,27.68,5.06
8.00,1.00,281.50,-15.19,-42.00,-1.25,-0.31,3.06,27.68,5.06
8.00,2.00,337.00,-37.81,14.69,-2.25,-1.25,0.75,27.68,5.06
8.00,0.00,214.81,7.75,-117.62,-1.19,-0.12,-0.31,27.69,5.08
8.00,1.00,281.44,-15.19,-42.00,-1.00,-0.88,2.69,27.69,5.08
8.00,2.00,337.00,-37.81,14.69,-1.25,-1.38,0.31,27.69,5.08
8.00,0.00,214.81,7.75,-117.62,-1.50,-1.06,-0.25,27.68,5.10
8.00,1.00,281.44,-15.19,-42.00,-0.75,-1.62,2.38,27.68,5.10
8.00,2.00,337.00,-37.75,14.75,-1.06,-2.00,-0.12,27.68,5.10
8.00,0.00,214.88,7.69,-117.56,-1.75,-1.06,-0.06,27.66,5.12
8.00,1.00,281.44,-15.19,-41.94,0.31,-2.75,1.94,27.66,5.12
8.00,2.00,337.00,-37.69,14.81,-0.75,-2.88,-1.00,27.66,5.12
8.00,0.00,215.00,7.69,-117.44,-2.19,-1.50,0.06,27.61,5.14
8.00,1.00,281.44,-15.19,-41.94,1.00,-3.56,2.44,27.61,5.14
8.00,2.00,337.00,-37.69,14.81,0.44,-3.12,-1.19,27.61,5.14
8.00,0.00,215.12,7.62,-117.31,-2.19,-1.38,0.44,27.55,5.16
8.00,1.00,281.44,-15.06,-41.94,1.94,-4.38,2.81,27.55,5.16
8.00,2.00,337.06,-37.56,14.88,1.50,-4.00,-1.56,27.55,5.16
8.00,0.00,215.19,7.62,-117.25,-1.50,-2.25,1.00,27.48,5.18
8.00,1.00,281.44,-15.00,-42.00,2.31,-5.31,2.75,27.48,5.18
8.00,2.00,337.12,-37.44,14.88,2.19,-4.62,-2.25,27.48,5.18
8.00,0.00,215.25,7.62,-117.19,-1.62,-2.19,1.25,27.39,5.20
8.00,1.00,281.44,-15.00,-42.00,3.31,-6.44,2.75,27.39,5.20
8.00,2.00,337.12,-37.38,14.88,3.38,-5.38,-2.56,27.39,5.20
8.00,0.00,215.25,7.62,-117.06,-2.38,-0.88,1.00,27.26,5.22
8.00,1.00,281.50,-14.88,-42.06,4.00,-6.88,2.31,27.26,5.22
8.00,2.00,337.25,-37.19,14.88,5.12,-6.69,-3.06,27.26,5.22
8.00,0.00,215.25,7.69,-116.88,-3.19,0.56,0.81,27.05,5.24
8.00,1.00,281.50,-14.81,-42.06,4.50,-7.62,2.25,27.05,5.24
8.00,2.00,337.31,-37.12,14.81,8.00,-6.81,-3.94,27.05,5.24
