Iteration,IMUNo,OrientationX (deg),OrientationY,OrientationZ,GyroX (20rad/sec),GyroY,GyroZ,Elbow_Pos (rad),Time (sec)
13.00,0.00,268.19,0.62,-95.12,-0.56,-0.56,0.19,0.00,1.02
13.00,1.00,280.38,-4.25,-52.56,-0.44,0.06,0.12,0.00,1.02
13.00,2.00,288.44,-19.00,19.19,-0.50,-0.44,-0.50,0.00,1.02
13.00,0.00,268.19,0.62,-95.12,-0.56,-0.56,0.12,-0.02,1.02
13.00,1.00,280.38,-4.25,-52.56,-0.56,-0.44,0.00,-0.02,1.04
13.00,2.00,288.44,-19.00,19.19,-0.06,-0.19,-0.38,-0.02,1.04
13.00,0.00,268.19,0.62,-95.12,-0.12,-0.06,0.25,-0.04,1.04
13.00,1.00,280.38,-4.25,-52.56,-0.31,0.00,-0.06,-0.04,1.04
13.00,2.00,288.44,-19.00,19.19,0.50,0.00,-0.25,-0.04,1.06
13.00,0.00,268.19,0.62,-95.12,-0.25,0.25,0.12,-0.05,1.06
13.00,1.00,280.38,-4.25,-52.56,-0.38,-0.12,-0.19,-0.05,1.06
13.00,2.00,288.44,-19.00,19.19,0.06,0.12,-0.12,-0.05,1.06
13.00,0.00,268.19,0.62,-95.12,-0.12,0.50,-0.12,-0.05,1.08
13.00,1.00,280.38,-4.25,-52.56,-0.56,-0.12,-0.38,-0.05,1.08
13.00,2.00,288.44,-19.00,19.19,-0.12,-0.06,-0.38,-0.05,1.08
13.00,0.00,268.19,0.62,-95.12,-0.50,0.06,-0.25,-0.06,1.10
13.00,1.00,280.38,-4.25,-52.56,-0.44,0.31,-0.19,-0.06,1.10
13.00,2.00,288.44,-19.00,19.19,0.00,0.25,-0.12,-0.06,1.10
13.00,0.00,268.19,0.62,-95.12,-0.69,-0.12,-0.50,-0.08,1.12
13.00,1.00,280.38,-4.25,-52.56,-0.31,0.31,-0.19,-0.08,1.12
13.00,2.00,288.44,-19.00,19.19,-0.19,-0.06,0.19,-0.08,1.12
13.00,0.00,268.19,0.62,-95.12,-0.19,-0.19,-0.31,-0.07,1.14
13.00,1.00,280.38,-4.25,-52.56,0.12,0.31,-0.19,-0.07,1.14
13.00,2.00,288.44,-19.00,19.19,-0.31,0.19,0.50,-0.07,1.14
13.00,0.00,268.19,0.62,-95.12,-0.06,-0.31,0.00,-0.08,1.16
13.00,1.00,280.38,-4.25,-52.56,0.06,-0.12,-0.31,-0.08,1.16
13.00,2.00,288.44,-19.00,19.19,0.00,0.06,0.44,-0.08,1.16
13.00,0.00,268.19,0.62,-95.12,0.19,-0.06,0.06,-0.07,1.18
13.00,1.00,280.38,-4.25,-52.56,-0.12,-0.12,-0.19,-0.07,1.18
13.00,2.00,288.44,-19.00,19.19,0.12,0.12,-0.12,-0.07,1.18
13.00,0.00,268.19,0.62,-95.12,0.00,0.00,-0.19,-0.09,1.20
13.00,1.00,280.38,-4.25,-52.50,-0.06,-0.31,-0.25,-0.09,1.20
13.00,2.00,288.44,-19.00,19.19,0.38,0.25,-0.44,-0.09,1.20
13.00,0.00,268.19,0.62,-95.12,-0.12,0.06,-0.25,-0.10,1.22
13.00,1.00,280.38,-4.25,-52.50,0.12,-0.06,-0.25,-0.10,1.22
13.00,2.00,288.44,-19.00,19.19,0.44,-0.12,-0.19,-0.10,1.22
13.00,0.00,268.19,0.62,-95.12,-0.12,0.31,0.00,-0.11,1.24
13.00,1.00,280.38,-4.25,-52.50,0.75,0.50,-0.62,-0.11,1.24
13.00,2.00,288.44,-19.00,19.19,0.19,0.00,-0.12,-0.11,1.24
13.00,0.00,268.19,0.62,-95.12,-0.06,-0.19,-0.12,-0.12,1.26
13.00,1.00,280.38,-4.25,-52.50,0.00,0.50,-0.81,-0.12,1.26
13.00,2.00,288.44,-19.00,19.19,0.06,0.38,0.31,-0.12,1.26
13.00,0.00,268.19,0.62,-95.12,0.00,0.50,-0.06,-0.09,1.28
13.00,1.00,280.38,-4.25,-52.50,-0.19,1.00,-0.19,-0.09,1.28
13.00,2.00,288.44,-19.00,19.19,-0.75,0.06,0.19,-0.09,1.28
13.00,0.00,268.19,0.62,-95.12,-0.44,0.38,-0.25,-0.07,1.30
13.00,1.00,280.38,-4.25,-52.50,-0.25,0.69,-0.06,-0.07,1.30
13.00,2.00,288.44,-19.00,19.19,-1.12,-0.19,0.50,-0.07,1.30
13.00,0.00,268.19,0.62,-95.06,-0.62,0.62,-0.44,-0.06,1.32
13.00,1.00,280.38,-4.31,-52.50,-0.31,0.62,-0.19,-0.06,1.32
13.00,2.00,288.38,-19.00,19.19,-1.06,-0.06,0.69,-0.06,1.32
13.00,0.00,268.19,0.62,-95.06,-0.56,0.88,-0.19,-0.05,1.34
13.00,1.00,280.38,-4.31,-52.50,-0.12,0.62,-0.50,-0.05,1.34
13.00,2.00,288.38,-19.00,19.25,-0.81,0.19,0.75,-0.05,1.34
13.00,0.00,268.12,0.62,-95.06,0.19,1.25,-0.12,-0.02,1.36
13.00,1.00,280.38,-4.31,-52.50,-0.81,0.62,-0.62,-0.02,1.36
13.00,2.00,288.38,-19.00,19.25,-0.75,0.38,1.06,-0.02,1.36
13.00,0.00,268.12,0.62,-95.12,1.06,1.75,0.00,0.04,1.38
13.00,1.00,280.38,-4.31,-52.44,-0.31,0.81,-0.50,0.04,1.38
13.00,2.00,288.38,-19.00,19.25,-0.81,-0.06,1.06,0.04,1.38
13.00,0.00,268.06,0.62,-95.12,1.69,2.06,0.12,0.12,1.40
13.00,1.00,280.38,-4.31,-52.44,-0.06,0.56,-0.50,0.12,1.40
13.00,2.00,288.31,-19.00,19.25,-0.94,-0.25,1.12,0.12,1.40
13.00,0.00,268.00,0.62,-95.19,1.75,2.75,0.06,0.18,1.42
13.00,1.00,280.38,-4.31,-52.44,-0.31,-0.50,-0.81,0.18,1.42
13.00,2.00,288.31,-19.00,19.25,0.00,-0.88,1.31,0.18,1.42
13.00,0.00,267.94,0.62,-95.19,1.94,3.38,0.06,0.17,1.44
13.00,1.00,280.38,-4.31,-52.44,-0.25,-0.88,-1.31,0.17,1.44
13.00,2.00,288.25,-19.00,19.19,2.12,-1.31,1.31,0.17,1.44
13.00,0.00,267.88,0.62,-95.25,2.00,3.75,0.44,0.15,1.46
13.00,1.00,280.44,-4.38,-52.44,-0.06,-0.94,-1.38,0.15,1.46
13.00,2.00,288.25,-19.00,19.19,2.75,-2.50,1.88,0.15,1.46
13.00,0.00,267.75,0.62,-95.31,2.31,4.69,0.88,0.16,1.48
13.00,1.00,280.44,-4.38,-52.44,-0.44,0.06,-1.69,0.16,1.48
13.00,2.00,288.19,-18.94,19.12,2.00,-1.50,2.00,0.16,1.48
13.00,0.00,267.62,0.69,-95.31,3.25,5.31,1.25,0.20,1.50
13.00,1.00,280.50,-4.38,-52.44,-0.19,0.81,-1.00,0.20,1.50
13.00,2.00,288.19,-18.94,19.06,1.94,0.00,1.25,0.20,1.50
13.00,0.00,267.50,0.69,-95.38,3.44,5.19,1.38,0.30,1.52
13.00,1.00,280.50,-4.38,-52.44,-0.12,0.88,-0.25,0.30,1.52
13.00,2.00,288.12,-19.00,19.00,0.19,-0.31,2.19,0.30,1.52
13.00,0.00,267.38,0.75,-95.44,2.88,4.50,1.50,0.42,1.54
13.00,1.00,280.44,-4.44,-52.44,-1.00,0.62,0.38,0.42,1.54
13.00,2.00,288.06,-19.00,19.00,-1.06,-1.38,2.62,0.42,1.54
13.00,0.00,267.25,0.81,-95.50,2.25,4.00,1.25,0.53,1.56
13.00,1.00,280.44,-4.44,-52.44,-0.25,0.81,0.25,0.53,1.56
13.00,2.00,288.00,-19.00,19.06,-1.06,-1.50,2.75,0.53,1.56
13.00,0.00,267.12,0.81,-95.56,1.81,4.19,0.69,0.61,1.58
13.00,1.00,280.44,-4.44,-52.44,-1.00,0.75,-0.19,0.61,1.58
13.00,2.00,288.00,-19.00,19.06,-0.75,-0.44,2.44,0.61,1.58
13.00,0.00,267.06,0.81,-95.56,1.38,3.75,0.56,0.70,1.60
13.00,1.00,280.44,-4.44,-52.38,-1.50,0.88,0.00,0.70,1.60
13.00,2.00,287.94,-19.00,19.06,-1.69,-0.50,3.00,0.70,1.60
13.00,0.00,266.94,0.88,-95.62,1.50,3.00,1.12,0.83,1.62
13.00,1.00,280.44,-4.44,-52.38,-1.56,0.94,0.31,0.83,1.62
13.00,2.00,287.88,-19.00,19.12,-2.62,-0.75,3.00,0.83,1.62
13.00,0.00,266.88,0.88,-95.62,2.31,2.81,1.50,1.00,1.64
13.00,1.00,280.44,-4.44,-52.31,-1.50,1.19,0.19,1.00,1.64
13.00,2.00,287.75,-19.06,19.12,-2.81,-0.19,2.88,1.00,1.64
13.00,0.00,266.75,0.94,-95.69,3.31,3.62,1.69,1.19,1.66
13.00,1.00,280.38,-4.50,-52.25,-1.62,1.12,0.00,1.19,1.66
13.00,2.00,287.69,-19.06,19.19,-3.00,0.12,3.75,1.19,1.66
13.00,0.00,266.69,0.94,-95.75,4.06,3.00,2.31,1.44,1.68
13.00,1.00,280.38,-4.50,-52.25,-1.81,0.88,0.25,1.44,1.68
13.00,2.00,287.62,-19.12,19.25,-3.81,-0.12,4.00,1.44,1.68
13.00,0.00,266.56,1.06,-95.88,5.25,1.69,3.88,1.73,1.70
13.00,1.00,280.38,-4.50,-52.19,-2.19,1.06,-0.06,1.73,1.70
13.00,2.00,287.50,-19.12,19.31,-3.94,-0.19,4.19,1.73,1.70
13.00,0.00,266.44,1.12,-96.00,6.31,1.06,4.88,2.02,1.72
13.00,1.00,280.38,-4.50,-52.12,-1.81,1.50,-0.31,2.02,1.72
13.00,2.00,287.44,-19.19,19.38,-2.88,-0.44,4.75,2.02,1.72
13.00,0.00,266.31,1.25,-96.12,7.38,1.19,4.56,2.28,1.74
13.00,1.00,280.38,-4.56,-52.12,-1.06,1.75,-0.69,2.28,1.74
13.00,2.00,287.31,-19.19,19.38,-0.94,-0.44,4.56,2.28,1.74
13.00,0.00,266.19,1.31,-96.25,8.56,1.81,4.94,2.55,1.76
13.00,1.00,280.38,-4.56,-52.06,-0.88,1.94,-0.69,2.55,1.76
13.00,2.00,287.25,-19.25,19.38,-0.06,0.19,3.31,2.55,1.76
13.00,0.00,266.06,1.44,-96.44,9.00,1.56,4.25,2.88,1.78
13.00,1.00,280.31,-4.56,-52.06,-1.69,1.75,-0.06,2.88,1.78
13.00,2.00,287.19,-19.25,19.38,-1.25,-0.38,3.44,2.88,1.78
13.00,0.00,265.94,1.50,-96.62,8.69,2.50,3.31,3.22,1.80
13.00,1.00,280.31,-4.62,-52.00,-1.31,1.56,0.12,3.22,1.80
13.00,2.00,287.12,-19.25,19.38,-2.12,-0.69,4.25,3.22,1.80
13.00,0.00,265.75,1.56,-96.81,9.06,5.62,3.69,3.57,1.82
13.00,1.00,280.31,-4.62,-52.00,-1.25,1.56,-0.06,3.57,1.82
13.00,2.00,287.00,-19.31,19.44,-2.00,-0.44,4.50,3.57,1.82
13.00,0.00,265.50,1.62,-96.94,9.06,8.06,3.56,3.89,1.84
13.00,1.00,280.31,-4.62,-52.00,-0.88,1.69,-0.19,3.89,1.84
13.00,2.00,286.94,-19.31,19.44,-1.19,-0.44,5.19,3.89,1.84
13.00,0.00,265.25,1.75,-97.12,8.94,9.81,3.25,4.21,1.86
13.00,1.00,280.25,-4.69,-51.94,-1.62,1.69,0.38,4.21,1.86
13.00,2.00,286.81,-19.38,19.38,-1.19,-0.44,5.69,4.21,1.86
13.00,0.00,264.94,1.88,-97.31,10.50,8.19,4.62,4.61,1.88
13.00,1.00,280.25,-4.69,-51.94,-0.12,3.31,0.69,4.61,1.88
13.00,2.00,286.69,-19.38,19.38,-2.19,-0.75,5.69,4.61,1.88
13.00,0.00,264.69,1.94,-97.56,12.50,5.44,5.19,5.10,1.90
13.00,1.00,280.19,-4.75,-51.88,-1.69,3.38,0.81,5.10,1.90
13.00,2.00,286.56,-19.44,19.38,-3.19,-1.50,6.44,5.10,1.90
13.00,0.00,264.50,2.06,-97.81,12.81,3.62,3.75,5.62,1.92
13.00,1.00,280.12,-4.75,-51.88,-0.94,3.81,1.19,5.62,1.92
13.00,2.00,286.38,-19.44,19.44,-3.81,-2.00,6.88,5.62,1.92
13.00,0.00,264.38,2.12,-98.06,12.75,3.75,2.19,6.13,1.94
13.00,1.00,280.06,-4.75,-51.88,-1.69,3.31,0.94,6.13,1.94
13.00,2.00,286.25,-19.44,19.44,-3.44,-1.75,6.56,6.13,1.94
13.00,0.00,264.31,2.12,-98.19,13.25,3.19,2.56,6.62,1.96
13.00,1.00,280.00,-4.81,-51.81,-2.38,2.62,0.75,6.62,1.96
13.00,2.00,286.12,-19.44,19.50,-2.19,-1.44,5.88,6.62,1.96
13.00,0.00,264.06,2.25,-98.62,15.19,3.38,3.75,7.16,1.98
13.00,1.00,279.94,-4.81,-51.81,-1.12,3.31,1.12,7.16,1.98
13.00,2.00,286.00,-19.44,19.50,-2.12,-1.31,5.31,7.16,1.98
13.00,0.00,264.00,2.31,-98.75,16.38,5.00,4.12,7.76,2.00
13.00,1.00,279.88,-4.81,-51.75,-1.38,3.56,1.44,7.76,2.00
13.00,2.00,285.88,-19.50,19.50,-2.62,-0.12,6.00,7.76,2.00
13.00,0.00,263.62,2.44,-99.25,16.31,6.19,4.38,8.38,2.02
13.00,1.00,279.88,-4.88,-51.75,-1.06,3.50,0.88,8.38,2.02
13.00,2.00,285.69,-19.56,19.50,-3.44,0.25,7.69,8.38,2.02
13.00,0.00,263.44,2.56,-99.62,17.81,4.12,5.31,9.10,2.04
13.00,1.00,279.81,-4.88,-51.69,-1.25,4.31,1.12,9.10,2.04
13.00,2.00,285.56,-19.62,19.56,-5.06,1.44,7.81,9.10,2.04
13.00,0.00,263.19,2.69,-100.00,20.06,2.50,7.12,10.04,2.06
13.00,1.00,279.69,-4.94,-51.69,-1.62,4.38,1.38,10.04,2.06
13.00,2.00,285.38,-19.69,19.69,-9.75,1.75,7.75,10.04,2.06
13.00,0.00,263.12,2.75,-100.19,22.38,1.12,7.12,11.08,2.08
13.00,1.00,279.62,-4.94,-51.62,-2.62,4.19,1.19,11.08,2.08
13.00,2.00,285.19,-19.75,19.81,-10.50,1.50,7.69,11.08,2.08
13.00,0.00,262.94,2.94,-100.62,25.31,-0.94,8.56,12.13,2.10
13.00,1.00,279.56,-5.00,-51.56,-2.50,3.81,0.75,12.13,2.10
13.00,2.00,285.06,-19.81,20.00,-8.25,0.88,6.44,12.13,2.10
13.00,0.00,262.75,3.06,-101.19,26.44,-2.00,9.00,13.13,2.12
13.00,1.00,279.56,-5.06,-51.56,-2.25,3.81,0.25,13.13,2.12
13.00,2.00,284.88,-19.88,20.06,-5.06,1.56,5.88,13.13,2.12
13.00,0.00,262.56,3.25,-101.69,26.81,-3.31,8.69,14.09,2.14
13.00,1.00,279.50,-5.06,-51.50,-1.94,4.12,0.00,14.09,2.14
13.00,2.00,284.75,-19.94,20.12,-3.69,1.81,5.94,14.09,2.14
13.00,0.00,262.44,3.38,-102.19,26.69,-2.56,8.50,15.06,2.16
13.00,1.00,279.50,-5.12,-51.50,-2.00,3.50,0.19,15.06,2.16
13.00,2.00,284.62,-20.00,20.12,-4.31,0.62,7.19,15.06,2.16
13.00,0.00,262.31,3.56,-102.75,27.50,-3.06,8.19,16.06,2.18
13.00,1.00,279.44,-5.19,-51.44,-2.44,3.19,0.50,16.06,2.18
13.00,2.00,284.44,-20.06,20.19,-4.31,-0.56,8.25,16.06,2.18
13.00,0.00,262.19,3.69,-103.31,29.31,-4.56,8.94,17.10,2.20
13.00,1.00,279.38,-5.19,-51.38,-1.56,3.81,0.81,17.10,2.20
13.00,2.00,284.25,-20.12,20.19,-3.56,-0.06,9.12,17.10,2.20
13.00,0.00,262.06,3.81,-103.88,29.44,-4.94,8.94,18.16,2.22
13.00,1.00,279.31,-5.25,-51.38,-1.50,4.31,0.94,18.16,2.22
13.00,2.00,284.06,-20.19,20.25,-4.38,0.19,9.19,18.16,2.22
13.00,0.00,262.00,4.00,-104.44,29.31,-4.69,9.00,19.25,2.24
13.00,1.00,279.25,-5.25,-51.31,-2.19,4.38,1.81,19.25,2.24
13.00,2.00,283.88,-20.25,20.25,-5.25,-0.44,8.56,19.25,2.24
13.00,0.00,261.88,4.12,-105.06,29.88,-4.69,9.25,20.35,2.26
13.00,1.00,279.19,-5.31,-51.31,-2.38,4.00,2.25,20.35,2.26
13.00,2.00,283.69,-20.31,20.31,-5.00,-0.38,8.19,20.35,2.26
13.00,0.00,261.69,4.31,-105.62,30.19,-3.44,10.31,21.45,2.28
13.00,1.00,279.12,-5.31,-51.25,-2.25,4.19,1.69,21.45,2.28
13.00,2.00,283.56,-20.38,20.38,-4.75,0.25,7.88,21.45,2.28
13.00,0.00,261.50,4.50,-106.25,31.12,-2.88,11.06,22.58,2.30
13.00,1.00,279.06,-5.31,-51.25,-2.75,3.75,1.25,22.58,2.30
13.00,2.00,283.38,-20.44,20.38,-4.75,0.38,8.25,22.58,2.30
13.00,0.00,261.19,4.75,-106.88,31.69,-0.12,13.06,23.74,2.32
13.00,1.00,278.94,-5.38,-51.19,-2.44,4.44,1.38,23.74,2.32
13.00,2.00,283.19,-20.50,20.44,-5.25,-0.38,8.44,23.74,2.32
13.00,0.00,260.81,5.00,-107.50,31.81,1.50,13.75,24.91,2.34
13.00,1.00,278.88,-5.38,-51.12,-3.12,4.94,1.69,24.91,2.34
13.00,2.00,283.00,-20.50,20.50,-5.25,-0.75,8.00,24.91,2.34
13.00,0.00,260.44,5.31,-108.06,31.75,1.56,14.25,26.05,2.36
13.00,1.00,278.81,-5.44,-51.06,-2.50,5.50,2.19,26.05,2.36
13.00,2.00,282.81,-20.56,20.56,-4.38,-1.62,8.38,26.05,2.36
13.00,0.00,260.00,5.56,-108.75,32.69,0.81,15.25,27.20,2.38
13.00,1.00,278.69,-5.44,-51.06,-2.56,5.56,2.12,27.20,2.38
13.00,2.00,282.62,-20.56,20.56,-4.12,-2.75,8.00,27.20,2.38
13.00,0.00,259.62,5.88,-109.38,34.00,-0.44,16.50,28.41,2.40
13.00,1.00,278.62,-5.50,-51.00,-2.69,5.19,1.88,28.41,2.40
13.00,2.00,282.50,-20.56,20.56,-4.19,-2.94,8.12,28.41,2.40
13.00,0.00,259.19,6.19,-110.06,34.56,-1.56,16.88,29.59,2.42
13.00,1.00,278.50,-5.56,-50.94,-2.88,5.12,1.56,29.59,2.42
13.00,2.00,282.31,-20.56,20.56,-2.94,-2.94,8.75,29.59,2.42
13.00,0.00,258.81,6.44,-110.75,34.88,-2.38,16.38,30.72,2.44
13.00,1.00,278.44,-5.56,-50.88,-2.44,5.00,1.25,30.72,2.44
13.00,2.00,282.06,-20.56,20.56,-1.06,-2.56,9.31,30.72,2.44
13.00,0.00,258.44,6.75,-111.50,36.88,-2.06,17.38,31.92,2.46
13.00,1.00,278.38,-5.62,-50.88,-2.00,4.88,1.25,31.92,2.46
13.00,2.00,281.88,-20.56,20.50,-1.38,-2.12,10.00,31.92,2.46
13.00,0.00,258.00,7.06,-112.19,36.88,-0.88,18.12,33.13,2.48
13.00,1.00,278.31,-5.62,-50.81,-1.81,5.31,2.00,33.13,2.48
13.00,2.00,281.69,-20.62,20.44,-1.38,-3.44,10.88,33.13,2.48
13.00,0.00,257.50,7.38,-112.94,37.12,-0.19,18.25,34.34,2.50
13.00,1.00,278.19,-5.69,-50.81,-1.94,5.56,2.19,34.34,2.50
13.00,2.00,281.44,-20.62,20.38,-1.44,-4.69,11.44,34.34,2.50
13.00,0.00,256.94,7.75,-113.69,37.69,1.56,18.62,35.52,2.52
13.00,1.00,278.12,-5.75,-50.75,-1.94,5.56,2.19,35.52,2.52
13.00,2.00,281.19,-20.56,20.31,0.25,-5.88,12.12,35.52,2.54
13.00,0.00,256.31,8.06,-114.44,36.50,3.44,18.06,36.65,2.54
13.00,1.00,278.00,-5.75,-50.75,-1.50,5.62,2.12,36.65,2.54
13.00,2.00,280.94,-20.56,20.19,0.56,-5.62,13.19,36.65,2.54
13.00,0.00,255.69,8.44,-115.12,37.25,3.56,18.31,37.83,2.56
13.00,1.00,277.88,-5.81,-50.75,-2.31,5.94,2.25,37.83,2.56
13.00,2.00,280.62,-20.56,20.06,-0.19,-6.56,13.88,37.83,2.56
13.00,0.00,255.00,8.81,-115.88,36.44,5.69,18.38,38.98,2.58
13.00,1.00,277.81,-5.81,-50.69,-2.38,5.81,2.56,38.98,2.58
13.00,2.00,280.31,-20.50,20.00,-0.06,-6.44,14.19,38.98,2.58
13.00,0.00,254.25,9.12,-116.56,36.38,6.81,17.19,40.11,2.60
13.00,1.00,277.69,-5.88,-50.69,-1.88,6.50,2.50,40.11,2.60
13.00,2.00,280.06,-20.50,19.88,0.31,-6.00,14.12,40.11,2.60
13.00,0.00,253.50,9.50,-117.31,38.12,7.31,17.56,41.33,2.62
13.00,1.00,277.56,-5.94,-50.62,-1.50,7.12,2.75,41.33,2.62
13.00,2.00,279.75,-20.50,19.75,-0.62,-5.88,14.06,41.33,2.62
13.00,0.00,252.69,9.88,-118.06,38.19,7.75,17.69,42.57,2.64
13.00,1.00,277.44,-5.94,-50.62,-1.69,6.56,2.44,42.57,2.64
13.00,2.00,279.44,-20.44,19.69,-1.12,-7.00,14.44,42.57,2.64
13.00,0.00,252.00,10.19,-118.75,37.50,7.06,16.44,43.74,2.66
13.00,1.00,277.38,-6.00,-50.56,-2.69,6.44,2.38,43.74,2.66
13.00,2.00,279.12,-20.44,19.56,0.44,-6.06,15.00,43.74,2.66
13.00,0.00,251.31,10.50,-119.50,37.50,5.88,15.56,44.89,2.68
13.00,1.00,277.25,-6.06,-50.56,-1.44,7.00,2.38,44.89,2.68
13.00,2.00,278.81,-20.44,19.44,0.88,-5.00,14.69,44.89,2.68
13.00,0.00,250.62,10.75,-120.12,35.75,5.94,13.62,46.01,2.70
13.00,1.00,277.12,-6.12,-50.56,-2.81,6.12,2.25,46.01,2.70
13.00,2.00,278.50,-20.44,19.38,0.06,-3.50,15.69,46.01,2.70
13.00,0.00,250.00,11.00,-120.81,35.44,4.62,12.44,47.18,2.72
13.00,1.00,277.00,-6.12,-50.50,-2.81,6.19,2.31,47.18,2.72
13.00,2.00,278.19,-20.50,19.25,-1.69,-4.12,16.81,47.18,2.72
13.00,0.00,249.38,11.25,-121.50,35.25,4.25,12.12,48.35,2.74
13.00,1.00,276.88,-6.19,-50.44,-1.88,8.44,2.38,48.35,2.74
13.00,2.00,277.81,-20.50,19.19,-1.94,-4.88,17.44,48.35,2.74
13.00,0.00,248.75,11.44,-122.19,35.38,4.44,12.12,49.54,2.76
13.00,1.00,276.75,-6.25,-50.44,-2.44,7.88,2.38,49.54,2.76
13.00,2.00,277.50,-20.56,19.06,-2.31,-3.69,16.81,49.54,2.76
13.00,0.00,248.19,11.69,-122.81,35.19,4.12,11.69,50.77,2.78
13.00,1.00,276.69,-6.31,-50.38,-2.81,7.56,2.81,50.77,2.78
13.00,2.00,277.12,-20.56,19.06,-4.00,-4.06,16.44,50.77,2.78
13.00,0.00,247.50,11.94,-123.50,33.88,5.38,11.38,52.00,2.80
13.00,1.00,276.56,-6.38,-50.38,-1.56,7.56,2.31,52.00,2.80
13.00,2.00,276.81,-20.56,19.00,-4.94,-4.94,16.25,52.00,2.80
13.00,0.00,246.75,12.12,-124.12,33.44,5.44,11.19,53.14,2.82
13.00,1.00,276.44,-6.44,-50.31,-1.69,6.62,0.56,53.14,2.82
13.00,2.00,276.50,-20.62,18.94,-2.81,-2.38,14.94,53.14,2.84
13.00,0.00,246.06,12.38,-124.81,33.56,4.81,11.06,54.24,2.84
13.00,1.00,276.38,-6.50,-50.31,-2.19,6.50,-0.31,54.24,2.84
13.00,2.00,276.19,-20.69,18.88,-1.31,-0.12,13.44,54.24,2.84
13.00,0.00,245.44,12.62,-125.44,32.94,3.25,11.12,55.30,2.86
13.00,1.00,276.31,-6.62,-50.25,-1.94,7.44,-0.69,55.30,2.86
13.00,2.00,275.94,-20.75,18.81,-0.81,-0.75,13.62,55.30,2.86
13.00,0.00,244.81,12.81,-126.06,30.38,3.88,10.62,56.28,2.88
13.00,1.00,276.25,-6.75,-50.25,-1.38,8.88,-0.19,56.28,2.88
13.00,2.00,275.62,-20.81,18.75,-0.81,-1.81,15.69,56.28,2.88
13.00,0.00,244.12,13.00,-126.62,28.56,4.12,9.69,57.18,2.90
13.00,1.00,276.19,-6.81,-50.25,-1.06,9.75,0.50,57.18,2.90
13.00,2.00,275.31,-20.88,18.62,0.12,-2.19,16.31,57.18,2.90
13.00,0.00,243.81,13.19,-127.19,27.19,4.38,10.56,58.08,2.92
13.00,1.00,276.06,-6.94,-50.25,-0.06,11.62,2.31,58.08,2.92
13.00,2.00,275.00,-20.94,18.50,-1.50,-3.44,16.69,58.08,2.92
13.00,0.00,243.12,13.44,-127.69,24.62,5.88,10.31,58.94,2.94
13.00,1.00,275.88,-7.06,-50.31,1.56,15.38,3.31,58.94,2.94
13.00,2.00,274.62,-20.94,18.38,-2.62,-5.69,18.25,58.94,2.94
13.00,0.00,242.44,13.69,-128.19,24.50,5.06,9.88,59.77,2.96
13.00,1.00,275.69,-7.19,-50.38,-0.25,12.94,2.94,59.77,2.96
13.00,2.00,274.19,-20.94,18.31,-2.12,-6.31,19.00,59.77,2.96
13.00,0.00,241.75,13.88,-128.69,25.19,6.31,10.00,60.59,2.98
13.00,1.00,275.50,-7.25,-50.31,-2.31,10.81,3.12,60.59,2.98
13.00,2.00,273.81,-20.94,18.19,-0.81,-5.94,19.50,60.59,2.98
13.00,0.00,240.94,14.12,-129.12,24.25,7.81,9.12,61.41,3.00
13.00,1.00,275.31,-7.38,-50.38,0.75,14.31,2.69,61.41,3.00
13.00,2.00,273.44,-20.94,18.06,-1.62,-6.25,18.50,61.41,3.00
13.00,0.00,240.31,14.38,-129.56,25.50,7.81,9.19,62.25,3.02
13.00,1.00,275.12,-7.56,-50.44,3.81,19.19,3.12,62.25,3.02
13.00,2.00,273.06,-20.94,18.00,-1.31,-7.81,18.06,62.25,3.02
13.00,0.00,239.44,14.62,-130.06,25.31,10.00,10.50,63.03,3.04
13.00,1.00,274.88,-7.81,-50.56,6.50,21.38,1.81,63.03,3.04
13.00,2.00,272.69,-20.88,17.88,0.50,-6.69,17.44,63.03,3.04
13.00,0.00,238.44,14.94,-130.44,24.38,12.69,11.06,63.74,3.06
13.00,1.00,274.69,-7.88,-50.62,-2.62,9.56,3.38,63.74,3.06
13.00,2.00,272.38,-20.81,17.75,1.75,-6.19,17.19,63.74,3.06
13.00,0.00,237.50,15.25,-130.81,22.75,13.69,10.81,64.44,3.08
13.00,1.00,274.56,-7.94,-50.62,-0.19,12.00,4.19,64.44,3.08
13.00,2.00,272.00,-20.81,17.62,0.69,-5.94,16.81,64.44,3.08
13.00,0.00,236.56,15.56,-131.19,22.06,13.19,9.12,65.13,3.10
13.00,1.00,274.31,-8.12,-50.75,3.88,18.69,2.62,65.13,3.10
13.00,2.00,271.69,-20.81,17.50,0.19,-7.00,17.00,65.13,3.10
13.00,0.00,235.81,15.81,-131.62,23.25,11.94,9.69,65.86,3.12
13.00,1.00,274.06,-8.38,-50.88,4.88,21.31,2.88,65.86,3.12
13.00,2.00,271.31,-20.75,17.38,0.06,-6.06,16.19,65.86,3.12
13.00,0.00,234.94,16.12,-132.00,22.38,10.25,10.31,66.58,3.14
13.00,1.00,273.88,-8.44,-50.94,-3.12,10.12,4.31,66.58,3.14
13.00,2.00,271.00,-20.75,17.25,-0.50,-6.38,16.50,66.58,3.14
13.00,0.00,234.12,16.31,-132.25,20.06,11.00,8.88,67.24,3.16
13.00,1.00,273.69,-8.44,-50.81,-4.06,7.81,5.44,67.24,3.16
13.00,2.00,270.69,-20.69,17.19,-0.81,-6.69,16.38,67.24,3.16
13.00,0.00,233.50,16.50,-132.50,19.69,10.25,7.12,67.90,3.18
13.00,1.00,273.50,-8.62,-50.94,3.75,19.25,3.69,67.90,3.18
13.00,2.00,270.38,-20.62,17.12,-1.44,-7.94,15.81,67.90,3.18
13.00,0.00,232.88,16.69,-132.81,21.44,7.12,7.94,68.56,3.20
13.00,1.00,273.25,-8.75,-51.00,-0.56,12.12,4.19,68.56,3.20
13.00,2.00,270.06,-20.56,17.12,0.44,-6.69,14.69,68.56,3.20
13.00,0.00,232.31,16.88,-133.12,22.50,6.69,10.19,69.19,3.22
13.00,1.00,273.12,-8.75,-50.94,-4.69,6.62,5.56,69.19,3.22
13.00,2.00,269.81,-20.56,17.00,2.44,-4.62,13.06,69.19,3.22
13.00,0.00,231.44,17.12,-133.56,20.50,8.50,10.00,69.81,3.24
13.00,1.00,272.88,-8.81,-51.00,3.00,15.12,3.38,69.81,3.24
13.00,2.00,269.56,-20.50,16.88,0.81,-4.88,13.62,69.81,3.24
13.00,0.00,230.69,17.31,-133.88,18.44,8.56,6.81,70.39,3.26
13.00,1.00,272.75,-8.94,-51.06,0.12,12.12,3.12,70.39,3.26
13.00,2.00,269.25,-20.50,16.81,0.25,-5.25,14.12,70.39,3.26
13.00,0.00,230.00,17.50,-134.19,17.19,7.94,6.00,70.93,3.28
13.00,1.00,272.56,-9.00,-51.06,-2.75,7.38,4.25,70.93,3.28
13.00,2.00,269.00,-20.50,16.69,0.00,-5.00,13.19,70.93,3.28
13.00,0.00,229.44,17.62,-134.38,15.69,7.19,5.06,71.45,3.30
13.00,1.00,272.38,-9.06,-51.06,0.00,10.75,3.81,71.45,3.30
13.00,2.00,268.69,-20.44,16.62,-1.06,-6.19,12.75,71.45,3.30
13.00,0.00,229.19,17.75,-134.56,14.75,5.69,4.88,71.92,3.32
13.00,1.00,272.25,-9.12,-51.06,-0.56,9.06,3.75,71.92,3.32
13.00,2.00,268.50,-20.38,16.62,0.06,-6.25,12.06,71.92,3.32
13.00,0.00,228.69,17.88,-134.88,16.31,3.94,6.25,72.38,3.34
13.00,1.00,272.12,-9.19,-51.06,-0.88,8.44,3.50,72.38,3.34
13.00,2.00,268.25,-20.31,16.56,1.50,-4.25,10.62,72.38,3.34
13.00,0.00,228.06,18.06,-135.25,17.38,5.25,8.50,72.90,3.36
13.00,1.00,271.94,-9.25,-51.12,0.06,9.00,2.44,72.90,3.36
13.00,2.00,268.06,-20.31,16.50,1.06,-3.31,9.88,72.90,3.36
13.00,0.00,227.25,18.31,-135.56,16.06,8.69,8.44,73.39,3.38
13.00,1.00,271.81,-9.31,-51.12,1.31,10.75,2.38,73.39,3.38
13.00,2.00,267.88,-20.25,16.44,0.38,-4.50,9.38,73.39,3.38
13.00,0.00,226.50,18.50,-135.81,13.44,9.12,6.62,73.78,3.40
13.00,1.00,271.75,-9.38,-51.19,2.56,11.75,1.62,73.78,3.40
13.00,2.00,267.69,-20.19,16.44,1.06,-6.69,8.31,73.78,3.40
13.00,0.00,225.94,18.69,-136.00,10.50,9.62,4.38,73.97,3.42
13.00,1.00,271.62,-9.56,-51.25,-0.94,5.00,2.56,73.97,3.42
13.00,2.00,267.56,-20.12,16.31,4.56,-7.12,5.69,73.97,3.42
13.00,0.00,225.38,18.88,-136.19,8.81,7.31,2.62,73.99,3.44
13.00,1.00,271.56,-9.56,-51.19,0.19,5.12,1.81,73.99,3.44
13.00,2.00,267.56,-20.06,16.12,7.94,-2.75,1.56,73.99,3.44
13.00,0.00,225.44,18.94,-136.25,11.00,2.38,3.31,74.10,3.46
13.00,1.00,271.50,-9.56,-51.25,0.69,5.62,1.50,74.10,3.46
13.00,2.00,267.56,-20.00,15.94,7.50,-2.38,0.56,74.10,3.46
13.00,0.00,225.00,19.00,-136.56,14.62,0.94,6.38,74.37,3.48
13.00,1.00,271.44,-9.62,-51.25,-0.38,3.19,1.00,74.37,3.48
13.00,2.00,267.56,-19.94,15.81,6.06,-3.19,0.69,74.37,3.48
13.00,0.00,224.44,19.12,-136.88,15.00,4.19,7.19,74.68,3.50
13.00,1.00,271.38,-9.69,-51.25,1.38,5.31,0.50,74.68,3.50
13.00,2.00,267.56,-19.88,15.69,5.31,-3.12,0.25,74.68,3.50
13.00,0.00,223.88,19.31,-137.12,11.88,7.44,5.38,74.87,3.52
13.00,1.00,271.31,-9.81,-51.31,1.25,2.06,-0.06,74.87,3.52
13.00,2.00,267.62,-19.81,15.69,5.94,-2.62,-1.25,74.87,3.52
13.00,0.00,223.31,19.50,-137.25,9.06,6.88,4.25,74.94,3.54
13.00,1.00,271.31,-9.81,-51.31,-2.75,-1.50,1.81,74.94,3.54
13.00,2.00,267.69,-19.75,15.62,6.81,-2.62,-2.31,74.94,3.54
13.00,0.00,222.88,19.62,-137.44,7.69,6.06,3.38,74.92,3.56
13.00,1.00,271.31,-9.81,-51.31,2.25,2.19,-0.12,74.92,3.56
13.00,2.00,267.75,-19.69,15.56,8.12,-1.25,-3.81,74.92,3.56
13.00,0.00,222.44,19.75,-137.56,7.94,4.25,3.06,74.96,3.58
13.00,1.00,271.25,-9.81,-51.31,-1.19,-2.06,1.38,74.96,3.58
13.00,2.00,267.88,-19.62,15.44,6.75,-1.88,-3.31,74.96,3.58
13.00,0.00,222.25,19.75,-137.62,8.38,3.38,3.44,75.05,3.60
13.00,1.00,271.31,-9.81,-51.31,1.56,-0.62,-0.56,75.05,3.60
13.00,2.00,267.94,-19.56,15.44,5.62,-2.75,-3.31,75.05,3.60
13.00,0.00,221.88,19.88,-137.81,7.31,4.69,3.44,75.06,3.62
13.00,1.00,271.31,-9.81,-51.31,0.06,-1.88,-0.44,75.06,3.62
13.00,2.00,268.06,-19.50,15.38,6.94,-1.44,-2.81,75.06,3.62
13.00,0.00,221.50,20.00,-137.88,5.69,5.19,3.75,74.95,3.64
13.00,1.00,271.31,-9.81,-51.31,-0.81,-3.44,-0.69,74.95,3.64
13.00,2.00,268.12,-19.50,15.25,9.12,0.56,-4.62,74.95,3.64
13.00,0.00,221.12,20.12,-138.00,5.50,5.12,3.75,74.90,3.66
13.00,1.00,271.38,-9.75,-51.25,-0.44,-3.19,-0.75,74.90,3.66
13.00,2.00,268.25,-19.50,15.12,7.19,0.06,-3.25,74.90,3.66
13.00,0.00,220.88,20.25,-138.06,4.62,5.25,3.31,74.90,3.68
13.00,1.00,271.44,-9.75,-51.25,1.25,-1.25,-0.50,74.90,3.68
13.00,2.00,268.31,-19.44,15.00,4.50,-1.12,-1.00,74.90,3.68
13.00,0.00,220.50,20.31,-138.12,4.88,4.38,2.69,74.97,3.70
13.00,1.00,271.44,-9.75,-51.31,1.00,-1.19,0.38,74.97,3.70
13.00,2.00,268.31,-19.44,14.94,2.56,-2.69,0.69,74.97,3.70
13.00,0.00,220.31,20.44,-138.25,4.88,4.00,2.81,75.05,3.72
13.00,1.00,271.44,-9.75,-51.31,0.00,-1.12,0.12,75.05,3.72
13.00,2.00,268.25,-19.38,14.88,2.56,-2.25,1.25,75.05,3.72
13.00,0.00,220.00,20.56,-138.31,4.06,3.69,2.75,75.11,3.74
13.00,1.00,271.44,-9.69,-51.31,1.25,0.56,-0.12,75.11,3.74
13.00,2.00,268.25,-19.31,14.88,2.00,-1.94,1.00,75.11,3.74
13.00,0.00,219.69,20.62,-138.38,3.94,3.75,2.56,75.17,3.76
13.00,1.00,271.44,-9.69,-51.31,0.56,-0.75,0.81,75.17,3.76
13.00,2.00,268.25,-19.31,14.81,2.25,-2.12,1.88,75.17,3.76
13.00,0.00,219.69,20.69,-138.50,3.88,3.06,2.12,75.22,3.78
13.00,1.00,271.44,-9.69,-51.31,1.50,0.62,0.94,75.22,3.78
13.00,2.00,268.19,-19.25,14.75,2.25,-1.94,1.75,75.22,3.78
13.00,0.00,219.44,20.75,-138.56,3.44,2.31,1.69,75.26,3.80
13.00,1.00,271.44,-9.69,-51.38,1.69,0.88,1.12,75.26,3.80
13.00,2.00,268.12,-19.25,14.69,2.19,-2.50,3.25,75.26,3.80
13.00,0.00,219.25,20.81,-138.62,3.44,2.81,1.62,75.33,3.82
13.00,1.00,271.38,-9.69,-51.38,1.19,0.69,2.44,75.33,3.82
13.00,2.00,268.06,-19.19,14.62,1.19,-3.75,3.81,75.33,3.82
13.00,0.00,219.00,20.88,-138.69,3.06,3.50,0.56,75.37,3.84
13.00,1.00,271.31,-9.62,-51.44,2.62,3.25,2.44,75.37,3.84
13.00,2.00,268.00,-19.12,14.56,1.69,-3.56,3.94,75.37,3.84
13.00,0.00,218.75,20.94,-138.69,3.56,3.19,0.44,75.42,3.86
13.00,1.00,271.25,-9.62,-51.50,2.19,2.69,2.44,75.42,3.86
13.00,2.00,267.94,-19.06,14.50,2.00,-3.62,3.50,75.42,3.86
13.00,0.00,218.81,21.00,-138.81,4.81,2.50,1.44,75.47,3.88
13.00,1.00,271.19,-9.62,-51.50,1.25,2.75,1.88,75.47,3.88
13.00,2.00,267.88,-19.00,14.44,3.12,-4.25,3.56,75.47,3.88
13.00,0.00,218.50,21.06,-138.88,5.12,2.44,1.94,75.48,3.90
13.00,1.00,271.12,-9.62,-51.56,1.69,3.19,1.00,75.48,3.90
13.00,2.00,267.75,-18.88,14.31,4.75,-5.31,4.31,75.48,3.90
13.00,0.00,218.19,21.12,-139.00,5.56,3.69,1.88,75.48,3.92
13.00,1.00,271.06,-9.62,-51.56,1.50,3.12,1.00,75.48,3.92
13.00,2.00,267.69,-18.81,14.19,5.56,-4.12,4.56,75.48,3.92
13.00,0.00,217.81,21.25,-139.12,5.94,4.31,1.88,75.52,3.94
13.00,1.00,271.00,-9.69,-51.62,2.75,5.50,0.62,75.52,3.94
13.00,2.00,267.62,-18.75,14.06,4.88,-3.44,3.62,75.52,3.94
13.00,0.00,217.44,21.38,-139.19,6.56,5.62,2.00,75.61,3.96
13.00,1.00,271.00,-9.75,-51.69,1.06,3.44,1.25,75.61,3.96
13.00,2.00,267.56,-18.69,13.94,3.75,-4.12,4.25,75.61,3.96
13.00,0.00,217.06,21.44,-139.31,7.38,5.00,2.50,75.70,3.98
13.00,1.00,270.94,-9.75,-51.69,1.12,2.56,0.56,75.70,3.98
13.00,2.00,267.50,-18.62,13.88,4.38,-4.31,4.50,75.70,3.98
13.00,0.00,216.62,21.56,-139.50,7.75,5.12,2.81,75.79,4.00
13.00,1.00,270.94,-9.75,-51.75,1.50,2.69,0.25,75.79,4.00
13.00,2.00,267.44,-18.56,13.75,4.81,-3.12,3.56,75.79,4.00
13.00,0.00,99.31,21.69,-139.62,8.38,4.94,2.62,75.93,4.02
13.00,1.00,270.88,-9.81,-51.75,1.00,2.81,0.44,75.93,4.02
13.00,2.00,267.38,-18.56,13.62,4.12,-3.25,4.06,75.93,4.02
13.00,0.00,99.31,21.75,-139.81,8.81,3.94,2.94,76.07,4.04
13.00,1.00,270.88,-9.88,-51.81,1.69,4.06,0.69,76.07,4.04
13.00,2.00,267.31,-18.50,13.50,4.25,-3.50,3.25,76.07,4.04
13.00,0.00,99.31,21.88,-139.94,9.00,2.81,3.19,76.21,4.06
13.00,1.00,270.81,-9.88,-51.88,1.50,4.88,1.75,76.21,4.06
13.00,2.00,267.25,-18.44,13.44,4.44,-3.06,3.31,76.21,4.06
13.00,0.00,99.31,21.94,-140.12,8.56,1.75,3.06,76.36,4.08
13.00,1.00,270.75,-9.94,-51.88,1.69,2.69,0.12,76.36,4.08
13.00,2.00,267.19,-18.38,13.31,4.00,-2.88,3.56,76.36,4.08
13.00,0.00,99.31,21.94,-140.31,8.12,0.69,2.56,76.50,4.10
13.00,1.00,270.69,-9.94,-51.94,0.56,1.31,0.69,76.50,4.10
13.00,2.00,267.12,-18.38,13.19,3.50,-2.56,3.69,76.50,4.10
13.00,0.00,99.38,22.00,-140.44,7.81,-0.06,2.19,76.64,4.12
13.00,1.00,270.69,-9.94,-51.94,0.69,1.50,0.31,76.64,4.12
13.00,2.00,267.06,-18.31,13.12,3.44,-2.19,3.12,76.64,4.12
13.00,0.00,99.38,22.00,-140.62,7.25,-0.31,2.06,76.75,4.14
13.00,1.00,270.69,-10.00,-51.94,1.00,2.19,0.56,76.75,4.14
13.00,2.00,267.00,-18.31,13.00,3.88,-1.94,3.56,76.75,4.14
13.00,0.00,99.38,22.06,-140.75,6.88,-0.06,2.06,76.87,4.16
13.00,1.00,270.62,-10.00,-52.00,1.44,3.44,0.31,76.87,4.16
13.00,2.00,266.94,-18.25,12.94,2.81,-2.06,3.62,76.87,4.16
13.00,0.00,99.50,22.12,-140.88,6.62,0.81,2.38,77.02,4.18
13.00,1.00,270.62,-10.06,-52.00,1.06,2.75,0.75,77.02,4.18
13.00,2.00,266.88,-18.25,12.88,1.88,-2.88,3.38,77.02,4.18
13.00,0.00,99.50,22.12,-141.00,5.62,1.31,2.44,77.12,4.20
13.00,1.00,270.56,-10.06,-52.06,0.81,1.94,0.56,77.12,4.20
13.00,2.00,266.81,-18.19,12.81,2.56,-1.56,1.88,77.12,4.20
13.00,0.00,99.56,22.19,-141.06,5.19,1.88,2.38,77.20,4.22
13.00,1.00,270.56,-10.06,-52.06,0.00,1.50,1.81,77.20,4.22
13.00,2.00,266.81,-18.19,12.75,2.56,-0.81,-0.19,77.20,4.22
13.00,0.00,99.56,22.25,-141.19,4.62,1.38,2.19,77.25,4.24
13.00,1.00,270.50,-10.06,-52.06,-0.62,2.00,2.44,77.25,4.24
13.00,2.00,266.81,-18.12,12.69,3.25,-1.25,-0.38,77.25,4.24
13.00,0.00,99.62,22.31,-141.25,4.12,1.38,2.31,77.27,4.26
13.00,1.00,270.44,-10.00,-52.06,-0.81,1.00,2.38,77.27,4.26
13.00,2.00,266.81,-18.12,12.62,3.50,-1.44,0.56,77.27,4.26
13.00,0.00,99.62,22.38,-141.31,3.50,2.31,1.94,77.31,4.28
13.00,1.00,270.38,-10.00,-52.06,-0.75,0.50,2.50,77.31,4.28
13.00,2.00,266.81,-18.06,12.56,2.25,-1.56,1.06,77.31,4.28
13.00,0.00,99.62,22.44,-141.31,2.88,3.19,1.56,77.35,4.30
13.00,1.00,270.31,-9.94,-52.06,0.19,1.56,2.31,77.35,4.30
13.00,2.00,266.81,-18.06,12.56,1.62,-1.75,1.44,77.35,4.30
13.00,0.00,99.69,22.56,-141.38,2.12,3.88,1.38,77.37,4.32
13.00,1.00,270.25,-9.94,-52.06,0.50,2.19,1.75,77.37,4.32
13.00,2.00,266.75,-18.06,12.50,1.31,-1.56,2.06,77.37,4.32
13.00,0.00,99.62,22.62,-141.38,2.06,5.50,1.31,77.42,4.34
13.00,1.00,270.19,-9.94,-52.06,-0.44,1.62,2.06,77.42,4.34
13.00,2.00,266.69,-18.00,12.44,0.56,-1.44,2.19,77.42,4.34
13.00,0.00,99.62,22.75,-141.38,1.50,6.00,1.31,77.47,4.36
13.00,1.00,270.12,-9.94,-52.06,-0.12,2.56,1.38,77.47,4.36
13.00,2.00,266.69,-18.00,12.44,-0.12,-1.19,2.12,77.47,4.36
13.00,0.00,99.62,22.88,-141.38,0.94,5.12,1.06,77.53,4.38
13.00,1.00,270.12,-9.94,-52.06,-0.31,2.94,1.19,77.53,4.38
13.00,2.00,266.62,-18.00,12.44,-1.12,-0.88,3.00,77.53,4.38
13.00,0.00,99.62,22.94,-141.38,0.25,4.12,0.75,77.60,4.40
13.00,1.00,270.06,-9.94,-52.06,-2.12,1.62,1.31,77.60,4.40
13.00,2.00,266.56,-18.00,12.44,-1.81,-0.38,2.94,77.60,4.40
13.00,0.00,99.69,22.94,-141.38,-0.31,2.94,-0.12,77.66,4.42
13.00,1.00,270.00,-9.94,-52.06,-1.69,1.88,1.50,77.66,4.42
13.00,2.00,266.50,-18.00,12.50,-2.12,-0.75,3.75,77.66,4.42
13.00,0.00,99.62,23.00,-141.31,-0.94,1.50,-0.94,77.70,4.44
13.00,1.00,269.94,-9.94,-52.00,-1.44,2.06,2.00,77.70,4.44
13.00,2.00,266.38,-18.00,12.50,-2.44,0.25,3.56,77.70,4.44
13.00,0.00,99.62,23.00,-141.31,-1.50,0.56,-1.25,77.75,4.46
13.00,1.00,269.88,-9.94,-52.00,-2.12,2.06,2.25,77.75,4.46
13.00,2.00,266.31,-18.00,12.56,-3.06,-0.44,4.00,77.75,4.46
13.00,0.00,99.56,22.94,-141.25,-1.94,0.75,-1.62,77.79,4.48
13.00,1.00,269.81,-9.94,-51.94,-1.69,1.81,1.69,77.79,4.48
13.00,2.00,266.25,-18.00,12.62,-3.06,-0.88,4.12,77.79,4.48
13.00,0.00,99.56,22.94,-141.19,-1.62,0.62,-1.94,77.83,4.50
13.00,1.00,269.75,-9.94,-51.94,-0.94,2.25,1.38,77.83,4.50
13.00,2.00,266.12,-18.00,12.62,-2.94,0.25,3.62,77.83,4.50
13.00,0.00,99.50,22.94,-141.12,-1.38,-0.12,-2.12,77.88,4.52
13.00,1.00,269.75,-9.94,-51.94,-1.12,2.12,1.38,77.88,4.52
13.00,2.00,266.06,-18.00,12.69,-2.94,0.69,2.81,77.88,4.52
13.00,0.00,99.50,22.88,-141.06,-1.69,-0.88,-2.50,77.93,4.54
13.00,1.00,269.69,-9.94,-51.94,-1.56,2.12,1.38,77.93,4.54
13.00,2.00,266.00,-18.06,12.75,-3.19,0.88,2.75,77.93,4.54
13.00,0.00,99.44,22.81,-141.06,-2.12,-2.00,-2.56,77.97,4.56
13.00,1.00,269.62,-9.94,-51.88,-2.19,1.62,1.25,77.97,4.56
13.00,2.00,265.94,-18.06,12.81,-3.50,0.50,3.25,77.97,4.56
13.00,0.00,99.44,22.75,-141.00,-2.31,-2.19,-2.94,78.01,4.58
13.00,1.00,269.56,-9.94,-51.81,-2.50,0.94,0.81,78.01,4.58
13.00,2.00,265.88,-18.06,12.88,-3.62,0.56,3.44,78.01,4.58
13.00,0.00,99.38,22.69,-140.94,-0.94,-4.19,-3.44,78.08,4.60
13.00,1.00,269.56,-10.00,-51.81,-1.56,2.25,0.50,78.08,4.60
13.00,2.00,265.81,-18.12,12.94,-3.00,0.88,3.56,78.08,4.60
13.00,0.00,99.38,22.56,-140.94,0.44,-4.44,-1.62,78.16,4.62
13.00,1.00,269.56,-10.00,-51.81,-1.31,2.56,0.31,78.16,4.62
13.00,2.00,265.75,-18.12,12.94,-2.25,1.19,2.31,78.16,4.62
13.00,0.00,99.38,22.50,-140.94,-0.31,-3.06,-1.81,78.25,4.64
13.00,1.00,269.50,-10.06,-51.75,-1.25,2.56,0.44,78.25,4.64
13.00,2.00,265.69,-18.12,13.00,-3.12,1.31,1.88,78.25,4.64
13.00,0.00,99.31,22.44,-140.94,-0.56,-2.81,-2.19,78.36,4.66
13.00,1.00,269.50,-10.06,-51.75,-1.38,2.19,0.31,78.36,4.66
13.00,2.00,265.69,-18.19,13.06,-4.19,0.94,1.56,78.36,4.66
13.00,0.00,99.31,22.38,-140.88,-1.00,-2.88,-2.12,78.44,4.68
13.00,1.00,269.44,-10.06,-51.69,-2.06,1.00,0.75,78.44,4.68
13.00,2.00,265.62,-18.19,13.19,-3.50,0.62,1.12,78.44,4.68
13.00,0.00,99.31,22.31,-140.88,-1.25,-2.12,-1.75,78.47,4.70
13.00,1.00,269.44,-10.06,-51.69,-2.06,0.31,0.19,78.47,4.70
13.00,2.00,265.62,-18.19,13.25,-2.31,0.81,1.00,78.47,4.70
13.00,0.00,99.31,22.31,-140.88,-0.69,-2.06,-1.12,78.51,4.72
13.00,1.00,269.44,-10.06,-51.62,-1.19,0.31,-0.06,78.51,4.72
13.00,2.00,265.56,-18.19,13.31,-1.81,0.06,1.12,78.51,4.72
13.00,0.00,99.31,22.25,-140.81,-0.69,-1.69,-1.12,78.54,4.74
13.00,1.00,269.44,-10.06,-51.62,-0.69,0.19,0.12,78.54,4.74
13.00,2.00,265.56,-18.25,13.38,-1.62,0.19,0.88,78.54,4.74
13.00,0.00,99.31,22.25,-140.81,-0.69,-1.25,-0.94,78.54,4.76
13.00,1.00,269.44,-10.06,-51.62,-0.38,0.81,0.31,78.54,4.76
13.00,2.00,265.56,-18.25,13.38,-0.56,0.38,-0.44,78.54,4.76
13.00,0.00,99.31,22.19,-140.75,-0.56,-1.06,-0.31,78.53,4.78
13.00,1.00,269.44,-10.06,-51.62,-0.44,0.31,-0.06,78.53,4.78
13.00,2.00,265.56,-18.25,13.44,-0.50,0.44,-0.56,78.53,4.78
13.00,0.00,99.31,22.25,-140.75,-0.12,-0.19,0.31,78.54,4.80
13.00,1.00,269.44,-10.06,-51.62,-0.44,-0.62,-0.31,78.54,4.80
13.00,2.00,265.56,-18.19,13.44,-0.31,0.19,-0.50,78.54,4.80
13.00,0.00,99.31,22.25,-140.75,0.06,1.06,0.69,78.54,4.82
13.00,1.00,269.44,-10.06,-51.62,0.00,-0.75,-0.31,78.54,4.82
13.00,2.00,265.56,-18.19,13.50,-0.06,-0.25,-1.00,78.54,4.82
13.00,0.00,99.31,22.31,-140.75,0.69,1.94,1.00,78.53,4.84
13.00,1.00,269.44,-10.06,-51.62,0.75,-0.56,-0.62,78.53,4.84
13.00,2.00,265.62,-18.19,13.50,1.06,0.31,-1.81,78.53,4.84
13.00,0.00,99.31,22.38,-140.75,1.00,3.00,1.50,78.51,4.86
13.00,1.00,269.50,-10.06,-51.62,1.12,-1.12,-0.94,78.51,4.86
13.00,2.00,265.69,-18.19,13.50,1.69,0.19,-2.12,78.51,4.86
13.00,0.00,99.31,22.44,-140.69,1.12,3.19,1.25,78.50,4.88
13.00,1.00,269.50,-10.06,-51.69,1.44,-1.56,-0.75,78.50,4.88
13.00,2.00,265.75,-18.19,13.50,1.31,-0.50,-2.06,78.50,4.88
13.00,0.00,99.31,22.50,-140.69,1.38,3.00,0.94,78.51,4.90
13.00,1.00,269.56,-10.06,-51.69,1.25,-2.31,-0.56,78.51,4.90
13.00,2.00,265.81,-18.12,13.56,1.19,-1.12,-2.81,78.51,4.90
13.00,0.00,99.31,22.56,-140.69,1.25,2.62,1.19,78.48,4.92
13.00,1.00,269.62,-10.06,-51.69,1.06,-2.56,-1.00,78.48,4.92
13.00,2.00,265.88,-18.12,13.56,2.25,-0.12,-3.69,78.48,4.92
13.00,0.00,99.31,22.62,-140.69,1.19,3.06,1.50,78.45,4.94
13.00,1.00,269.62,-10.00,-51.69,1.12,-3.25,-0.94,78.45,4.94
13.00,2.00,265.94,-18.12,13.56,2.12,-0.25,-4.12,78.45,4.94
13.00,0.00,99.25,22.69,-140.62,0.69,4.38,1.44,78.42,4.96
13.00,1.00,269.69,-10.00,-51.75,1.50,-3.88,-0.56,78.42,4.96
13.00,2.00,266.06,-18.06,13.56,1.69,-0.56,-4.25,78.42,4.96
