Iteration,IMUNo,OrientationX (deg),OrientationY,OrientationZ,GyroX (20rad/sec),GyroY,GyroZ,Elbow_Pos (rad),Time (sec)
4.00,0.00,262.31,2.00,-102.50,-0.19,-0.12,-0.38,0.00,1.00
4.00,1.00,273.94,-6.75,-54.25,-0.38,0.06,-0.12,0.00,1.02
4.00,2.00,284.25,-22.25,19.31,-0.25,0.00,0.19,0.00,1.02
4.00,0.00,262.31,2.00,-102.50,-0.50,-0.31,-0.38,0.00,1.02
4.00,1.00,273.94,-6.75,-54.25,-0.44,0.19,0.06,0.00,1.02
4.00,2.00,284.25,-22.25,19.31,-0.50,-0.19,0.31,0.00,1.04
4.00,0.00,262.31,2.00,-102.50,-0.31,-0.31,-0.06,0.01,1.04
4.00,1.00,273.94,-6.75,-54.25,-0.44,0.25,0.00,0.01,1.04
4.00,2.00,284.25,-22.25,19.31,-0.50,-0.06,0.56,0.01,1.04
4.00,0.00,262.31,2.00,-102.50,-0.38,-0.19,-0.12,0.00,1.06
4.00,1.00,273.94,-6.75,-54.25,-0.44,0.19,0.12,0.00,1.06
4.00,2.00,284.25,-22.25,19.31,-0.25,-0.25,0.44,0.00,1.06
4.00,0.00,262.31,2.00,-102.50,-0.25,0.06,0.06,0.00,1.08
4.00,1.00,273.94,-6.75,-54.25,-0.44,0.12,0.00,0.00,1.08
4.00,2.00,284.25,-22.25,19.31,-0.06,0.06,0.19,0.00,1.08
4.00,0.00,262.31,2.00,-102.50,-0.31,0.44,0.06,-0.01,1.10
4.00,1.00,273.94,-6.75,-54.25,-0.44,0.12,0.06,-0.01,1.10
4.00,2.00,284.25,-22.25,19.31,0.12,-0.19,0.06,-0.01,1.10
4.00,0.00,262.31,2.00,-102.50,0.12,0.69,-0.12,-0.01,1.12
4.00,1.00,273.94,-6.75,-54.25,-0.31,-0.12,0.06,-0.01,1.12
4.00,2.00,284.25,-22.25,19.31,0.12,0.00,0.25,-0.01,1.12
4.00,0.00,262.31,2.00,-102.50,0.12,0.38,0.19,-0.02,1.14
4.00,1.00,273.94,-6.75,-54.25,-0.19,0.25,-0.06,-0.02,1.14
4.00,2.00,284.25,-22.25,19.31,0.19,0.06,0.44,-0.02,1.14
4.00,0.00,262.31,2.00,-102.50,-0.19,0.25,0.12,-0.02,1.16
4.00,1.00,273.94,-6.75,-54.25,-0.31,0.19,0.19,-0.02,1.16
4.00,2.00,284.25,-22.25,19.31,-0.19,-0.06,0.50,-0.02,1.16
4.00,0.00,262.31,2.00,-102.50,-0.31,0.12,0.00,-0.02,1.18
4.00,1.00,273.94,-6.75,-54.25,-0.12,0.38,0.25,-0.02,1.18
4.00,2.00,284.25,-22.25,19.31,-0.31,0.06,0.50,-0.02,1.18
4.00,0.00,262.31,2.00,-102.50,-0.19,0.25,-0.06,-0.02,1.20
4.00,1.00,273.94,-6.75,-54.25,-0.12,0.38,0.19,-0.02,1.20
4.00,2.00,284.25,-22.25,19.31,-0.06,0.00,0.25,-0.02,1.20
4.00,0.00,262.31,2.00,-102.50,0.06,0.25,0.00,-0.02,1.22
4.00,1.00,273.94,-6.75,-54.25,0.12,0.31,0.00,-0.02,1.22
4.00,2.00,284.25,-22.25,19.31,0.25,0.12,0.06,-0.02,1.22
4.00,0.00,262.31,2.00,-102.50,-0.19,-0.25,0.00,-0.03,1.24
4.00,1.00,273.94,-6.75,-54.25,0.06,0.25,-0.12,-0.03,1.24
4.00,2.00,284.25,-22.25,19.31,-0.06,-0.06,0.44,-0.03,1.24
4.00,0.00,262.31,2.00,-102.50,-0.19,-0.69,0.12,-0.03,1.26
4.00,1.00,273.94,-6.75,-54.25,0.25,0.12,0.06,-0.03,1.26
4.00,2.00,284.25,-22.25,19.31,-0.12,0.00,0.44,-0.03,1.26
4.00,0.00,262.31,2.00,-102.50,-0.06,-0.81,0.06,-0.03,1.28
4.00,1.00,273.94,-6.75,-54.25,-0.12,-0.31,0.06,-0.03,1.28
4.00,2.00,284.25,-22.25,19.31,0.06,-0.06,0.12,-0.03,1.28
4.00,0.00,262.38,2.00,-102.50,-0.25,-0.88,-0.12,-0.04,1.30
4.00,1.00,273.94,-6.75,-54.25,0.00,-0.12,0.12,-0.04,1.30
4.00,2.00,284.25,-22.25,19.31,0.00,0.31,-0.25,-0.04,1.30
4.00,0.00,262.38,2.00,-102.50,-0.25,-0.50,-0.06,-0.04,1.32
4.00,1.00,273.94,-6.75,-54.25,-0.31,0.00,-0.06,-0.04,1.32
4.00,2.00,284.25,-22.25,19.31,-0.12,0.06,-0.31,-0.04,1.32
4.00,0.00,262.38,2.00,-102.50,-0.31,-0.25,-0.19,-0.05,1.34
4.00,1.00,273.94,-6.75,-54.25,-0.25,-0.25,0.19,-0.05,1.34
4.00,2.00,284.25,-22.25,19.31,-0.25,0.00,-0.12,-0.05,1.34
4.00,0.00,262.38,2.00,-102.50,-0.19,-0.12,0.06,-0.04,1.36
4.00,1.00,273.94,-6.75,-54.25,-0.31,-0.25,0.12,-0.04,1.36
4.00,2.00,284.25,-22.25,19.31,-0.44,-0.25,-0.12,-0.04,1.36
4.00,0.00,262.38,2.00,-102.50,-0.25,0.00,0.00,-0.05,1.38
4.00,1.00,273.94,-6.75,-54.25,-0.12,-0.25,0.06,-0.05,1.38
4.00,2.00,284.25,-22.25,19.31,0.31,-0.38,-0.44,-0.05,1.38
4.00,0.00,262.38,2.00,-102.50,-0.12,0.06,0.12,-0.06,1.40
4.00,1.00,273.94,-6.75,-54.25,0.12,-0.31,-0.12,-0.06,1.40
4.00,2.00,284.25,-22.25,19.31,0.25,0.25,-0.94,-0.06,1.40
4.00,0.00,262.38,2.00,-102.50,0.12,-0.31,0.00,-0.06,1.42
4.00,1.00,273.94,-6.75,-54.25,-0.31,-0.56,-0.19,-0.06,1.42
4.00,2.00,284.25,-22.25,19.31,0.06,0.00,-0.56,-0.06,1.42
4.00,0.00,262.38,2.00,-102.50,-0.12,0.19,-0.12,-0.05,1.44
4.00,1.00,273.94,-6.75,-54.25,-0.62,-0.38,0.06,-0.05,1.44
4.00,2.00,284.25,-22.25,19.31,-0.62,0.06,-0.69,-0.05,1.44
4.00,0.00,262.38,2.00,-102.50,-0.31,0.00,-0.19,-0.02,1.46
4.00,1.00,273.94,-6.75,-54.25,-0.94,-0.06,0.19,-0.02,1.46
4.00,2.00,284.25,-22.25,19.38,-1.38,-0.62,-0.38,-0.02,1.46
4.00,0.00,262.38,2.00,-102.50,-0.88,0.44,-0.19,-0.02,1.48
4.00,1.00,273.94,-6.75,-54.19,-0.75,0.56,0.00,-0.02,1.48
4.00,2.00,284.25,-22.25,19.38,-0.94,0.06,-0.69,-0.02,1.48
4.00,0.00,262.38,2.00,-102.50,-0.62,0.19,-0.19,0.00,1.50
4.00,1.00,273.94,-6.75,-54.19,-1.50,0.31,-0.38,0.00,1.50
4.00,2.00,284.25,-22.25,19.38,-1.31,0.12,-0.81,0.00,1.50
4.00,0.00,262.38,2.00,-102.50,-0.69,-0.38,-0.19,0.03,1.52
4.00,1.00,273.94,-6.75,-54.19,-2.25,0.50,0.06,0.03,1.52
4.00,2.00,284.25,-22.25,19.44,-1.69,-0.31,-0.88,0.03,1.52
4.00,0.00,262.38,2.00,-102.50,-0.75,-0.50,0.12,0.06,1.54
4.00,1.00,273.94,-6.75,-54.12,-1.06,0.81,0.31,0.06,1.54
4.00,2.00,284.25,-22.25,19.44,-1.75,-0.75,-0.75,0.06,1.54
4.00,0.00,262.38,2.00,-102.50,-0.31,0.12,0.31,0.10,1.56
4.00,1.00,273.94,-6.75,-54.12,-1.44,0.25,0.44,0.10,1.56
4.00,2.00,284.31,-22.25,19.50,-1.81,-0.44,-1.00,0.10,1.56
4.00,0.00,262.38,2.00,-102.50,0.62,0.75,0.62,0.17,1.58
4.00,1.00,273.94,-6.75,-54.06,-1.94,0.31,0.12,0.17,1.58
4.00,2.00,284.31,-22.25,19.56,-1.81,-0.75,-0.81,0.17,1.58
4.00,0.00,262.31,2.06,-102.50,1.38,1.00,1.00,0.25,1.60
4.00,1.00,273.94,-6.81,-54.06,-1.81,0.50,-0.12,0.25,1.60
4.00,2.00,284.31,-22.25,19.56,-1.44,-1.12,-0.75,0.25,1.60
4.00,0.00,262.25,2.06,-102.56,2.44,1.81,1.44,0.35,1.62
4.00,1.00,273.94,-6.81,-54.00,-1.94,0.25,-0.31,0.35,1.62
4.00,2.00,284.31,-22.19,19.62,-1.06,-1.50,-0.69,0.35,1.62
4.00,0.00,262.19,2.12,-102.62,3.75,2.38,1.75,0.49,1.64
4.00,1.00,273.94,-6.81,-54.00,-2.00,1.06,-0.31,0.49,1.64
4.00,2.00,284.31,-22.19,19.62,-1.50,-2.06,-0.62,0.49,1.64
4.00,0.00,262.06,2.19,-102.69,4.94,3.19,2.31,0.69,1.66
4.00,1.00,273.88,-6.81,-53.94,-2.25,0.88,-0.19,0.69,1.66
4.00,2.00,284.25,-22.19,19.69,-1.94,-2.06,0.38,0.69,1.66
4.00,0.00,261.81,2.25,-102.81,6.25,5.75,3.06,0.92,1.68
4.00,1.00,273.88,-6.81,-53.88,-1.94,0.50,-0.12,0.92,1.68
4.00,2.00,284.25,-22.12,19.69,-2.06,-1.94,1.31,0.92,1.68
4.00,0.00,261.56,2.38,-103.00,7.56,7.44,3.44,1.21,1.70
4.00,1.00,273.88,-6.81,-53.88,-1.50,0.75,-0.38,1.21,1.70
4.00,2.00,284.19,-22.12,19.75,-2.75,-2.31,2.00,1.21,1.70
4.00,0.00,261.25,2.50,-103.19,9.25,8.25,4.44,1.55,1.72
4.00,1.00,273.88,-6.81,-53.81,-1.81,0.81,0.25,1.55,1.72
4.00,2.00,284.12,-22.12,19.75,-2.81,-2.50,3.25,1.55,1.72
4.00,0.00,260.94,2.62,-103.38,10.62,8.50,4.94,1.89,1.74
4.00,1.00,273.88,-6.81,-53.81,-1.81,0.88,0.56,1.89,1.74
4.00,2.00,284.00,-22.12,19.75,-1.75,-2.69,4.12,1.89,1.74
4.00,0.00,260.62,2.75,-103.62,11.00,8.88,4.88,2.23,1.76
4.00,1.00,273.81,-6.81,-53.81,-0.94,1.44,0.81,2.23,1.76
4.00,2.00,283.94,-22.12,19.75,-0.94,-2.12,4.50,2.23,1.76
4.00,0.00,260.31,2.88,-103.88,12.62,8.56,5.44,2.62,1.78
4.00,1.00,273.81,-6.81,-53.81,-0.50,2.12,1.25,2.62,1.78
4.00,2.00,283.81,-22.12,19.75,-1.19,-1.75,5.38,2.62,1.78
4.00,0.00,260.06,3.00,-104.12,14.06,6.50,4.31,3.06,1.80
4.00,1.00,273.75,-6.88,-53.81,-0.62,2.38,1.56,3.06,1.80
4.00,2.00,283.69,-22.12,19.69,-1.75,-2.19,6.19,3.06,1.80
4.00,0.00,259.81,3.06,-104.44,15.19,5.00,3.75,3.56,1.82
4.00,1.00,273.69,-6.88,-53.75,-1.38,2.69,1.88,3.56,1.82
4.00,2.00,283.62,-22.12,19.69,-2.56,-1.56,7.06,3.56,1.82
4.00,0.00,259.56,3.19,-104.75,14.94,7.38,3.38,4.08,1.84
4.00,1.00,273.62,-6.88,-53.75,-0.69,3.62,2.44,4.08,1.84
4.00,2.00,283.38,-22.19,19.69,-3.69,-0.44,7.75,4.08,1.84
4.00,0.00,259.25,3.31,-105.06,15.81,8.25,4.06,4.64,1.86
4.00,1.00,273.50,-6.88,-53.75,-0.81,3.88,2.50,4.64,1.86
4.00,2.00,283.25,-22.25,19.69,-4.19,-0.62,8.25,4.64,1.86
4.00,0.00,259.00,3.38,-105.38,16.19,6.12,4.75,5.22,1.88
4.00,1.00,273.44,-6.88,-53.75,-0.88,4.00,3.00,5.22,1.88
4.00,2.00,283.00,-22.31,19.75,-4.44,-2.06,9.00,5.22,1.88
4.00,0.00,258.81,3.50,-105.75,18.44,2.69,6.81,5.84,1.90
4.00,1.00,273.31,-6.88,-53.75,-0.88,4.75,3.12,5.84,1.90
4.00,2.00,282.75,-22.31,19.69,-3.69,-2.62,9.81,5.84,1.90
4.00,0.00,258.62,3.62,-106.19,20.81,-0.88,7.69,6.48,1.92
4.00,1.00,273.19,-6.88,-53.75,-1.00,4.44,2.75,6.48,1.92
4.00,2.00,282.69,-22.31,19.69,-2.19,-3.25,9.12,6.48,1.92
4.00,0.00,258.56,3.75,-106.62,21.69,-3.38,6.75,7.11,1.94
4.00,1.00,273.12,-6.88,-53.75,-0.75,4.12,2.38,7.11,1.94
4.00,2.00,282.38,-22.31,19.69,-0.50,-3.44,8.25,7.11,1.94
4.00,0.00,258.50,3.81,-107.06,22.06,-4.00,5.75,7.70,1.96
4.00,1.00,273.06,-6.88,-53.75,-0.88,3.62,2.12,7.70,1.96
4.00,2.00,282.31,-22.38,19.62,0.75,-2.25,7.69,7.70,1.96
4.00,0.00,258.44,3.94,-107.50,22.00,-3.75,6.62,8.29,1.98
4.00,1.00,272.94,-6.88,-53.75,-0.56,3.94,1.69,8.29,1.98
4.00,2.00,282.06,-22.38,19.50,1.25,-2.00,7.50,8.29,1.98
4.00,0.00,258.25,4.06,-107.88,20.56,-1.06,7.56,8.83,2.00
4.00,1.00,272.88,-6.94,-53.75,0.06,4.00,1.88,8.83,2.00
4.00,2.00,281.94,-22.38,19.44,1.00,-2.38,7.50,8.83,2.00
4.00,0.00,258.00,4.25,-108.31,22.56,-1.12,10.62,9.49,2.02
4.00,1.00,272.81,-6.94,-53.75,0.25,3.81,2.19,9.49,2.02
4.00,2.00,281.88,-22.38,19.38,-0.75,-2.62,7.25,9.49,2.02
4.00,0.00,257.75,4.50,-108.81,25.81,-1.56,14.25,10.26,2.04
4.00,1.00,272.75,-6.94,-53.75,-0.88,3.81,2.06,10.26,2.04
4.00,2.00,281.62,-22.38,19.31,-1.88,-3.69,7.44,10.26,2.04
4.00,0.00,257.44,4.75,-109.31,25.94,-0.38,13.88,11.01,2.06
4.00,1.00,272.69,-6.94,-53.75,-1.38,3.69,1.38,11.01,2.06
4.00,2.00,281.50,-22.38,19.31,-0.69,-4.44,7.94,11.01,2.06
4.00,0.00,257.06,5.00,-109.81,26.88,-0.38,12.81,11.73,2.08
4.00,1.00,272.62,-7.00,-53.75,-1.31,3.12,1.56,11.73,2.08
4.00,2.00,281.31,-22.31,19.19,1.38,-3.75,7.19,11.73,2.08
4.00,0.00,256.94,5.12,-110.12,26.44,-1.56,13.56,12.44,2.10
4.00,1.00,272.50,-7.00,-53.75,-0.75,3.94,1.75,12.44,2.10
4.00,2.00,281.12,-22.31,19.12,1.06,-4.06,6.56,12.44,2.10
4.00,0.00,256.50,5.50,-110.88,26.06,-3.50,14.56,13.17,2.12
4.00,1.00,272.44,-7.00,-53.69,-1.75,3.56,2.25,13.17,2.12
4.00,2.00,281.06,-22.25,19.06,0.00,-4.38,7.06,13.17,2.12
4.00,0.00,256.19,5.75,-111.44,27.12,-2.75,15.50,13.92,2.14
4.00,1.00,272.38,-7.00,-53.69,-2.00,3.62,1.88,13.92,2.14
4.00,2.00,280.88,-22.25,18.94,0.19,-5.06,7.44,13.92,2.14
4.00,0.00,255.81,6.00,-111.94,26.81,0.38,15.12,14.67,2.16
4.00,1.00,272.31,-7.00,-53.62,-1.88,3.50,1.62,14.67,2.16
4.00,2.00,280.75,-22.19,18.94,0.25,-5.06,8.50,14.67,2.16
4.00,0.00,255.62,6.19,-112.25,28.69,0.94,15.00,15.44,2.18
4.00,1.00,272.25,-7.00,-53.62,-2.31,3.12,1.88,15.44,2.18
4.00,2.00,280.50,-22.12,18.75,1.19,-4.69,8.62,15.44,2.18
4.00,0.00,255.19,6.44,-112.81,30.50,0.38,17.50,16.28,2.20
4.00,1.00,272.19,-7.06,-53.56,-3.00,3.81,2.06,16.28,2.20
4.00,2.00,280.31,-22.12,18.69,0.62,-4.62,9.44,16.28,2.20
4.00,0.00,254.75,6.75,-113.44,30.50,0.06,18.12,17.15,2.22
4.00,1.00,272.06,-7.06,-53.56,-2.25,4.44,2.38,17.15,2.22
4.00,2.00,280.06,-22.12,18.56,-0.69,-4.44,10.50,17.15,2.22
4.00,0.00,254.31,7.06,-114.00,29.88,0.06,17.12,18.07,2.24
4.00,1.00,271.94,-7.06,-53.50,-2.31,5.19,2.69,18.07,2.24
4.00,2.00,279.88,-22.12,18.50,-2.75,-3.31,11.12,18.07,2.24
4.00,0.00,253.81,7.38,-114.62,30.62,-0.75,17.19,19.05,2.26
4.00,1.00,271.88,-7.06,-53.44,-3.12,5.50,2.88,19.05,2.26
4.00,2.00,279.75,-22.12,18.50,-4.56,-2.94,11.81,19.05,2.26
4.00,0.00,253.44,7.69,-115.25,30.06,-2.44,17.38,20.04,2.28
4.00,1.00,271.75,-7.12,-53.38,-3.88,6.06,3.06,20.04,2.28
4.00,2.00,279.31,-22.12,18.50,-5.06,-3.62,12.00,20.04,2.28
4.00,0.00,253.00,7.94,-115.81,30.19,-2.75,17.31,21.00,2.30
4.00,1.00,271.62,-7.12,-53.38,-3.94,6.38,3.25,21.00,2.30
4.00,2.00,279.06,-22.19,18.44,-4.00,-3.81,12.44,21.00,2.30
4.00,0.00,252.62,8.25,-116.44,31.62,-5.06,18.19,21.97,2.32
4.00,1.00,271.44,-7.19,-53.31,-3.12,7.12,3.25,21.97,2.32
4.00,2.00,278.81,-22.19,18.44,-3.19,-3.62,12.38,21.97,2.32
4.00,0.00,252.31,8.50,-117.12,32.06,-6.75,18.31,22.96,2.34
4.00,1.00,271.31,-7.19,-53.25,-2.81,7.50,3.31,22.96,2.34
4.00,2.00,278.50,-22.19,18.38,-2.94,-4.25,12.19,22.96,2.34
4.00,0.00,252.00,8.75,-117.75,31.88,-7.38,18.12,23.91,2.36
4.00,1.00,271.19,-7.25,-53.19,-4.00,6.44,3.00,23.91,2.36
4.00,2.00,278.38,-22.19,18.38,-2.31,-5.00,12.50,23.91,2.36
4.00,0.00,251.75,8.94,-118.44,30.75,-5.81,16.06,24.85,2.38
4.00,1.00,271.06,-7.25,-53.12,-3.75,6.31,3.25,24.85,2.38
4.00,2.00,278.00,-22.12,18.25,-2.56,-5.00,12.69,24.85,2.38
4.00,0.00,251.44,9.19,-119.00,30.44,-5.25,15.88,25.79,2.40
4.00,1.00,270.94,-7.25,-53.12,-3.50,6.75,3.44,25.79,2.40
4.00,2.00,277.75,-22.12,18.19,-3.00,-4.75,12.38,25.79,2.40
4.00,0.00,251.12,9.38,-119.62,30.06,-4.38,16.19,26.71,2.42
4.00,1.00,270.75,-7.31,-53.06,-3.56,7.19,3.81,26.71,2.42
4.00,2.00,277.44,-22.12,18.19,-2.88,-6.00,12.75,26.71,2.42
4.00,0.00,250.81,9.62,-120.19,30.19,-3.69,16.25,27.64,2.44
4.00,1.00,270.62,-7.31,-53.00,-3.81,7.00,3.38,27.64,2.44
4.00,2.00,277.19,-22.06,18.12,-3.06,-6.38,12.50,27.64,2.44
4.00,0.00,250.44,9.81,-120.81,29.75,-3.19,15.50,28.53,2.46
4.00,1.00,270.50,-7.38,-52.94,-3.12,7.19,3.31,28.53,2.46
4.00,2.00,277.06,-22.06,18.06,-1.88,-5.25,11.56,28.53,2.46
4.00,0.00,250.12,10.00,-121.38,27.88,-2.81,12.94,29.35,2.48
4.00,1.00,270.38,-7.38,-52.88,-4.25,5.69,3.00,29.35,2.48
4.00,2.00,276.69,-22.00,18.00,-1.25,-4.50,10.88,29.35,2.48
4.00,0.00,249.81,10.12,-121.88,27.12,-2.75,12.25,30.16,2.50
4.00,1.00,270.25,-7.44,-52.81,-5.06,5.88,2.75,30.16,2.50
4.00,2.00,276.56,-22.00,17.94,-1.81,-5.38,11.75,30.16,2.50
4.00,0.00,249.62,10.25,-122.38,26.31,-4.62,11.25,30.98,2.52
4.00,1.00,270.12,-7.44,-52.75,-4.56,7.56,2.62,30.98,2.52
4.00,2.00,276.19,-21.94,17.88,-2.94,-5.25,11.94,30.98,2.52
4.00,0.00,249.44,10.38,-122.88,26.38,-5.56,11.00,31.83,2.54
4.00,1.00,270.00,-7.50,-52.69,-4.31,7.19,3.00,31.83,2.54
4.00,2.00,275.94,-21.94,17.81,-4.06,-5.94,12.81,31.83,2.54
4.00,0.00,249.25,10.44,-123.38,25.50,-4.00,9.62,32.66,2.56
4.00,1.00,269.88,-7.50,-52.62,-4.25,7.19,3.12,32.66,2.56
4.00,2.00,275.75,-21.94,17.81,-4.00,-5.44,12.81,32.66,2.56
4.00,0.00,249.06,10.50,-123.81,23.31,-2.19,7.44,33.42,2.58
4.00,1.00,269.75,-7.56,-52.56,-4.94,7.44,2.94,33.42,2.58
4.00,2.00,275.38,-21.88,17.75,-4.00,-4.06,12.19,33.42,2.58
4.00,0.00,248.81,10.62,-124.25,22.56,-1.12,6.88,34.18,2.60
4.00,1.00,269.56,-7.62,-52.44,-6.00,7.25,2.50,34.18,2.60
4.00,2.00,275.25,-21.88,17.75,-4.50,-3.56,12.38,34.18,2.60
4.00,0.00,248.56,10.69,-124.62,22.06,-0.25,7.25,34.98,2.62
4.00,1.00,269.44,-7.69,-52.31,-6.12,7.75,2.56,34.98,2.62
4.00,2.00,274.81,-21.94,17.75,-6.50,-4.00,13.31,34.98,2.62
4.00,0.00,248.25,10.81,-125.00,20.56,1.50,6.56,35.79,2.64
4.00,1.00,269.31,-7.75,-52.25,-5.06,9.69,3.19,35.79,2.64
4.00,2.00,274.50,-21.94,17.75,-8.06,-4.44,14.50,35.79,2.64
4.00,0.00,247.94,10.94,-125.38,19.19,2.56,4.94,36.56,2.66
4.00,1.00,269.12,-7.81,-52.19,-5.06,9.56,3.06,36.56,2.66
4.00,2.00,274.31,-21.94,17.81,-8.25,-4.56,15.06,36.56,2.66
4.00,0.00,247.56,11.00,-125.75,19.19,2.00,5.06,37.28,2.68
4.00,1.00,269.00,-7.81,-52.06,-7.69,7.06,3.25,37.28,2.68
4.00,2.00,273.81,-21.94,17.81,-6.50,-3.88,15.19,37.28,2.68
4.00,0.00,247.19,11.12,-126.12,18.81,3.38,4.75,37.97,2.70
4.00,1.00,268.88,-7.88,-51.94,-6.69,8.81,2.81,37.97,2.70
4.00,2.00,273.62,-21.94,17.81,-5.88,-3.00,15.19,37.97,2.70
4.00,0.00,246.81,11.25,-126.44,17.69,4.50,2.88,38.67,2.72
4.00,1.00,268.69,-8.00,-51.88,-4.75,11.19,2.50,38.67,2.72
4.00,2.00,273.31,-22.00,17.81,-7.25,-2.81,15.31,38.67,2.72
4.00,0.00,246.38,11.38,-126.81,17.94,5.75,3.06,39.42,2.74
4.00,1.00,268.50,-8.06,-51.81,-5.12,10.56,3.31,39.42,2.74
4.00,2.00,272.81,-22.06,17.88,-8.88,-3.50,15.50,39.42,2.74
4.00,0.00,245.88,11.50,-127.12,19.56,6.56,4.69,40.23,2.76
4.00,1.00,268.31,-8.12,-51.75,-5.88,12.56,3.75,40.23,2.76
4.00,2.00,272.62,-22.06,17.88,-9.19,-3.44,16.00,40.23,2.76
4.00,0.00,245.25,11.69,-127.50,19.81,7.12,6.44,41.12,2.78
4.00,1.00,268.12,-8.25,-51.69,-6.88,12.44,3.81,41.12,2.78
4.00,2.00,272.06,-22.06,17.94,-12.19,-5.69,16.88,41.12,2.78
4.00,0.00,244.69,11.88,-127.88,17.69,8.62,6.38,41.96,2.80
4.00,1.00,267.94,-8.38,-51.56,-6.69,12.38,3.81,41.96,2.80
4.00,2.00,271.88,-22.06,18.00,-12.00,-7.25,16.12,41.96,2.80
4.00,0.00,244.00,12.12,-128.19,17.12,9.81,5.81,42.66,2.82
4.00,1.00,267.75,-8.44,-51.50,-4.62,12.75,3.25,42.66,2.82
4.00,2.00,271.31,-22.00,18.12,-8.00,-7.06,14.38,42.66,2.82
4.00,0.00,243.31,12.31,-128.50,18.62,8.94,6.88,43.34,2.84
4.00,1.00,267.56,-8.56,-51.50,-3.88,13.44,3.62,43.34,2.84
4.00,2.00,271.06,-22.00,18.12,-5.56,-4.88,12.62,43.34,2.84
4.00,0.00,242.62,12.56,-128.81,20.00,8.81,8.94,44.08,2.86
4.00,1.00,267.38,-8.69,-51.44,-6.62,10.12,4.06,44.08,2.86
4.00,2.00,270.88,-22.00,18.12,-6.31,-5.38,12.31,44.08,2.86
4.00,0.00,241.81,12.88,-129.19,18.50,10.88,8.94,44.78,2.88
4.00,1.00,267.19,-8.69,-51.31,-7.56,8.69,4.12,44.78,2.88
4.00,2.00,270.50,-21.94,18.12,-6.50,-7.00,12.12,44.78,2.88
4.00,0.00,240.94,13.12,-129.44,16.44,13.31,7.62,45.41,2.90
4.00,1.00,267.00,-8.81,-51.25,-3.88,11.62,3.56,45.41,2.90
4.00,2.00,270.31,-21.88,18.12,-6.12,-6.50,12.44,45.41,2.90
4.00,0.00,240.19,13.38,-129.69,16.06,11.56,7.50,46.02,2.92
4.00,1.00,266.81,-8.88,-51.19,-4.75,11.12,3.50,46.02,2.92
4.00,2.00,269.94,-21.81,18.19,-5.62,-5.19,12.06,46.02,2.92
4.00,0.00,239.44,13.62,-130.06,16.38,9.06,9.44,46.68,2.94
4.00,1.00,266.69,-8.94,-51.12,-6.25,10.31,3.88,46.68,2.94
4.00,2.00,269.62,-21.81,18.19,-7.25,-5.75,11.81,46.68,2.94
4.00,0.00,238.81,13.88,-130.31,16.31,7.50,9.56,47.36,2.96
4.00,1.00,266.44,-9.06,-51.06,-3.38,13.50,3.12,47.36,2.96
4.00,2.00,269.50,-21.75,18.25,-7.94,-5.69,12.06,47.36,2.96
4.00,0.00,238.25,14.06,-130.56,15.00,6.88,8.00,47.98,2.98
4.00,1.00,266.31,-9.19,-51.06,-3.62,15.50,2.19,47.98,2.98
4.00,2.00,269.12,-21.75,18.38,-6.88,-3.94,12.12,47.98,2.98
4.00,0.00,237.75,14.19,-130.75,12.88,6.56,5.62,48.55,3.00
4.00,1.00,266.12,-9.31,-51.00,-5.88,11.44,1.81,48.55,3.00
4.00,2.00,269.00,-21.75,18.38,-7.56,-1.94,11.12,48.55,3.00
4.00,0.00,237.25,14.38,-131.00,14.38,5.19,6.81,49.21,3.02
4.00,1.00,266.00,-9.44,-50.88,-8.19,8.88,2.00,49.21,3.02
4.00,2.00,268.75,-21.75,18.44,-9.06,-2.12,10.12,49.21,3.02
4.00,0.00,236.69,14.56,-131.31,16.31,5.69,9.31,49.87,3.04
4.00,1.00,265.88,-9.56,-50.81,-4.00,12.06,0.19,49.87,3.04
4.00,2.00,268.38,-21.81,18.62,-7.38,-1.31,10.31,49.87,3.04
4.00,0.00,235.94,14.81,-131.62,14.44,11.06,7.88,50.43,3.06
4.00,1.00,265.75,-9.69,-50.75,-3.06,12.56,-0.25,50.43,3.06
4.00,2.00,268.31,-21.81,18.69,-5.62,-0.38,10.12,50.43,3.06
4.00,0.00,235.12,15.06,-131.88,14.12,12.12,5.81,50.99,3.08
4.00,1.00,265.62,-9.88,-50.75,-3.56,12.00,-0.31,50.99,3.08
4.00,2.00,268.06,-21.88,18.69,-5.88,-1.25,9.56,50.99,3.08
4.00,0.00,234.31,15.31,-132.12,18.12,10.94,9.75,51.68,3.10
4.00,1.00,265.50,-10.00,-50.69,-1.75,14.12,0.06,51.68,3.10
4.00,2.00,267.88,-21.88,18.75,-6.19,-1.88,9.31,51.68,3.10
4.00,0.00,233.25,15.69,-132.44,19.69,13.56,12.38,52.39,3.12
4.00,1.00,265.38,-10.19,-50.75,-1.88,15.75,0.31,52.39,3.12
4.00,2.00,267.62,-21.94,18.81,-5.62,-1.88,8.38,52.39,3.12
4.00,0.00,232.25,16.00,-132.69,14.25,16.81,6.88,52.93,3.14
4.00,1.00,265.25,-10.38,-50.69,-1.50,13.38,-0.06,52.93,3.14
4.00,2.00,267.38,-21.94,18.94,-5.00,-1.62,7.38,52.93,3.14
4.00,0.00,231.38,16.25,-132.88,10.75,13.06,4.75,53.35,3.16
4.00,1.00,265.12,-10.50,-50.69,-2.44,9.88,-0.88,53.35,3.16
4.00,2.00,267.31,-21.94,18.94,-4.31,-1.56,6.81,53.35,3.16
4.00,0.00,230.75,16.50,-133.06,11.50,7.12,6.38,53.77,3.18
4.00,1.00,265.06,-10.56,-50.62,-6.12,5.81,1.00,53.77,3.18
4.00,2.00,267.19,-21.94,19.00,-3.69,-0.69,6.69,53.77,3.18
4.00,0.00,230.31,16.62,-133.38,15.19,-0.38,9.56,54.32,3.20
4.00,1.00,264.94,-10.69,-50.56,-2.50,9.81,-0.12,54.32,3.20
4.00,2.00,267.00,-22.00,19.06,-4.12,-1.62,6.62,54.32,3.20
4.00,0.00,229.88,16.75,-133.69,15.25,-0.44,9.62,54.85,3.22
4.00,1.00,264.88,-10.81,-50.56,-2.81,8.75,-0.19,54.85,3.22
4.00,2.00,266.88,-22.00,19.06,-3.81,-1.31,6.31,54.85,3.22
4.00,0.00,229.44,16.88,-133.94,10.06,3.06,5.88,55.23,3.24
4.00,1.00,264.81,-10.88,-50.50,-3.56,7.88,0.56,55.23,3.24
4.00,2.00,266.75,-22.00,19.12,-3.50,-0.94,6.06,55.23,3.24
4.00,0.00,229.12,17.00,-134.06,5.38,5.19,2.31,55.44,3.26
4.00,1.00,264.69,-11.00,-50.44,-4.12,7.19,0.69,55.44,3.26
4.00,2.00,266.62,-22.00,19.19,-2.19,0.56,4.88,55.44,3.26
4.00,0.00,228.75,17.06,-134.19,7.56,3.38,4.25,55.70,3.28
4.00,1.00,264.62,-11.06,-50.38,-4.56,6.00,0.62,55.70,3.28
4.00,2.00,266.56,-22.00,19.19,-1.69,0.38,4.81,55.70,3.28
4.00,0.00,228.38,17.19,-134.44,10.31,1.69,7.69,56.06,3.30
4.00,1.00,264.56,-11.12,-50.31,-3.00,7.25,0.44,56.06,3.30
4.00,2.00,266.44,-22.06,19.19,-2.62,-0.31,4.88,56.06,3.30
4.00,0.00,227.94,17.38,-134.62,9.62,3.06,7.25,56.38,3.32
4.00,1.00,264.50,-11.25,-50.25,-2.25,7.00,-0.25,56.38,3.32
4.00,2.00,266.38,-22.06,19.25,-1.62,-0.44,4.06,56.38,3.32
4.00,0.00,227.56,17.50,-134.75,6.00,5.12,3.62,56.57,3.34
4.00,1.00,264.44,-11.38,-50.25,-2.38,6.06,-0.62,56.57,3.34
4.00,2.00,266.25,-22.06,19.31,-0.81,0.00,3.25,56.57,3.34
4.00,0.00,227.19,17.56,-134.81,5.00,4.81,2.25,56.66,3.36
4.00,1.00,264.44,-11.44,-50.19,-2.56,5.06,-0.75,56.66,3.36
4.00,2.00,266.25,-22.06,19.31,1.69,-0.12,1.62,56.66,3.36
4.00,0.00,226.88,17.69,-134.94,7.06,2.94,4.12,56.79,3.38
4.00,1.00,264.38,-11.50,-50.12,-2.25,4.88,-0.62,56.79,3.38
4.00,2.00,266.25,-22.12,19.25,2.50,0.25,1.75,56.79,3.38
4.00,0.00,226.50,17.81,-135.12,7.94,4.56,6.56,56.98,3.40
4.00,1.00,264.38,-11.56,-50.12,-1.56,6.31,-0.94,56.98,3.40
4.00,2.00,266.19,-22.12,19.19,1.19,0.00,2.31,56.98,3.40
4.00,0.00,225.94,18.00,-135.25,4.62,10.25,4.50,57.10,3.42
4.00,1.00,264.31,-11.62,-50.12,-2.31,5.38,-0.56,57.10,3.42
4.00,2.00,266.12,-22.12,19.19,0.56,-1.44,3.06,57.10,3.42
4.00,0.00,225.31,18.19,-135.25,3.88,12.31,3.44,57.19,3.44
4.00,1.00,264.25,-11.75,-50.06,-2.62,4.12,-0.69,57.19,3.44
4.00,2.00,266.06,-22.12,19.19,0.44,-2.19,3.25,57.19,3.44
4.00,0.00,224.56,18.44,-135.31,6.19,12.88,5.50,57.30,3.46
4.00,1.00,264.25,-11.81,-50.06,-0.75,5.69,-0.81,57.30,3.46
4.00,2.00,266.00,-22.12,19.12,2.44,-1.38,2.75,57.30,3.46
4.00,0.00,223.75,18.75,-135.44,7.50,14.56,7.12,57.43,3.48
4.00,1.00,264.25,-11.94,-50.06,0.38,7.06,-1.06,57.43,3.48
4.00,2.00,266.00,-22.06,19.06,2.81,-1.69,2.50,57.43,3.48
4.00,0.00,222.88,19.06,-135.50,7.00,16.88,6.44,57.57,3.50
4.00,1.00,264.19,-12.00,-50.06,0.75,7.56,0.00,57.57,3.50
4.00,2.00,265.94,-22.06,19.00,1.81,-2.94,2.38,57.57,3.50
4.00,0.00,221.94,19.38,-135.56,6.31,17.56,5.75,57.69,3.52
4.00,1.00,264.12,-12.12,-50.06,0.38,6.12,-1.00,57.69,3.52
4.00,2.00,265.88,-22.00,18.94,2.06,-2.56,2.69,57.69,3.52
4.00,0.00,221.12,19.69,-135.56,5.56,17.31,5.88,57.79,3.54
4.00,1.00,264.12,-12.19,-50.06,-1.38,3.62,0.12,57.79,3.54
4.00,2.00,265.88,-22.00,18.88,2.19,-1.75,3.44,57.79,3.54
4.00,0.00,220.38,19.94,-135.62,5.94,15.19,5.62,57.90,3.56
4.00,1.00,264.06,-12.25,-50.06,-0.44,5.06,-0.25,57.90,3.56
4.00,2.00,265.75,-22.00,18.81,1.81,-1.75,3.31,57.90,3.56
4.00,0.00,219.69,20.19,-135.69,6.56,13.31,5.12,58.05,3.58
4.00,1.00,264.00,-12.31,-50.06,-0.25,5.19,-0.06,58.05,3.58
4.00,2.00,265.69,-22.00,18.75,1.31,-1.56,3.62,58.05,3.58
4.00,0.00,219.00,20.38,-135.75,6.69,12.50,4.81,58.21,3.60
4.00,1.00,264.00,-12.38,-50.06,-1.50,3.75,0.62,58.21,3.60
4.00,2.00,265.62,-21.94,18.69,1.00,-2.25,4.25,58.21,3.60
4.00,0.00,218.75,20.50,-135.81,6.19,11.19,4.38,58.37,3.62
4.00,1.00,263.94,-12.38,-50.06,-0.38,4.81,0.25,58.37,3.62
4.00,2.00,265.56,-21.94,18.62,0.50,-1.06,4.62,58.37,3.62
4.00,0.00,217.94,20.75,-135.88,6.00,9.94,4.19,58.55,3.64
4.00,1.00,263.88,-12.50,-50.06,-0.88,4.94,0.50,58.55,3.64
4.00,2.00,265.44,-21.94,18.56,-0.44,-0.94,5.19,58.55,3.64
4.00,0.00,217.69,20.81,-135.94,5.88,8.56,4.31,58.76,3.66
4.00,1.00,263.81,-12.56,-50.06,-1.38,5.38,0.94,58.76,3.66
4.00,2.00,265.31,-22.00,18.56,-1.50,-0.56,5.69,58.76,3.66
4.00,0.00,217.06,21.00,-136.06,6.00,7.31,3.56,58.99,3.68
4.00,1.00,263.75,-12.56,-50.06,-1.75,4.88,1.12,58.99,3.68
4.00,2.00,265.19,-22.00,18.56,-2.25,-0.56,5.88,58.99,3.68
4.00,0.00,216.62,21.12,-136.12,6.12,6.81,3.06,59.25,3.70
4.00,1.00,263.69,-12.62,-50.06,-1.69,6.00,0.50,59.25,3.70
4.00,2.00,265.06,-22.06,18.56,-3.19,0.00,6.31,59.25,3.70
4.00,0.00,216.44,21.19,-136.19,7.81,5.00,3.75,59.52,3.72
4.00,1.00,263.62,-12.69,-50.06,-1.44,6.25,-0.06,59.52,3.72
4.00,2.00,264.94,-22.06,18.56,-2.00,0.06,6.81,59.52,3.72
4.00,0.00,216.00,21.31,-136.38,7.81,5.88,4.44,59.75,3.74
4.00,1.00,263.56,-12.81,-50.06,0.69,8.62,-0.56,59.75,3.74
4.00,2.00,264.81,-22.12,18.56,-0.31,1.25,7.38,59.75,3.74
4.00,0.00,215.50,21.50,-136.44,4.00,7.56,1.06,59.92,3.76
4.00,1.00,263.50,-12.94,-50.12,-2.00,5.38,1.50,59.92,3.76
4.00,2.00,264.69,-22.19,18.50,-2.00,0.56,6.88,59.92,3.76
4.00,0.00,215.19,21.56,-136.50,3.44,3.62,-0.31,60.11,3.78
4.00,1.00,263.44,-12.94,-50.12,-2.38,5.12,1.62,60.11,3.78
4.00,2.00,264.50,-22.25,18.50,-3.25,-0.62,7.12,60.11,3.78
4.00,0.00,215.00,21.62,-136.56,7.25,-0.75,3.81,60.39,3.80
4.00,1.00,263.31,-13.00,-50.06,-1.75,5.75,0.69,60.39,3.80
4.00,2.00,264.38,-22.25,18.50,-2.88,-0.69,6.62,60.39,3.80
4.00,0.00,214.75,21.69,-136.75,6.19,0.31,4.19,60.61,3.82
4.00,1.00,263.25,-13.06,-50.06,-2.06,5.25,0.44,60.61,3.82
4.00,2.00,264.25,-22.25,18.50,-1.69,-0.25,5.44,60.61,3.82
4.00,0.00,214.56,21.69,-136.88,2.38,0.56,-0.94,60.69,3.84
4.00,1.00,263.19,-13.12,-50.06,-1.69,4.69,0.38,60.69,3.84
4.00,2.00,264.12,-22.31,18.50,-0.44,1.00,4.50,60.69,3.84
4.00,0.00,214.56,21.69,-136.88,1.75,-1.00,-2.75,60.79,3.86
4.00,1.00,263.19,-13.19,-50.06,-2.81,4.56,0.12,60.79,3.86
4.00,2.00,264.06,-22.31,18.50,-1.69,1.38,4.19,60.79,3.86
4.00,0.00,214.69,21.62,-136.94,4.56,-6.31,1.75,60.99,3.88
4.00,1.00,263.12,-13.25,-50.00,-3.38,4.00,0.06,60.99,3.88
4.00,2.00,263.94,-22.38,18.50,-2.50,2.19,4.25,60.99,3.88
4.00,0.00,214.81,21.56,-137.12,4.69,-6.69,2.69,61.17,3.90
4.00,1.00,263.06,-13.31,-49.94,-3.06,4.19,-1.12,61.17,3.90
4.00,2.00,263.81,-22.50,18.56,-1.88,2.38,3.38,61.17,3.90
4.00,0.00,214.88,21.50,-137.25,3.81,-5.69,1.75,61.33,3.92
4.00,1.00,263.06,-13.38,-49.94,-2.69,4.12,-1.44,61.33,3.92
4.00,2.00,263.81,-22.50,18.56,-1.75,1.56,3.00,61.33,3.92
4.00,0.00,215.06,21.44,-137.25,0.19,-4.06,-2.81,61.36,3.94
4.00,1.00,263.06,-13.50,-49.88,-3.19,3.31,-0.94,61.36,3.94
4.00,2.00,263.75,-22.56,18.56,-1.12,2.62,2.06,61.36,3.94
4.00,0.00,215.25,21.31,-137.31,0.81,-4.62,-2.31,61.42,3.96
4.00,1.00,263.06,-13.56,-49.81,-3.88,3.19,-1.00,61.42,3.96
4.00,2.00,263.69,-22.62,18.56,-1.19,2.56,1.62,61.42,3.96
4.00,0.00,215.44,21.25,-137.38,2.62,-4.62,1.38,61.53,3.98
4.00,1.00,263.00,-13.62,-49.81,-3.31,3.38,-1.62,61.53,3.98
4.00,2.00,263.69,-22.69,18.56,-1.38,1.44,2.00,61.53,3.98
4.00,0.00,215.50,21.19,-137.38,2.44,-2.56,0.88,61.61,4.00
4.00,1.00,263.00,-13.69,-49.75,-2.38,3.56,-2.19,61.61,4.00
4.00,2.00,263.62,-22.69,18.62,-0.25,1.44,1.44,61.61,4.00
4.00,0.00,215.56,21.19,-137.44,1.94,-1.88,0.06,61.63,4.02
4.00,1.00,263.06,-13.75,-49.69,-2.25,3.44,-2.44,61.63,4.02
4.00,2.00,263.62,-22.75,18.62,1.00,2.12,1.00,61.63,4.02
4.00,0.00,215.50,21.19,-137.44,1.44,-0.38,-0.31,61.63,4.04
4.00,1.00,263.06,-13.88,-49.62,-3.06,2.00,-1.88,61.63,4.04
4.00,2.00,263.62,-22.75,18.62,1.44,3.38,0.31,61.63,4.04
4.00,0.00,215.44,21.19,-137.44,1.56,1.62,0.31,61.66,4.06
4.00,1.00,263.06,-13.94,-49.56,-1.94,2.88,-1.88,61.66,4.06
4.00,2.00,263.69,-22.88,18.62,0.56,1.75,0.56,61.66,4.06
4.00,0.00,215.31,21.25,-137.44,2.12,2.50,1.12,61.70,4.08
4.00,1.00,263.06,-14.00,-49.56,-0.94,3.75,-1.75,61.70,4.08
4.00,2.00,263.69,-22.88,18.62,0.69,0.44,0.44,61.70,4.08
4.00,0.00,215.12,21.31,-137.38,2.38,3.50,1.44,61.74,4.10
4.00,1.00,263.06,-14.06,-49.56,-1.06,2.94,-0.81,61.74,4.10
4.00,2.00,263.69,-22.88,18.56,1.00,0.88,-0.19,61.74,4.10
4.00,0.00,214.94,21.44,-137.38,1.69,4.25,1.12,61.76,4.12
4.00,1.00,263.06,-14.12,-49.56,-1.00,2.75,-1.06,61.76,4.12
4.00,2.00,263.69,-22.88,18.56,1.00,0.19,-0.25,61.76,4.12
4.00,0.00,214.81,21.50,-137.31,1.25,3.75,0.81,61.78,4.14
4.00,1.00,263.06,-14.19,-49.50,-1.38,0.56,-0.56,61.78,4.14
4.00,2.00,263.69,-22.88,18.56,0.38,1.00,-0.50,61.78,4.14
4.00,0.00,214.69,21.50,-137.25,0.25,3.38,0.50,61.77,4.16
4.00,1.00,263.06,-14.19,-49.50,-1.50,0.44,-0.62,61.77,4.16
4.00,2.00,263.69,-22.88,18.62,0.56,0.12,-0.94,61.77,4.16
4.00,0.00,214.62,21.56,-137.25,-0.94,2.94,0.62,61.73,4.18
4.00,1.00,263.06,-14.19,-49.44,-1.81,-0.06,-0.50,61.73,4.18
4.00,2.00,263.69,-22.88,18.62,0.56,0.38,-0.62,61.73,4.18
4.00,0.00,214.50,21.62,-137.19,-1.00,3.19,0.56,61.72,4.20
4.00,1.00,263.06,-14.19,-49.44,-1.50,0.56,-0.50,61.72,4.20
4.00,2.00,263.69,-22.88,18.62,-0.69,0.06,-0.38,61.72,4.20
4.00,0.00,214.38,21.69,-137.12,-1.56,3.38,0.88,61.71,4.22
4.00,1.00,263.06,-14.19,-49.38,-1.00,1.25,-0.44,61.71,4.22
4.00,2.00,263.69,-22.88,18.62,-1.19,-0.06,-0.12,61.71,4.22
4.00,0.00,214.31,21.75,-137.12,-1.69,3.19,1.44,61.68,4.24
4.00,1.00,263.06,-14.25,-49.38,-1.75,1.25,-0.62,61.68,4.24
4.00,2.00,263.69,-22.88,18.62,-0.56,0.69,-0.19,61.68,4.24
4.00,0.00,214.19,21.75,-137.06,-1.19,2.69,1.56,61.68,4.26
4.00,1.00,263.06,-14.25,-49.38,-2.00,1.31,-0.38,61.68,4.26
4.00,2.00,263.69,-22.88,18.69,-1.25,0.44,0.00,61.68,4.26
4.00,0.00,214.12,21.81,-137.06,-0.62,1.62,1.44,61.70,4.28
4.00,1.00,263.06,-14.31,-49.31,-1.69,1.69,-0.75,61.70,4.28
4.00,2.00,263.69,-22.88,18.69,-1.12,0.50,0.31,61.70,4.28
4.00,0.00,214.12,21.81,-137.06,-0.38,0.31,1.31,61.72,4.30
4.00,1.00,263.06,-14.31,-49.31,-1.88,1.44,-0.75,61.72,4.30
4.00,2.00,263.69,-22.88,18.75,-1.06,0.56,0.81,61.72,4.30
4.00,0.00,214.12,21.81,-137.06,0.50,0.31,0.88,61.77,4.32
4.00,1.00,263.06,-14.38,-49.25,-2.56,0.62,-0.81,61.77,4.32
4.00,2.00,263.69,-22.88,18.75,-1.44,1.12,0.88,61.77,4.32
4.00,0.00,214.12,21.88,-137.00,0.44,0.88,0.75,61.82,4.34
4.00,1.00,263.06,-14.38,-49.19,-1.31,2.12,-0.75,61.82,4.34
4.00,2.00,263.62,-22.94,18.75,-1.44,1.19,1.06,61.82,4.34
4.00,0.00,214.06,21.88,-137.00,0.69,1.06,0.94,61.88,4.36
4.00,1.00,263.06,-14.44,-49.19,-1.38,2.00,-0.94,61.88,4.36
4.00,2.00,263.62,-22.94,18.75,-1.44,0.62,1.25,61.88,4.36
4.00,0.00,214.00,21.88,-137.00,0.88,1.00,0.75,61.95,4.38
4.00,1.00,263.06,-14.44,-49.19,-1.81,1.56,-0.75,61.95,4.38
4.00,2.00,263.62,-22.94,18.81,-1.38,1.25,1.25,61.95,4.38
4.00,0.00,214.00,21.88,-137.06,0.94,0.69,0.56,62.00,4.40
4.00,1.00,263.00,-14.50,-49.12,-1.50,2.44,-1.06,62.00,4.40
4.00,2.00,263.56,-23.00,18.81,-1.06,1.44,1.06,62.00,4.40
4.00,0.00,214.00,21.88,-137.06,1.94,-2.31,0.56,62.09,4.42
4.00,1.00,263.00,-14.56,-49.12,-1.75,2.06,-1.12,62.09,4.42
4.00,2.00,263.56,-23.00,18.81,-1.06,1.62,1.00,62.09,4.42
4.00,0.00,214.06,21.81,-137.12,2.12,-1.94,0.88,62.18,4.44
4.00,1.00,263.00,-14.62,-49.06,-2.00,2.06,-0.94,62.18,4.44
4.00,2.00,263.50,-23.06,18.88,-1.25,1.25,1.44,62.18,4.44
4.00,0.00,214.12,21.81,-137.12,1.19,-1.88,-0.38,62.27,4.46
4.00,1.00,263.00,-14.62,-49.06,-1.62,2.31,-0.81,62.27,4.46
4.00,2.00,263.50,-23.12,18.88,-2.12,0.56,1.19,62.27,4.46
4.00,0.00,214.25,21.75,-137.12,0.69,-2.00,-0.38,62.35,4.48
4.00,1.00,263.00,-14.69,-49.00,-2.19,1.69,-0.94,62.35,4.48
4.00,2.00,263.50,-23.12,18.94,-2.12,0.75,1.50,62.35,4.48
4.00,0.00,214.38,21.75,-137.12,0.44,-2.12,0.06,62.42,4.50
4.00,1.00,263.00,-14.75,-49.00,-1.69,1.50,-1.06,62.42,4.50
4.00,2.00,263.44,-23.12,18.94,-1.81,1.19,0.88,62.42,4.50
4.00,0.00,214.44,21.69,-137.12,0.69,-1.75,-0.06,62.48,4.52
4.00,1.00,263.06,-14.81,-48.94,-1.25,1.19,-1.12,62.48,4.52
4.00,2.00,263.44,-23.19,19.00,-1.56,1.31,0.75,62.48,4.52
4.00,0.00,214.50,21.69,-137.12,0.69,-1.56,-0.31,62.51,4.54
4.00,1.00,263.06,-14.81,-48.94,-1.31,0.88,-1.00,62.51,4.54
4.00,2.00,263.44,-23.19,19.00,-0.56,1.12,-0.31,62.51,4.54
4.00,0.00,214.56,21.69,-137.12,0.50,-0.94,-0.19,62.53,4.56
4.00,1.00,263.06,-14.88,-48.88,-1.38,0.69,-0.94,62.53,4.56
4.00,2.00,263.44,-23.19,19.00,-0.19,0.88,-0.50,62.53,4.56
4.00,0.00,214.56,21.69,-137.06,0.38,0.31,-0.25,62.57,4.58
4.00,1.00,263.12,-14.88,-48.88,-0.81,0.56,-1.00,62.57,4.58
4.00,2.00,263.44,-23.25,19.06,-0.94,0.25,-0.38,62.57,4.58
4.00,0.00,214.62,21.69,-137.06,0.25,0.94,-0.50,62.61,4.60
4.00,1.00,263.12,-14.94,-48.81,-1.00,-0.94,-0.69,62.61,4.60
4.00,2.00,263.44,-23.25,19.12,-1.00,0.75,-1.12,62.61,4.60
4.00,0.00,214.69,21.62,-137.00,0.00,0.19,-0.94,62.62,4.62
4.00,1.00,263.19,-14.94,-48.81,-0.38,-1.12,-0.75,62.62,4.62
4.00,2.00,263.50,-23.25,19.12,-0.50,0.56,-1.69,62.62,4.62
4.00,0.00,214.81,21.62,-136.94,-0.69,-0.69,-1.81,62.60,4.64
4.00,1.00,263.19,-14.94,-48.75,-0.31,-1.81,-0.38,62.60,4.64
4.00,2.00,263.56,-23.25,19.19,-0.12,0.44,-2.50,62.60,4.64
4.00,0.00,214.94,21.56,-136.81,-1.00,-0.50,-2.50,62.59,4.66
4.00,1.00,263.25,-14.94,-48.75,0.12,-2.31,-0.56,62.59,4.66
4.00,2.00,263.56,-23.25,19.19,-0.56,0.12,-3.31,62.59,4.66
4.00,0.00,215.06,21.50,-136.69,-1.88,0.25,-2.81,62.57,4.68
4.00,1.00,263.25,-14.94,-48.75,0.38,-2.88,-0.31,62.57,4.68
4.00,2.00,263.62,-23.25,19.25,-1.00,-0.19,-3.56,62.57,4.68
4.00,0.00,215.31,21.44,-136.56,-2.69,0.38,-2.81,62.49,4.70
4.00,1.00,263.31,-14.94,-48.69,0.19,-4.19,0.31,62.49,4.70
4.00,2.00,263.69,-23.19,19.38,0.06,-0.12,-4.31,62.49,4.70
4.00,0.00,215.44,21.44,-136.44,-3.81,1.50,-2.56,62.35,4.72
4.00,1.00,263.38,-14.88,-48.69,0.12,-5.00,0.19,62.35,4.72
4.00,2.00,263.81,-23.19,19.38,1.06,0.12,-4.50,62.35,4.72
4.00,0.00,215.56,21.44,-136.25,-3.94,1.62,-2.75,62.18,4.74
4.00,1.00,263.44,-14.88,-48.62,0.88,-5.50,-0.12,62.18,4.74
4.00,2.00,263.94,-23.19,19.44,2.12,1.38,-4.44,62.18,4.74
4.00,0.00,215.62,21.44,-136.19,-3.81,1.69,-2.38,62.05,4.76
4.00,1.00,263.50,-14.81,-48.62,1.31,-5.44,-0.31,62.05,4.76
4.00,2.00,264.00,-23.12,19.44,0.81,0.25,-4.12,62.05,4.76
