Iteration,IMUNo,OrientationX (deg),OrientationY,OrientationZ,GyroX (20rad/sec),GyroY,GyroZ,Elbow_Pos (rad),Time (sec)
40.00,0.00,263.25,3.12,-98.56,-0.31,-0.12,0.69,-0.01,0.00
40.00,1.00,318.00,-3.75,-50.62,-0.12,-0.56,0.06,-0.01,0.00
40.00,2.00,303.00,-20.31,20.81,0.06,-0.06,-0.25,-0.01,0.00
40.00,0.00,263.31,3.06,-98.56,0.12,-0.25,0.00,-0.01,1.02
40.00,1.00,318.06,-3.69,-50.50,0.06,-0.25,-0.31,-0.01,1.02
40.00,2.00,303.00,-20.44,20.94,0.19,0.06,-0.12,-0.01,1.02
40.00,0.00,263.31,3.06,-98.56,0.12,-0.06,0.25,-0.02,1.04
40.00,1.00,318.06,-3.69,-50.50,0.12,-0.12,-0.12,-0.02,1.04
40.00,2.00,303.00,-20.44,20.94,0.31,0.00,0.19,-0.02,1.04
40.00,0.00,263.31,3.06,-98.56,-0.06,0.44,0.25,-0.02,1.06
40.00,1.00,318.06,-3.69,-50.50,0.12,-0.25,0.00,-0.02,1.06
40.00,2.00,303.00,-20.50,20.94,0.06,-0.19,0.19,-0.02,1.06
40.00,0.00,263.31,3.06,-98.56,0.06,0.81,0.19,-0.02,1.08
40.00,1.00,318.06,-3.69,-50.44,-0.06,-0.12,0.12,-0.02,1.08
40.00,2.00,303.00,-20.50,20.94,0.00,-0.25,0.38,-0.02,1.08
40.00,0.00,263.25,3.06,-98.56,-0.06,0.88,0.25,-0.02,1.10
40.00,1.00,318.06,-3.75,-50.44,0.00,-0.19,0.12,-0.02,1.10
40.00,2.00,303.00,-20.50,20.94,-0.12,-0.31,0.38,-0.02,1.10
40.00,0.00,263.25,3.06,-98.56,-0.12,0.62,0.31,-0.01,1.12
40.00,1.00,318.06,-3.75,-50.44,-0.19,-0.56,0.38,-0.01,1.12
40.00,2.00,303.00,-20.50,20.94,-0.38,-0.81,0.12,-0.01,1.12
40.00,0.00,263.25,3.06,-98.56,-0.19,0.81,0.31,-0.02,1.14
40.00,1.00,318.06,-3.75,-50.44,-0.19,-0.38,0.50,-0.02,1.14
40.00,2.00,303.00,-20.50,20.94,-0.06,-0.44,0.00,-0.02,1.14
40.00,0.00,263.25,3.06,-98.56,-0.31,0.44,0.31,-0.03,1.16
40.00,1.00,318.06,-3.75,-50.44,-0.25,-0.19,0.31,-0.03,1.16
40.00,2.00,303.00,-20.50,20.94,0.06,-0.50,-0.19,-0.03,1.16
40.00,0.00,263.25,3.06,-98.56,-0.19,0.31,0.50,-0.03,1.18
40.00,1.00,318.06,-3.75,-50.44,-0.38,-0.44,0.44,-0.03,1.18
40.00,2.00,303.00,-20.50,20.94,-0.12,-0.69,0.44,-0.03,1.18
40.00,0.00,263.25,3.06,-98.56,-0.31,0.44,0.31,-0.03,1.20
40.00,1.00,318.06,-3.75,-50.44,-0.25,-0.25,0.44,-0.03,1.20
40.00,2.00,302.94,-20.50,20.94,-0.19,-0.50,0.00,-0.03,1.20
40.00,0.00,263.25,3.06,-98.56,-0.12,0.38,0.31,-0.02,1.22
40.00,1.00,318.06,-3.75,-50.44,-0.25,0.00,0.31,-0.02,1.22
40.00,2.00,302.94,-20.50,20.94,-0.50,-0.69,0.25,-0.02,1.22
40.00,0.00,263.25,3.06,-98.56,-0.31,0.44,0.44,-0.03,1.24
40.00,1.00,318.06,-3.75,-50.44,-0.19,0.12,0.12,-0.03,1.24
40.00,2.00,302.94,-20.50,20.94,-0.06,0.19,-0.31,-0.03,1.24
40.00,0.00,263.25,3.06,-98.56,-0.56,0.44,0.31,-0.03,1.26
40.00,1.00,318.06,-3.75,-50.44,-0.62,0.31,0.19,-0.03,1.26
40.00,2.00,303.00,-20.50,20.94,-0.38,-0.06,-0.62,-0.03,1.26
40.00,0.00,263.25,3.06,-98.56,-0.56,0.12,0.12,-0.02,1.28
40.00,1.00,318.06,-3.75,-50.38,-1.25,0.06,0.31,-0.02,1.28
40.00,2.00,302.94,-20.50,21.00,-1.12,-0.56,-0.38,-0.02,1.28
40.00,0.00,263.25,3.06,-98.56,-0.44,-0.12,-0.12,0.00,1.30
40.00,1.00,318.06,-3.75,-50.38,-0.56,-0.06,0.62,0.00,1.30
40.00,2.00,302.94,-20.50,21.00,-0.88,-0.62,-0.25,0.00,1.30
40.00,0.00,263.25,3.06,-98.56,-0.50,-0.19,0.06,-0.01,1.32
40.00,1.00,318.00,-3.75,-50.38,-0.56,-0.31,0.38,-0.01,1.32
40.00,2.00,302.94,-20.50,21.00,-0.38,0.00,-0.25,-0.01,1.32
40.00,0.00,263.25,3.06,-98.56,-0.44,0.56,0.44,-0.02,1.34
40.00,1.00,318.06,-3.75,-50.38,-0.44,-0.25,0.12,-0.02,1.34
40.00,2.00,302.94,-20.50,21.00,-0.06,-0.19,-0.19,-0.02,1.34
40.00,0.00,263.25,3.06,-98.56,-0.19,0.94,0.50,-0.03,1.36
40.00,1.00,318.06,-3.75,-50.38,0.06,-0.06,-0.19,-0.03,1.36
40.00,2.00,302.94,-20.50,21.00,0.06,0.06,-0.12,-0.03,1.36
40.00,0.00,263.19,3.06,-98.56,-0.06,0.94,0.44,-0.03,1.38
40.00,1.00,318.06,-3.75,-50.38,-0.19,0.00,-0.38,-0.03,1.38
40.00,2.00,302.94,-20.50,21.00,0.00,0.19,0.00,-0.03,1.38
40.00,0.00,263.19,3.06,-98.56,-0.06,0.31,0.25,-0.03,1.40
40.00,1.00,318.06,-3.75,-50.38,0.00,0.00,-0.12,-0.03,1.40
40.00,2.00,302.94,-20.50,21.00,-0.12,0.12,-0.12,-0.03,1.40
40.00,0.00,263.19,3.06,-98.56,-0.12,0.12,0.06,-0.02,1.42
40.00,1.00,318.06,-3.75,-50.38,-0.19,0.12,0.19,-0.02,1.42
40.00,2.00,302.94,-20.50,21.00,-0.50,0.06,0.00,-0.02,1.42
40.00,0.00,263.19,3.06,-98.56,-0.38,0.19,0.06,0.02,1.44
40.00,1.00,318.06,-3.75,-50.38,-0.44,0.19,0.25,0.02,1.44
40.00,2.00,302.94,-20.50,21.06,-1.38,0.00,0.50,0.02,1.44
40.00,0.00,263.19,3.06,-98.56,-0.06,0.88,0.19,0.04,1.46
40.00,1.00,318.06,-3.75,-50.38,-0.44,0.06,0.12,0.04,1.46
40.00,2.00,302.94,-20.50,21.06,-1.00,0.31,0.00,0.04,1.46
40.00,0.00,263.19,3.06,-98.56,-0.06,1.38,0.56,0.07,1.48
40.00,1.00,318.06,-3.75,-50.38,-0.50,-0.06,0.12,0.07,1.48
40.00,2.00,302.94,-20.50,21.06,-1.00,0.62,-0.12,0.07,1.48
40.00,0.00,263.12,3.06,-98.56,0.25,1.31,0.81,0.11,1.50
40.00,1.00,318.06,-3.75,-50.31,-0.31,0.06,0.12,0.11,1.50
40.00,2.00,302.94,-20.56,21.12,-0.94,0.88,-0.19,0.11,1.50
40.00,0.00,263.06,3.12,-98.56,0.56,1.38,0.81,0.15,1.52
40.00,1.00,318.06,-3.75,-50.31,-0.25,0.00,-0.19,0.15,1.52
40.00,2.00,302.94,-20.56,21.12,-0.94,1.12,-0.25,0.15,1.52
40.00,0.00,263.00,3.12,-98.56,0.81,0.81,1.44,0.21,1.54
40.00,1.00,318.06,-3.75,-50.31,-1.06,0.06,-0.50,0.21,1.54
40.00,2.00,302.94,-20.62,21.19,-1.19,1.88,-0.19,0.21,1.54
40.00,0.00,263.00,3.19,-98.56,1.19,1.00,1.69,0.28,1.56
40.00,1.00,318.06,-3.75,-50.31,-0.25,0.19,-0.25,0.28,1.56
40.00,2.00,302.94,-20.62,21.19,-1.06,1.94,-0.06,0.28,1.56
40.00,0.00,262.88,3.19,-98.62,1.38,1.06,2.19,0.34,1.58
40.00,1.00,318.06,-3.75,-50.31,-0.31,0.12,-0.12,0.34,1.58
40.00,2.00,302.94,-20.69,21.19,-0.69,1.81,-0.06,0.34,1.58
40.00,0.00,262.81,3.25,-98.62,1.81,1.88,2.50,0.41,1.60
40.00,1.00,318.06,-3.75,-50.31,-0.31,0.38,-0.38,0.41,1.60
40.00,2.00,302.94,-20.69,21.19,-0.50,1.88,0.25,0.41,1.60
40.00,0.00,262.69,3.31,-98.69,2.31,2.56,2.56,0.50,1.62
40.00,1.00,318.06,-3.75,-50.31,-0.31,0.38,-0.31,0.50,1.62
40.00,2.00,302.94,-20.75,21.19,-0.56,1.81,0.31,0.50,1.62
40.00,0.00,262.56,3.38,-98.75,2.38,2.56,2.56,0.60,1.64
40.00,1.00,318.00,-3.75,-50.31,-0.56,0.62,-0.19,0.60,1.64
40.00,2.00,302.94,-20.75,21.25,-0.88,1.31,1.06,0.60,1.64
40.00,0.00,262.50,3.44,-98.81,2.88,2.25,2.62,0.72,1.66
40.00,1.00,318.00,-3.75,-50.31,-0.25,0.44,-0.38,0.72,1.66
40.00,2.00,302.94,-20.81,21.25,-0.94,1.06,1.19,0.72,1.66
40.00,0.00,262.38,3.50,-98.81,2.75,2.00,2.50,0.83,1.68
40.00,1.00,318.00,-3.75,-50.31,-0.75,1.12,-0.31,0.83,1.68
40.00,2.00,302.94,-20.81,21.25,-1.06,1.31,0.88,0.83,1.68
40.00,0.00,262.25,3.56,-98.88,3.12,2.00,2.88,1.00,1.70
40.00,1.00,318.00,-3.75,-50.31,-0.81,1.25,0.00,1.00,1.70
40.00,2.00,302.88,-20.88,21.25,-2.38,1.44,0.81,1.00,1.70
40.00,0.00,262.19,3.62,-98.94,3.62,1.19,3.06,1.21,1.72
40.00,1.00,318.00,-3.81,-50.25,-1.06,1.25,0.31,1.21,1.72
40.00,2.00,302.88,-20.88,21.31,-3.38,0.88,1.25,1.21,1.72
40.00,0.00,262.12,3.62,-99.06,3.94,-0.19,2.75,1.45,1.74
40.00,1.00,318.00,-3.81,-50.25,-1.06,1.44,0.44,1.45,1.74
40.00,2.00,302.81,-20.88,21.38,-4.06,0.50,1.19,1.45,1.74
40.00,0.00,262.12,3.69,-99.12,4.56,-1.12,2.38,1.70,1.76
40.00,1.00,317.94,-3.81,-50.25,-1.44,1.56,0.12,1.70,1.76
40.00,2.00,302.81,-20.88,21.44,-3.50,-0.19,0.81,1.70,1.76
40.00,0.00,262.12,3.69,-99.25,4.62,-1.19,1.44,1.91,1.78
40.00,1.00,317.94,-3.88,-50.19,-1.50,1.38,0.06,1.91,1.78
40.00,2.00,302.81,-20.88,21.50,-2.50,-0.44,0.50,1.91,1.78
40.00,0.00,262.19,3.69,-99.38,5.56,-2.56,0.00,2.13,1.80
40.00,1.00,317.94,-3.88,-50.19,-1.62,1.31,0.38,2.13,1.80
40.00,2.00,302.75,-20.88,21.56,-1.75,-1.44,-0.12,2.13,1.80
40.00,0.00,262.38,3.56,-99.50,6.75,-5.25,-0.69,2.39,1.82
40.00,1.00,317.94,-3.88,-50.19,-0.62,1.62,0.25,2.39,1.82
40.00,2.00,302.75,-20.81,21.56,-1.56,-2.88,-0.25,2.39,1.82
40.00,0.00,262.56,3.50,-99.62,6.31,-7.56,-2.06,2.62,1.84
40.00,1.00,317.88,-3.88,-50.12,-0.44,0.88,0.81,2.62,1.84
40.00,2.00,302.75,-20.81,21.62,-1.31,-2.19,0.38,2.62,1.84
40.00,0.00,262.81,3.38,-99.75,4.12,-7.62,-3.75,2.78,1.86
40.00,1.00,317.88,-3.88,-50.12,-0.31,1.19,0.56,2.78,1.86
40.00,2.00,302.75,-20.81,21.62,-1.12,-0.31,1.38,2.78,1.86
40.00,0.00,263.00,3.31,-99.81,4.56,-6.00,-2.50,2.97,1.88
40.00,1.00,317.88,-3.88,-50.19,0.06,0.94,1.00,2.97,1.88
40.00,2.00,302.69,-20.81,21.62,-1.94,1.62,2.25,2.97,1.88
40.00,0.00,263.19,3.25,-99.94,7.94,-4.62,-2.81,3.29,1.90
40.00,1.00,317.81,-3.88,-50.19,-0.12,1.12,1.06,3.29,1.90
40.00,2.00,302.62,-20.88,21.69,-2.62,0.56,2.19,3.29,1.90
40.00,0.00,263.31,3.25,-100.12,8.38,-2.69,-1.19,3.60,1.92
40.00,1.00,317.81,-3.88,-50.12,0.31,1.12,0.81,3.60,1.92
40.00,2.00,302.56,-20.88,21.69,-1.69,-0.88,2.56,3.60,1.92
40.00,0.00,263.19,3.31,-100.31,8.31,0.06,-0.31,3.88,1.94
40.00,1.00,317.81,-3.88,-50.12,0.25,0.69,0.75,3.88,1.94
40.00,2.00,302.50,-20.88,21.69,-1.06,-0.50,2.56,3.88,1.94
40.00,0.00,262.94,3.44,-100.50,5.88,5.44,0.94,4.10,1.96
40.00,1.00,317.75,-3.94,-50.12,0.38,0.88,0.50,4.10,1.96
40.00,2.00,302.44,-20.88,21.69,-1.50,0.06,3.00,4.10,1.96
40.00,0.00,262.56,3.56,-100.69,5.81,9.94,2.44,4.35,1.98
40.00,1.00,317.75,-3.94,-50.12,-0.25,0.88,0.62,4.35,1.98
40.00,2.00,302.38,-20.94,21.69,-2.25,0.19,4.00,4.35,1.98
40.00,0.00,262.25,3.75,-100.88,11.81,9.06,6.75,4.77,2.00
40.00,1.00,317.75,-3.94,-50.12,-0.06,1.38,0.75,4.77,2.00
40.00,2.00,302.25,-20.94,21.69,-2.00,-0.38,4.81,4.77,2.00
40.00,0.00,261.88,3.94,-101.19,15.31,6.94,9.62,5.28,2.02
40.00,1.00,317.69,-3.94,-50.12,-0.44,1.62,1.25,5.28,2.02
40.00,2.00,302.19,-21.00,21.69,-1.50,-1.12,5.25,5.28,2.02
40.00,0.00,261.50,4.12,-101.44,14.88,7.88,6.56,5.78,2.04
40.00,1.00,317.69,-3.94,-50.12,-0.25,1.75,1.69,5.78,2.04
40.00,2.00,302.06,-21.00,21.69,-1.75,-1.56,5.25,5.78,2.04
40.00,0.00,261.25,4.25,-101.69,13.62,6.38,4.12,6.24,2.06
40.00,1.00,317.62,-3.94,-50.12,0.44,1.81,2.38,6.24,2.06
40.00,2.00,301.94,-21.00,21.69,-1.56,-1.94,5.06,6.24,2.06
40.00,0.00,261.00,4.31,-102.00,13.81,3.62,4.12,6.71,2.08
40.00,1.00,317.56,-3.94,-50.12,-0.12,1.94,2.44,6.71,2.08
40.00,2.00,301.81,-21.00,21.69,-1.69,-1.38,5.19,6.71,2.08
40.00,0.00,260.81,4.44,-102.25,14.75,2.88,5.19,7.21,2.10
40.00,1.00,317.50,-3.94,-50.12,0.44,2.31,2.25,7.21,2.10
40.00,2.00,301.69,-21.00,21.69,-1.69,-1.69,5.62,7.21,2.10
40.00,0.00,260.56,4.56,-102.56,15.56,5.44,5.38,7.71,2.12
40.00,1.00,317.44,-3.94,-50.12,0.06,2.50,2.25,7.71,2.12
40.00,2.00,301.56,-21.00,21.62,-1.06,-1.75,6.38,7.71,2.12
40.00,0.00,260.25,4.69,-102.88,16.25,8.12,5.88,8.26,2.14
40.00,1.00,317.38,-3.94,-50.12,0.06,2.81,2.44,8.26,2.14
40.00,2.00,301.44,-21.06,21.62,-1.75,-1.62,7.88,8.26,2.14
40.00,0.00,259.88,4.81,-103.19,17.69,8.00,7.25,8.88,2.16
40.00,1.00,317.31,-3.94,-50.12,-0.38,3.50,2.50,8.88,2.16
40.00,2.00,301.25,-21.06,21.62,-2.88,-1.38,8.31,8.88,2.16
40.00,0.00,259.50,5.06,-103.56,18.62,7.81,8.25,9.56,2.18
40.00,1.00,317.19,-3.94,-50.12,-0.38,3.88,2.75,9.56,2.18
40.00,2.00,301.06,-21.12,21.62,-3.94,-1.50,8.56,9.56,2.18
40.00,0.00,259.12,5.25,-103.94,19.94,7.50,8.19,10.28,2.20
40.00,1.00,317.12,-3.94,-50.12,-1.00,4.06,2.12,10.28,2.20
40.00,2.00,300.88,-21.12,21.62,-3.62,-2.06,8.00,10.28,2.20
40.00,0.00,258.69,5.44,-104.38,22.62,6.25,9.06,11.05,2.22
40.00,1.00,317.06,-3.94,-50.12,-1.12,4.00,1.88,11.05,2.22
40.00,2.00,300.69,-21.19,21.62,-3.00,-1.94,8.00,11.05,2.22
40.00,0.00,258.31,5.62,-104.81,23.31,6.44,8.94,11.80,2.24
40.00,1.00,317.00,-4.00,-50.12,-0.50,3.94,2.12,11.80,2.24
40.00,2.00,300.56,-21.19,21.62,-1.50,-3.06,7.81,11.80,2.24
40.00,0.00,257.94,5.81,-105.31,24.38,4.94,9.12,12.55,2.26
40.00,1.00,316.94,-4.00,-50.06,-0.50,3.50,2.19,12.55,2.26
40.00,2.00,300.38,-21.12,21.56,-0.38,-3.06,6.88,12.55,2.26
40.00,0.00,257.62,6.00,-105.81,25.56,4.25,9.75,13.32,2.28
40.00,1.00,316.81,-4.00,-50.06,-0.62,3.12,2.25,13.32,2.28
40.00,2.00,300.25,-21.12,21.50,0.12,-2.38,6.25,13.32,2.28
40.00,0.00,257.25,6.25,-106.31,26.88,4.06,9.94,14.12,2.30
40.00,1.00,316.75,-4.00,-50.06,-0.25,2.25,1.31,14.12,2.30
40.00,2.00,300.12,-21.12,21.44,0.75,-3.00,6.69,14.12,2.30
40.00,0.00,256.88,6.44,-106.88,29.50,3.12,11.12,14.96,2.32
40.00,1.00,316.75,-4.06,-50.06,-0.06,2.44,0.88,14.96,2.32
40.00,2.00,300.00,-21.12,21.38,1.56,-3.00,7.25,14.96,2.32
40.00,0.00,256.44,6.69,-107.44,30.88,2.69,12.56,15.84,2.34
40.00,1.00,316.69,-4.06,-50.06,-0.12,2.94,1.00,15.84,2.34
40.00,2.00,299.81,-21.12,21.25,1.88,-3.44,7.31,15.84,2.34
40.00,0.00,256.06,6.94,-108.06,30.25,1.50,12.81,16.72,2.36
40.00,1.00,316.62,-4.06,-50.06,-0.62,2.88,1.69,16.72,2.36
40.00,2.00,299.69,-21.12,21.19,1.19,-3.62,7.31,16.72,2.36
40.00,0.00,255.88,7.06,-108.38,29.75,0.75,12.31,17.59,2.38
40.00,1.00,316.56,-4.12,-50.06,-0.44,2.94,1.88,17.59,2.38
40.00,2.00,299.50,-21.12,21.06,0.94,-4.44,7.44,17.59,2.38
40.00,0.00,255.31,7.38,-109.25,30.31,0.25,12.62,18.46,2.40
40.00,1.00,316.50,-4.12,-50.06,-1.12,3.00,1.56,18.46,2.40
40.00,2.00,299.38,-21.06,21.00,1.62,-4.31,8.06,18.46,2.40
40.00,0.00,255.00,7.56,-109.81,29.19,-1.31,11.44,19.31,2.42
40.00,1.00,316.44,-4.12,-50.00,-1.62,3.25,2.00,19.31,2.42
40.00,2.00,299.19,-21.06,20.88,1.31,-4.19,7.88,19.31,2.42
40.00,0.00,254.88,7.69,-110.12,30.19,-3.31,12.44,20.24,2.44
40.00,1.00,316.38,-4.12,-50.00,-1.69,3.69,2.19,20.24,2.44
40.00,2.00,299.06,-21.06,20.81,-0.56,-3.38,7.56,20.24,2.44
40.00,0.00,254.62,7.88,-110.75,31.25,-3.75,14.31,21.23,2.46
40.00,1.00,316.31,-4.12,-49.94,-1.44,3.50,1.94,21.23,2.46
40.00,2.00,298.88,-21.00,20.81,-1.44,-4.56,7.81,21.23,2.46
40.00,0.00,254.31,8.12,-111.38,32.69,-2.94,14.94,22.22,2.48
40.00,1.00,316.25,-4.19,-49.94,-1.56,3.44,1.69,22.22,2.48
40.00,2.00,298.69,-20.94,20.75,-0.06,-5.44,7.81,22.22,2.48
40.00,0.00,253.94,8.38,-112.06,33.00,-1.06,14.88,23.14,2.50
40.00,1.00,316.19,-4.19,-49.88,-1.25,3.44,1.31,23.14,2.50
40.00,2.00,298.56,-20.94,20.62,2.81,-4.81,7.25,23.14,2.50
40.00,0.00,253.56,8.62,-112.69,33.81,-1.00,15.75,24.08,2.52
40.00,1.00,316.12,-4.25,-49.88,-1.75,3.44,1.75,24.08,2.52
40.00,2.00,298.44,-20.88,20.50,2.69,-3.88,6.19,24.08,2.52
40.00,0.00,253.12,8.88,-113.38,34.38,-1.38,16.50,25.10,2.54
40.00,1.00,316.06,-4.25,-49.88,-2.00,3.50,1.94,25.10,2.54
40.00,2.00,298.25,-20.88,20.44,0.50,-4.88,6.56,25.10,2.54
40.00,0.00,252.62,9.19,-114.06,35.38,-2.81,16.75,26.16,2.56
40.00,1.00,316.00,-4.25,-49.81,-1.56,2.56,1.69,26.16,2.56
40.00,2.00,298.12,-20.81,20.38,0.44,-5.81,7.19,26.16,2.56
40.00,0.00,252.25,9.44,-114.81,35.88,-3.88,16.00,27.20,2.58
40.00,1.00,315.94,-4.25,-49.75,-1.12,2.81,1.44,27.20,2.58
40.00,2.00,297.94,-20.75,20.25,1.50,-6.25,8.19,27.20,2.58
40.00,0.00,251.88,9.69,-115.50,35.75,-5.00,14.81,28.22,2.60
40.00,1.00,315.88,-4.31,-49.75,-1.00,2.88,1.19,28.22,2.60
40.00,2.00,297.81,-20.69,20.19,2.25,-5.94,7.88,28.22,2.60
40.00,0.00,251.62,9.88,-116.25,36.06,-6.75,14.44,29.24,2.62
40.00,1.00,315.88,-4.31,-49.75,-1.25,3.31,0.94,29.24,2.62
40.00,2.00,297.62,-20.62,20.06,2.38,-5.12,7.56,29.24,2.62
40.00,0.00,251.31,10.06,-117.00,36.19,-7.44,14.31,30.26,2.64
40.00,1.00,315.81,-4.38,-49.69,-1.44,3.50,0.75,30.26,2.64
40.00,2.00,297.44,-20.56,19.94,2.62,-5.06,7.69,30.26,2.64
40.00,0.00,251.06,10.19,-117.75,38.25,-6.88,14.81,31.33,2.66
40.00,1.00,315.75,-4.38,-49.69,-1.06,4.12,0.12,31.33,2.66
40.00,2.00,297.31,-20.56,19.81,2.69,-4.19,8.31,31.33,2.66
40.00,0.00,250.75,10.44,-118.56,38.12,-6.25,15.00,32.43,2.68
40.00,1.00,315.75,-4.44,-49.69,-0.44,4.56,0.38,32.43,2.68
40.00,2.00,297.12,-20.56,19.69,2.00,-3.38,8.75,32.43,2.68
40.00,0.00,250.38,10.62,-119.31,36.75,-3.94,13.88,33.54,2.70
40.00,1.00,315.69,-4.50,-49.69,-2.00,4.00,0.69,33.54,2.70
40.00,2.00,296.94,-20.56,19.62,0.00,-3.31,9.38,33.54,2.70
40.00,0.00,249.94,10.81,-120.06,37.19,-1.00,14.88,34.66,2.72
40.00,1.00,315.62,-4.56,-49.62,-0.81,4.81,0.62,34.66,2.72
40.00,2.00,296.75,-20.56,19.56,0.19,-3.12,11.81,34.66,2.72
40.00,0.00,249.38,11.06,-120.81,37.69,1.19,15.06,35.80,2.74
40.00,1.00,315.56,-4.62,-49.62,-0.69,4.88,0.81,35.80,2.74
40.00,2.00,296.50,-20.56,19.44,0.25,-2.62,11.69,35.80,2.74
40.00,0.00,248.69,11.31,-121.56,37.56,4.38,14.31,36.95,2.76
40.00,1.00,315.50,-4.62,-49.62,-1.44,5.62,1.75,36.95,2.76
40.00,2.00,296.25,-20.56,19.38,-0.50,-3.62,11.88,36.95,2.76
40.00,0.00,247.88,11.62,-122.31,38.44,4.62,15.88,38.15,2.78
40.00,1.00,315.44,-4.69,-49.56,-1.94,5.00,1.75,38.15,2.78
40.00,2.00,296.00,-20.56,19.31,-1.19,-4.50,12.00,38.15,2.78
40.00,0.00,247.06,12.00,-123.06,38.12,7.19,16.75,39.31,2.80
40.00,1.00,315.31,-4.75,-49.56,-2.19,6.38,2.88,39.31,2.80
40.00,2.00,295.75,-20.56,19.19,-0.06,-4.69,12.19,39.31,2.80
40.00,0.00,246.19,12.31,-123.81,36.31,8.56,14.75,40.46,2.82
40.00,1.00,315.25,-4.75,-49.50,-1.38,5.81,3.25,40.46,2.82
40.00,2.00,295.50,-20.56,19.12,-1.94,-5.12,13.25,40.46,2.82
40.00,0.00,245.31,12.56,-124.44,35.94,8.12,13.19,41.62,2.84
40.00,1.00,315.12,-4.81,-49.50,-1.38,5.88,3.25,41.62,2.84
40.00,2.00,295.19,-20.56,19.06,-2.31,-5.44,13.81,41.62,2.84
40.00,0.00,244.50,12.88,-125.12,36.12,7.81,13.94,42.79,2.86
40.00,1.00,315.00,-4.81,-49.44,-1.31,6.62,4.19,42.79,2.86
40.00,2.00,294.94,-20.56,19.00,-2.25,-5.88,13.88,42.79,2.86
40.00,0.00,243.81,13.06,-125.81,35.06,6.44,13.44,43.90,2.88
40.00,1.00,314.81,-4.81,-49.44,-1.19,6.56,4.44,43.90,2.88
40.00,2.00,294.62,-20.50,18.94,-1.75,-6.06,13.31,43.90,2.88
40.00,0.00,243.12,13.25,-126.50,35.69,3.75,13.62,45.05,2.90
40.00,1.00,314.69,-4.88,-49.44,-2.31,6.56,4.69,45.05,2.90
40.00,2.00,294.31,-20.50,18.88,-2.31,-5.31,13.62,45.05,2.90
40.00,0.00,242.50,13.50,-127.19,35.38,2.62,13.75,46.17,2.92
40.00,1.00,314.50,-4.88,-49.38,-2.19,7.12,4.75,46.17,2.92
40.00,2.00,294.06,-20.50,18.75,-1.69,-5.94,14.00,46.17,2.92
40.00,0.00,241.94,13.62,-127.88,35.44,-0.31,12.06,47.28,2.94
40.00,1.00,314.38,-4.88,-49.38,-1.25,7.12,4.62,47.28,2.94
40.00,2.00,293.75,-20.44,18.69,-1.19,-5.56,14.00,47.28,2.94
40.00,0.00,241.44,13.75,-128.56,34.75,-0.69,11.19,48.36,2.96
40.00,1.00,314.25,-4.88,-49.31,-3.62,5.25,4.62,48.36,2.96
40.00,2.00,293.44,-20.44,18.62,-0.69,-4.44,13.25,48.36,2.96
40.00,0.00,240.94,13.88,-129.25,35.75,-2.94,11.88,49.48,2.98
40.00,1.00,314.06,-4.94,-49.31,-1.00,7.50,4.25,49.48,2.98
40.00,2.00,293.19,-20.44,18.50,-1.19,-4.69,13.00,49.48,2.98
40.00,0.00,240.38,14.00,-130.00,36.12,-3.12,12.94,50.59,3.00
40.00,1.00,313.94,-4.94,-49.25,-2.44,6.19,4.19,50.59,3.00
40.00,2.00,292.94,-20.44,18.44,-0.62,-3.88,13.06,50.59,3.00
40.00,0.00,239.75,14.19,-130.75,35.00,-1.69,12.56,51.68,3.02
40.00,1.00,313.81,-5.00,-49.25,-1.81,7.06,4.12,51.68,3.02
40.00,2.00,292.62,-20.44,18.38,-1.12,-5.56,12.94,51.68,3.02
40.00,0.00,239.25,14.31,-131.38,33.19,-1.44,10.94,52.71,3.04
40.00,1.00,313.62,-5.00,-49.25,-0.44,7.12,3.88,52.71,3.04
40.00,2.00,292.38,-20.44,18.25,-0.69,-5.81,13.25,52.71,3.04
40.00,0.00,238.75,14.38,-132.00,32.50,-1.88,10.38,53.68,3.06
40.00,1.00,313.50,-5.06,-49.25,-0.81,6.12,3.81,53.68,3.06
40.00,2.00,292.12,-20.44,18.19,0.50,-4.44,12.81,53.68,3.06
40.00,0.00,238.12,14.56,-132.69,33.56,-1.94,11.81,54.68,3.08
40.00,1.00,313.38,-5.06,-49.25,-0.50,7.00,3.62,54.68,3.08
40.00,2.00,291.88,-20.44,18.06,0.44,-3.44,11.94,54.68,3.08
40.00,0.00,237.50,14.69,-133.38,32.75,-1.31,11.50,55.68,3.10
40.00,1.00,313.25,-5.12,-49.25,-0.31,8.44,3.38,55.68,3.10
40.00,2.00,291.62,-20.44,18.00,-0.31,-4.19,12.38,55.68,3.10
40.00,0.00,236.75,14.81,-134.00,31.06,1.12,9.94,56.65,3.12
40.00,1.00,313.12,-5.19,-49.31,0.81,9.38,3.31,56.65,3.12
40.00,2.00,291.38,-20.44,17.88,-0.75,-2.88,10.38,56.65,3.12
40.00,0.00,236.12,15.00,-134.56,29.44,2.12,9.81,57.56,3.14
40.00,1.00,313.00,-5.25,-49.31,-2.38,5.56,3.06,57.56,3.14
40.00,2.00,291.19,-20.44,17.81,-0.75,-3.56,9.94,57.56,3.14
40.00,0.00,235.50,15.12,-135.00,27.31,2.69,10.12,58.38,3.16
40.00,1.00,312.88,-5.31,-49.25,-1.44,6.50,2.88,58.38,3.16
40.00,2.00,291.00,-20.44,17.75,0.31,-3.00,9.69,58.38,3.16
40.00,0.00,234.81,15.31,-135.50,26.44,2.62,9.38,59.19,3.18
40.00,1.00,312.81,-5.38,-49.31,-0.50,7.00,2.81,59.19,3.18
40.00,2.00,290.75,-20.44,17.69,-0.44,-3.25,9.56,59.19,3.18
40.00,0.00,234.06,15.44,-136.06,26.94,3.69,9.06,60.05,3.20
40.00,1.00,312.62,-5.38,-49.25,-0.38,8.06,3.19,60.05,3.20
40.00,2.00,290.56,-20.38,17.62,-1.19,-2.94,8.88,60.05,3.20
40.00,0.00,233.25,15.62,-136.56,24.75,4.94,8.75,60.80,3.22
40.00,1.00,312.56,-5.44,-49.25,-3.75,4.38,2.94,60.80,3.22
40.00,2.00,290.38,-20.38,17.62,-0.25,-2.94,9.19,60.80,3.22
40.00,0.00,232.44,15.81,-137.00,23.25,5.00,8.62,61.49,3.24
40.00,1.00,312.44,-5.44,-49.25,-0.94,6.81,2.62,61.49,3.24
40.00,2.00,290.19,-20.38,17.56,0.69,-2.94,9.19,61.49,3.24
40.00,0.00,97.81,16.00,-137.44,23.25,5.62,9.38,62.19,3.26
40.00,1.00,312.31,-5.50,-49.25,-1.19,7.56,2.88,62.19,3.26
40.00,2.00,290.00,-20.44,17.44,0.06,-2.94,9.06,62.19,3.26
40.00,0.00,97.88,16.25,-137.94,23.12,5.56,9.75,62.89,3.28
40.00,1.00,312.19,-5.56,-49.19,-2.69,5.94,3.12,62.89,3.28
40.00,2.00,289.88,-20.38,17.38,0.06,-3.38,8.62,62.89,3.28
40.00,0.00,97.94,16.44,-138.38,21.50,6.38,8.94,63.51,3.30
40.00,1.00,312.06,-5.62,-49.19,-0.50,7.44,2.88,63.51,3.30
40.00,2.00,289.69,-20.38,17.31,1.06,-3.50,8.50,63.51,3.30
40.00,0.00,97.94,16.62,-138.75,20.69,5.94,7.75,64.06,3.32
40.00,1.00,312.00,-5.69,-49.19,-0.44,7.00,2.19,64.06,3.32
40.00,2.00,289.50,-20.38,17.25,2.44,-2.75,8.12,64.06,3.32
40.00,0.00,98.00,16.81,-139.19,23.06,6.25,8.12,64.69,3.34
40.00,1.00,311.88,-5.75,-49.12,-3.19,6.88,2.50,64.69,3.34
40.00,2.00,289.38,-20.38,17.12,2.38,-2.56,7.88,64.69,3.34
40.00,0.00,98.06,17.06,-139.62,20.12,9.50,8.75,65.21,3.36
40.00,1.00,311.81,-5.81,-49.19,0.50,5.94,2.25,65.21,3.36
40.00,2.00,289.25,-20.38,17.06,2.69,-3.06,7.25,65.21,3.36
40.00,0.00,98.06,17.31,-139.94,16.81,9.38,7.44,65.66,3.38
40.00,1.00,311.69,-5.88,-49.19,-1.50,5.06,2.31,65.66,3.38
40.00,2.00,289.06,-20.31,16.94,2.25,-3.50,8.12,65.66,3.38
40.00,0.00,98.06,17.50,-140.25,16.88,8.88,8.00,66.13,3.40
40.00,1.00,311.62,-5.94,-49.19,0.31,6.19,2.31,66.13,3.40
40.00,2.00,288.94,-20.31,16.88,1.12,-3.81,7.88,66.13,3.40
40.00,0.00,98.19,17.75,-140.62,18.19,8.62,10.19,66.64,3.42
40.00,1.00,311.50,-5.94,-49.12,-1.94,3.69,2.56,66.64,3.42
40.00,2.00,288.75,-20.25,16.75,1.31,-4.50,8.06,66.64,3.42
40.00,0.00,98.25,18.00,-141.00,17.50,8.06,10.12,67.07,3.44
40.00,1.00,311.44,-5.94,-49.12,-0.38,2.94,3.44,67.07,3.44
40.00,2.00,288.56,-20.25,16.69,3.38,-2.12,8.75,67.07,3.44
40.00,0.00,98.31,18.25,-141.31,16.12,8.38,9.62,67.56,3.46
40.00,1.00,311.31,-5.94,-49.12,0.31,5.06,4.25,67.56,3.46
40.00,2.00,288.38,-20.25,16.56,0.00,-3.19,9.50,67.56,3.46
40.00,0.00,98.38,18.50,-141.56,12.62,10.38,8.94,68.02,3.48
40.00,1.00,311.19,-5.94,-49.12,-0.12,5.25,4.94,68.02,3.48
40.00,2.00,288.19,-20.25,16.50,-2.44,-5.81,10.00,68.02,3.48
40.00,0.00,98.38,18.75,-141.69,9.75,10.81,7.69,68.34,3.50
40.00,1.00,311.06,-6.00,-49.19,0.94,5.25,3.81,68.34,3.50
40.00,2.00,287.94,-20.12,16.50,-0.81,-7.19,10.31,68.34,3.50
40.00,0.00,98.38,18.94,-141.75,7.88,10.25,6.06,68.44,3.52
40.00,1.00,310.94,-6.00,-49.19,0.00,3.88,2.44,68.44,3.52
40.00,2.00,287.81,-20.12,16.31,4.31,-3.75,7.88,68.44,3.52
40.00,0.00,98.44,19.12,-141.88,8.50,6.88,5.44,68.55,3.54
40.00,1.00,310.88,-6.00,-49.19,0.00,4.94,3.00,68.55,3.54
40.00,2.00,287.69,-20.12,16.19,4.88,-2.31,6.44,68.55,3.54
40.00,0.00,98.50,19.25,-142.12,10.94,5.94,8.25,68.80,3.56
40.00,1.00,310.75,-6.00,-49.19,0.50,5.69,3.12,68.80,3.56
40.00,2.00,287.56,-20.06,16.06,2.81,-3.62,6.75,68.80,3.56
40.00,0.00,98.56,19.50,-142.31,11.31,8.06,10.12,69.06,3.58
40.00,1.00,310.62,-6.06,-49.25,0.75,6.25,2.94,69.06,3.58
40.00,2.00,287.38,-20.06,16.00,2.62,-3.38,7.56,69.06,3.58
40.00,0.00,98.69,19.75,-142.50,10.25,10.00,9.88,69.33,3.60
40.00,1.00,310.56,-6.06,-49.25,-0.50,5.25,3.44,69.33,3.60
40.00,2.00,287.25,-20.06,15.88,1.44,-2.19,6.88,69.33,3.60
40.00,0.00,98.69,19.94,-142.62,7.94,9.81,8.00,69.59,3.62
40.00,1.00,310.44,-6.12,-49.25,-1.31,5.62,3.31,69.59,3.62
40.00,2.00,287.12,-20.06,15.81,-0.69,-2.69,7.00,69.59,3.62
40.00,0.00,98.75,20.06,-142.75,6.81,7.81,5.88,69.83,3.64
40.00,1.00,310.31,-6.12,-49.19,-2.44,3.81,2.94,69.83,3.64
40.00,2.00,287.00,-20.00,15.81,-0.94,-3.19,6.31,69.83,3.64
40.00,0.00,98.75,20.12,-142.88,7.56,3.50,5.25,70.04,3.66
40.00,1.00,310.25,-6.19,-49.19,-1.06,4.62,1.81,70.04,3.66
40.00,2.00,286.88,-20.00,15.75,0.38,-1.69,5.31,70.04,3.66
40.00,0.00,98.81,20.19,-143.06,9.38,0.69,6.00,70.30,3.68
40.00,1.00,310.19,-6.25,-49.19,-0.38,6.69,1.12,70.30,3.68
40.00,2.00,286.75,-20.00,15.75,1.00,-0.75,4.44,70.30,3.68
40.00,0.00,98.88,20.25,-143.25,8.00,0.56,5.62,70.53,3.70
40.00,1.00,310.12,-6.31,-49.19,-2.06,4.00,1.06,70.53,3.70
40.00,2.00,286.69,-20.00,15.69,0.31,-1.19,4.44,70.53,3.70
40.00,0.00,98.94,20.31,-143.31,4.25,2.38,2.88,70.64,3.72
40.00,1.00,310.06,-6.38,-49.12,-1.62,5.00,1.25,70.64,3.72
40.00,2.00,286.56,-20.00,15.62,0.50,-1.44,4.94,70.64,3.72
40.00,0.00,98.88,20.38,-143.38,1.12,2.56,-0.06,70.69,3.74
40.00,1.00,310.00,-6.38,-49.12,-2.50,3.94,1.94,70.69,3.74
40.00,2.00,286.50,-20.00,15.62,-0.31,-0.94,5.19,70.69,3.74
40.00,0.00,98.88,20.38,-143.38,2.69,0.19,0.75,70.81,3.76
40.00,1.00,309.94,-6.38,-49.06,-3.62,3.38,2.38,70.81,3.76
40.00,2.00,286.38,-20.00,15.62,-1.44,-1.12,4.94,70.81,3.76
40.00,0.00,98.94,20.44,-143.50,4.50,0.50,3.88,71.01,3.78
40.00,1.00,309.81,-6.44,-49.06,-1.94,5.38,2.56,71.01,3.78
40.00,2.00,286.25,-20.06,15.62,-2.06,-1.31,5.94,71.01,3.78
40.00,0.00,99.00,20.50,-143.56,4.00,2.12,4.06,71.19,3.80
40.00,1.00,309.75,-6.44,-49.00,-2.50,4.81,2.38,71.19,3.80
40.00,2.00,286.12,-20.06,15.62,-1.88,-1.06,5.69,71.19,3.80
40.00,0.00,99.00,20.56,-143.62,2.00,3.31,2.44,71.32,3.82
40.00,1.00,309.62,-6.50,-48.94,-2.88,4.88,1.94,71.32,3.82
40.00,2.00,286.00,-20.06,15.62,-2.38,0.25,5.12,71.32,3.82
40.00,0.00,99.00,20.62,-143.62,0.75,3.31,1.12,71.40,3.84
40.00,1.00,309.56,-6.56,-48.94,-3.56,3.81,1.38,71.40,3.84
40.00,2.00,285.94,-20.06,15.62,-1.69,0.50,4.81,71.40,3.84
40.00,0.00,99.00,20.69,-143.62,0.50,2.69,0.94,71.43,3.86
40.00,1.00,309.50,-6.56,-48.88,-1.88,5.31,1.12,71.43,3.86
40.00,2.00,285.88,-20.12,15.62,-0.62,1.69,3.56,71.43,3.86
40.00,0.00,99.00,20.69,-143.69,2.31,2.56,0.38,71.53,3.88
40.00,1.00,309.44,-6.69,-48.88,-0.31,8.06,-0.06,71.53,3.88
40.00,2.00,285.81,-20.19,15.62,-1.06,1.56,3.56,71.53,3.88
40.00,0.00,99.00,20.75,-143.69,2.19,1.38,0.38,71.65,3.90
40.00,1.00,309.38,-6.75,-48.88,-2.94,4.38,1.44,71.65,3.90
40.00,2.00,285.75,-20.19,15.62,-1.75,0.56,3.06,71.65,3.90
40.00,0.00,98.94,20.75,-143.69,1.56,2.12,0.81,71.74,3.92
40.00,1.00,309.31,-6.81,-48.81,-3.00,4.38,0.88,71.74,3.92
40.00,2.00,285.62,-20.25,15.62,-1.31,0.31,3.25,71.74,3.92
40.00,0.00,98.94,20.81,-143.75,1.00,3.31,0.12,71.78,3.94
40.00,1.00,309.31,-6.88,-48.75,-2.75,3.38,0.25,71.78,3.94
40.00,2.00,285.62,-20.25,15.62,-0.25,1.44,2.88,71.78,3.94
40.00,0.00,98.94,20.88,-143.75,1.44,2.75,-0.44,71.82,3.96
40.00,1.00,309.25,-6.94,-48.69,-2.62,3.94,0.19,71.82,3.96
40.00,2.00,285.56,-20.31,15.62,0.00,1.81,2.31,71.82,3.96
40.00,0.00,98.88,20.88,-143.75,2.44,2.44,-0.75,71.93,3.98
40.00,1.00,309.25,-7.00,-48.69,-2.19,3.94,0.12,71.93,3.98
40.00,2.00,285.50,-20.38,15.62,-1.12,1.44,2.25,71.93,3.98
40.00,0.00,98.88,20.88,-143.81,3.06,3.25,-0.56,72.07,4.00
40.00,1.00,309.19,-7.06,-48.69,-0.12,5.94,-0.50,72.07,4.00
40.00,2.00,285.44,-20.38,15.62,-1.50,0.50,2.94,72.07,4.00
40.00,0.00,98.81,20.94,-143.81,3.38,3.88,-0.38,72.18,4.02
40.00,1.00,309.12,-7.12,-48.69,-0.38,5.19,-0.69,72.18,4.02
40.00,2.00,285.38,-20.44,15.62,-0.38,1.06,2.56,72.18,4.02
40.00,0.00,98.81,21.00,-143.88,2.81,3.50,-0.50,72.27,4.04
40.00,1.00,309.12,-7.19,-48.62,-2.94,2.38,0.06,72.27,4.04
40.00,2.00,285.38,-20.44,15.62,-0.06,0.88,2.50,72.27,4.04
40.00,0.00,98.75,21.06,-143.94,1.94,3.94,-0.62,72.33,4.06
40.00,1.00,309.12,-7.25,-48.56,-2.00,3.00,0.12,72.33,4.06
40.00,2.00,285.31,-20.44,15.62,-0.19,0.12,2.81,72.33,4.06
40.00,0.00,98.75,21.12,-143.94,1.81,4.44,-0.50,72.39,4.08
40.00,1.00,309.06,-7.31,-48.56,-2.12,3.44,0.12,72.39,4.08
40.00,2.00,285.25,-20.50,15.62,-0.25,0.81,2.19,72.39,4.08
40.00,0.00,98.69,21.19,-143.94,1.88,4.06,-0.12,72.51,4.10
40.00,1.00,309.06,-7.38,-48.56,-1.31,3.75,0.25,72.51,4.10
40.00,2.00,285.19,-20.50,15.62,-1.88,-0.19,3.00,72.51,4.10
40.00,0.00,98.62,21.25,-144.00,2.19,3.44,0.12,72.64,4.12
40.00,1.00,309.00,-7.44,-48.50,-2.38,2.81,0.75,72.64,4.12
40.00,2.00,285.12,-20.50,15.62,-2.06,-0.94,3.06,72.64,4.12
40.00,0.00,98.62,21.25,-144.00,2.31,3.31,0.00,72.76,4.14
40.00,1.00,309.00,-7.44,-48.50,-2.62,2.94,1.00,72.76,4.14
40.00,2.00,285.06,-20.50,15.69,-1.69,0.25,2.56,72.76,4.14
40.00,0.00,98.56,21.31,-144.00,1.50,2.50,-0.06,72.86,4.16
40.00,1.00,308.94,-7.50,-48.38,-2.81,2.88,0.75,72.86,4.16
40.00,2.00,285.00,-20.56,15.69,-1.94,0.19,2.50,72.86,4.16
40.00,0.00,98.56,21.31,-144.06,2.00,1.94,0.38,72.97,4.18
40.00,1.00,308.88,-7.50,-48.38,-1.25,3.94,0.38,72.97,4.18
40.00,2.00,284.94,-20.56,15.69,-1.44,0.88,2.56,72.97,4.18
40.00,0.00,98.56,21.38,-144.06,2.06,2.00,0.19,73.04,4.20
40.00,1.00,308.88,-7.62,-48.38,0.56,6.44,-0.81,73.04,4.20
40.00,2.00,284.94,-20.56,15.69,-0.56,1.00,2.69,73.04,4.20
40.00,0.00,98.50,21.44,-144.12,2.56,2.12,0.25,73.15,4.22
40.00,1.00,308.81,-7.69,-48.38,-0.75,4.06,0.75,73.15,4.22
40.00,2.00,284.88,-20.62,15.75,-1.00,0.69,2.31,73.15,4.22
40.00,0.00,98.50,21.44,-144.19,3.44,1.81,0.88,73.30,4.24
40.00,1.00,308.75,-7.75,-48.38,1.44,7.62,0.19,73.30,4.24
40.00,2.00,284.81,-20.62,15.75,-1.56,-0.38,3.00,73.30,4.24
40.00,0.00,98.50,21.50,-144.19,2.25,3.31,0.75,73.41,4.26
40.00,1.00,308.69,-7.81,-48.38,-2.25,1.69,1.25,73.41,4.26
40.00,2.00,284.75,-20.62,15.75,-1.38,0.06,3.25,73.41,4.26
40.00,0.00,98.50,21.56,-144.19,1.06,2.38,0.94,73.50,4.28
40.00,1.00,308.69,-7.81,-48.31,-1.94,2.19,0.88,73.50,4.28
40.00,2.00,284.69,-20.69,15.75,-1.75,0.94,3.19,73.50,4.28
40.00,0.00,98.50,21.56,-144.25,1.06,1.88,0.75,73.60,4.30
40.00,1.00,308.69,-7.88,-48.31,-1.69,2.12,0.56,73.60,4.30
40.00,2.00,284.56,-20.69,15.81,-2.25,0.44,3.75,73.60,4.30
40.00,0.00,98.44,21.62,-144.25,1.38,1.38,0.50,73.68,4.32
40.00,1.00,308.62,-7.88,-48.31,-1.31,2.06,0.19,73.68,4.32
40.00,2.00,284.50,-20.75,15.81,-1.44,-0.56,3.00,73.68,4.32
40.00,0.00,98.44,21.62,-144.25,1.88,0.75,0.69,73.73,4.34
40.00,1.00,308.62,-7.94,-48.31,-0.94,2.56,0.00,73.73,4.34
40.00,2.00,284.50,-20.75,15.81,0.25,1.25,1.62,73.73,4.34
40.00,0.00,98.44,21.62,-144.31,1.81,0.38,0.62,73.82,4.36
40.00,1.00,308.62,-8.00,-48.25,-1.88,2.06,-0.25,73.82,4.36
40.00,2.00,284.50,-20.81,15.81,-0.94,1.56,0.94,73.82,4.36
40.00,0.00,98.44,21.62,-144.31,0.94,0.38,0.94,73.90,4.38
40.00,1.00,308.62,-8.00,-48.25,-2.25,1.38,-0.19,73.90,4.38
40.00,2.00,284.44,-20.81,15.88,-1.69,0.38,1.06,73.90,4.38
40.00,0.00,98.50,21.62,-144.31,0.31,0.44,0.88,73.94,4.40
40.00,1.00,308.56,-8.06,-48.19,-1.69,1.75,-0.12,73.94,4.40
40.00,2.00,284.44,-20.81,15.88,-1.06,0.88,1.00,73.94,4.40
40.00,0.00,98.50,21.69,-144.31,0.12,-0.50,1.19,73.99,4.42
40.00,1.00,308.56,-8.06,-48.19,-1.94,1.56,0.12,73.99,4.42
40.00,2.00,284.44,-20.81,15.94,-1.44,1.12,0.31,73.99,4.42
40.00,0.00,98.50,21.62,-144.38,-0.31,-1.19,1.19,74.06,4.44
40.00,1.00,308.56,-8.12,-48.12,-2.06,1.62,0.25,74.06,4.44
40.00,2.00,284.44,-20.88,15.94,-2.81,0.62,0.94,74.06,4.44
40.00,0.00,98.56,21.62,-144.38,-0.62,-1.19,1.12,74.14,4.46
40.00,1.00,308.56,-8.12,-48.12,-2.12,1.62,0.12,74.14,4.46
40.00,2.00,284.38,-20.88,16.00,-3.25,1.12,1.00,74.14,4.46
40.00,0.00,98.62,21.62,-144.38,-1.25,-1.44,1.25,74.20,4.48
40.00,1.00,308.50,-8.19,-48.06,-2.38,1.44,0.00,74.20,4.48
40.00,2.00,284.38,-20.94,16.06,-3.06,1.00,0.75,74.20,4.48
40.00,0.00,98.62,21.62,-144.38,-0.88,-1.75,1.38,74.23,4.50
40.00,1.00,308.50,-8.19,-48.00,-2.38,1.50,-0.25,74.23,4.50
40.00,2.00,284.31,-20.94,16.12,-2.06,1.62,1.19,74.23,4.50
40.00,0.00,98.69,21.62,-144.38,-0.44,-2.38,1.56,74.28,4.52
40.00,1.00,308.50,-8.25,-48.00,-2.25,1.69,-0.12,74.28,4.52
40.00,2.00,284.31,-21.00,16.12,-1.94,1.44,1.31,74.28,4.52
40.00,0.00,98.75,21.56,-144.38,-0.56,-2.62,1.81,74.32,4.54
40.00,1.00,308.50,-8.25,-47.94,-2.38,2.00,-0.06,74.32,4.54
40.00,2.00,284.25,-21.00,16.19,-1.88,1.38,1.06,74.32,4.54
40.00,0.00,98.75,21.56,-144.38,-1.19,-1.69,1.56,74.34,4.56
40.00,1.00,308.50,-8.25,-47.94,-2.19,1.62,-0.19,74.34,4.56
40.00,2.00,284.25,-21.00,16.19,-1.88,1.00,1.31,74.34,4.56
40.00,0.00,98.81,21.56,-144.38,-1.50,-1.69,1.19,74.35,4.58
40.00,1.00,308.44,-8.31,-47.88,-1.81,1.75,-0.25,74.35,4.58
40.00,2.00,284.19,-21.06,16.25,-1.88,0.38,1.06,74.35,4.58
40.00,0.00,98.81,21.56,-144.38,-1.25,-0.62,0.56,74.39,4.60
40.00,1.00,308.44,-8.31,-47.81,-2.31,1.25,0.12,74.39,4.60
40.00,2.00,284.19,-21.06,16.31,-2.50,0.25,1.44,74.39,4.60
40.00,0.00,98.81,21.50,-144.31,-1.31,-1.00,0.44,74.43,4.62
40.00,1.00,308.44,-8.38,-47.75,-2.31,1.56,-0.25,74.43,4.62
40.00,2.00,284.12,-21.06,16.31,-2.81,1.00,1.19,74.43,4.62
40.00,0.00,98.88,21.50,-144.31,-1.25,-1.31,0.25,74.46,4.64
40.00,1.00,308.44,-8.38,-47.75,-2.69,1.44,-0.31,74.46,4.64
40.00,2.00,284.12,-21.12,16.38,-2.25,0.88,1.00,74.46,4.64
40.00,0.00,98.88,21.44,-144.25,-1.00,-1.19,0.19,74.49,4.66
40.00,1.00,308.38,-8.38,-47.69,-2.25,1.38,-0.62,74.49,4.66
40.00,2.00,284.12,-21.12,16.44,-1.75,1.62,0.94,74.49,4.66
40.00,0.00,98.88,21.44,-144.25,-1.00,-2.00,-0.25,74.51,4.68
40.00,1.00,308.38,-8.44,-47.62,-1.94,1.25,-0.50,74.51,4.68
40.00,2.00,284.06,-21.12,16.44,-1.75,0.94,0.81,74.51,4.68
40.00,0.00,98.88,21.38,-144.25,-1.38,-1.94,-1.00,74.53,4.70
40.00,1.00,308.38,-8.44,-47.62,-1.81,1.38,-0.50,74.53,4.70
40.00,2.00,284.06,-21.19,16.50,-2.19,1.00,0.88,74.53,4.70
40.00,0.00,98.88,21.31,-144.19,-1.94,-2.69,-1.50,74.52,4.72
40.00,1.00,308.38,-8.50,-47.56,-2.69,0.88,-0.56,74.52,4.72
40.00,2.00,284.06,-21.19,16.56,-1.50,1.44,0.69,74.52,4.72
40.00,0.00,98.88,21.25,-144.19,-2.25,-2.44,-1.88,74.49,4.74
40.00,1.00,308.38,-8.50,-47.50,-2.62,0.44,-0.88,74.49,4.74
40.00,2.00,284.06,-21.25,16.56,-1.19,1.69,1.00,74.49,4.74
40.00,0.00,98.81,21.19,-144.12,-2.38,-1.38,-1.81,74.46,4.76
40.00,1.00,308.38,-8.50,-47.50,-2.50,0.94,-0.69,74.46,4.76
40.00,2.00,284.00,-21.25,16.56,-1.31,1.75,1.00,74.46,4.76
40.00,0.00,98.81,21.19,-144.06,-2.44,-0.88,-1.25,74.44,4.78
40.00,1.00,308.38,-8.56,-47.44,-2.62,1.44,-0.31,74.44,4.78
40.00,2.00,284.00,-21.31,16.62,-1.81,1.31,1.00,74.44,4.78
40.00,0.00,98.81,21.12,-144.00,-1.94,0.12,-1.56,74.42,4.80
40.00,1.00,308.38,-8.56,-47.38,-2.50,1.94,-0.31,74.42,4.80
40.00,2.00,284.00,-21.31,16.62,-1.44,1.44,0.81,74.42,4.80
40.00,0.00,98.81,21.12,-144.00,-0.31,-2.25,-1.38,74.47,4.82
40.00,1.00,308.38,-8.62,-47.31,-2.19,2.19,-0.12,74.47,4.82
40.00,2.00,283.94,-21.38,16.69,-2.00,1.50,1.38,74.47,4.82
40.00,0.00,98.75,21.06,-144.00,-0.44,-1.81,-1.12,74.56,4.84
40.00,1.00,308.31,-8.62,-47.31,-2.44,2.00,0.00,74.56,4.84
40.00,2.00,283.94,-21.44,16.75,-3.25,1.62,1.50,74.56,4.84
40.00,0.00,98.75,21.00,-144.00,-0.50,-1.56,-1.25,74.62,4.86
40.00,1.00,308.31,-8.69,-47.25,-2.44,1.88,-0.12,74.62,4.86
40.00,2.00,283.88,-21.44,16.81,-2.44,1.50,1.44,74.62,4.86
40.00,0.00,98.75,21.00,-144.00,-0.38,-1.75,-1.25,74.66,4.88
40.00,1.00,308.31,-8.69,-47.19,-2.44,2.12,-0.19,74.66,4.88
40.00,2.00,283.88,-21.50,16.81,-1.88,1.50,1.06,74.66,4.88
40.00,0.00,98.75,20.94,-144.00,-0.75,-1.50,-1.06,74.71,4.90
40.00,1.00,308.31,-8.75,-47.12,-2.19,2.19,0.06,74.71,4.90
40.00,2.00,283.81,-21.56,16.88,-2.25,2.12,1.25,74.71,4.90
40.00,0.00,98.75,20.88,-144.00,0.06,-1.62,-1.00,74.78,4.92
40.00,1.00,308.25,-8.75,-47.12,-1.69,2.94,0.00,74.78,4.92
40.00,2.00,283.81,-21.56,16.88,-2.38,1.38,1.69,74.78,4.92
40.00,0.00,98.75,20.88,-144.00,0.12,-1.94,-0.81,74.83,4.94
40.00,1.00,308.25,-8.81,-47.06,-2.06,2.12,-0.06,74.83,4.94
40.00,2.00,283.75,-21.62,16.94,-1.62,1.19,1.12,74.83,4.94
40.00,0.00,98.69,20.81,-144.00,-0.25,-2.25,-1.00,74.88,4.96
40.00,1.00,308.25,-8.88,-47.06,-1.62,2.19,0.19,74.88,4.96
40.00,2.00,283.75,-21.62,17.00,-1.62,0.38,1.12,74.88,4.96
40.00,0.00,98.69,20.75,-144.00,-0.69,-1.50,-1.31,74.91,4.98
40.00,1.00,308.19,-8.88,-47.00,-1.75,2.00,0.00,74.91,4.98
40.00,2.00,283.75,-21.62,17.00,-1.69,-0.06,0.56,74.91,4.98
40.00,0.00,98.69,20.69,-143.94,-1.00,-0.88,-1.56,74.90,5.00
40.00,1.00,308.19,-8.88,-47.00,-1.69,1.31,-0.06,74.90,5.00
40.00,2.00,283.75,-21.62,17.06,-0.94,1.00,-0.31,74.90,5.00
40.00,0.00,98.62,20.69,-143.94,-1.06,-1.25,-1.44,74.91,5.02
40.00,1.00,308.19,-8.94,-46.94,-2.12,0.75,-0.44,74.91,5.02
40.00,2.00,283.75,-21.69,17.06,-1.31,2.06,0.12,74.91,5.02
40.00,0.00,98.62,20.62,-143.94,-0.12,-1.38,-0.25,74.95,5.04
40.00,1.00,308.19,-8.94,-46.94,-1.50,0.88,-0.62,74.95,5.04
40.00,2.00,283.75,-21.75,17.12,-1.56,1.62,-0.12,74.95,5.04
40.00,0.00,98.69,20.62,-143.94,0.19,-1.69,0.38,74.99,5.06
40.00,1.00,308.19,-8.94,-46.88,-1.12,1.25,-0.94,74.99,5.06
40.00,2.00,283.75,-21.75,17.19,-1.06,1.62,-0.38,74.99,5.06
40.00,0.00,98.69,20.56,-143.94,0.06,-1.44,0.25,75.02,5.08
40.00,1.00,308.19,-9.00,-46.88,-0.62,1.25,-0.56,75.02,5.08
40.00,2.00,283.75,-21.81,17.25,-0.81,0.94,-0.12,75.02,5.08
40.00,0.00,98.69,20.56,-143.94,-0.44,-0.12,-0.50,75.03,5.10
40.00,1.00,308.19,-9.00,-46.88,-0.19,0.75,-0.19,75.03,5.10
40.00,2.00,283.75,-21.81,17.25,-0.75,0.50,-0.62,75.03,5.10
40.00,0.00,98.69,20.56,-143.94,-0.25,0.50,-0.50,75.04,5.12
40.00,1.00,308.19,-9.06,-46.88,0.00,0.38,-0.31,75.04,5.12
40.00,2.00,283.75,-21.81,17.25,-0.50,0.31,-0.50,75.04,5.12
40.00,0.00,98.69,20.56,-143.88,0.38,-0.06,0.00,75.04,5.14
40.00,1.00,308.19,-9.06,-46.81,0.31,-0.25,-0.75,75.04,5.14
40.00,2.00,283.75,-21.81,17.31,0.12,0.06,-0.50,75.04,5.14
40.00,0.00,98.62,20.56,-143.94,0.62,0.25,0.50,75.04,5.16
40.00,1.00,308.25,-9.06,-46.81,0.56,-1.00,-0.50,75.04,5.16
40.00,2.00,283.75,-21.81,17.31,0.69,-0.25,-0.94,75.04,5.16
40.00,0.00,98.62,20.56,-143.94,0.44,0.44,0.56,75.03,5.18
40.00,1.00,308.25,-9.06,-46.81,0.88,-1.00,-0.25,75.03,5.18
40.00,2.00,283.75,-21.81,17.38,0.75,-0.38,-1.06,75.03,5.18
40.00,0.00,98.69,20.56,-143.94,0.44,0.88,1.19,75.03,5.20
40.00,1.00,308.25,-9.06,-46.81,1.31,-1.50,0.00,75.03,5.20
40.00,2.00,283.81,-21.81,17.38,0.56,-1.12,-0.81,75.03,5.20
40.00,0.00,98.69,20.62,-143.94,0.56,1.25,1.56,75.02,5.22
40.00,1.00,308.31,-9.06,-46.81,1.31,-2.19,-0.06,75.02,5.22
40.00,2.00,283.81,-21.81,17.38,0.69,-1.06,-0.50,75.02,5.22
40.00,0.00,98.69,20.62,-143.88,0.50,1.88,2.00,75.03,5.24
40.00,1.00,308.31,-9.06,-46.88,1.75,-2.69,0.12,75.03,5.24
40.00,2.00,283.81,-21.81,17.38,0.38,-0.94,-0.38,75.03,5.24
40.00,0.00,98.75,20.75,-143.88,0.38,3.06,2.25,75.01,5.26
40.00,1.00,308.38,-9.00,-46.88,2.25,-2.75,0.44,75.01,5.26
40.00,2.00,283.81,-21.81,17.38,0.88,-0.88,-0.88,75.01,5.26
40.00,0.00,98.75,20.81,-143.88,-0.06,3.69,2.69,75.00,5.28
40.00,1.00,308.38,-9.00,-46.88,2.25,-2.81,0.88,75.00,5.28
40.00,2.00,283.81,-21.75,17.38,0.50,-1.12,-1.06,75.00,5.28
40.00,0.00,98.81,20.88,-143.88,-0.12,3.25,3.38,74.97,5.30
40.00,1.00,308.38,-8.94,-46.94,2.12,-3.56,0.88,74.97,5.30
40.00,2.00,283.88,-21.75,17.44,0.75,-1.75,-1.19,74.97,5.30
40.00,0.00,98.81,20.94,-143.81,-0.56,2.44,2.94,74.90,5.32
40.00,1.00,308.44,-8.88,-46.94,2.44,-4.00,0.62,74.90,5.32
40.00,2.00,283.88,-21.69,17.44,1.75,-1.62,-2.06,74.90,5.32
40.00,0.00,98.88,21.00,-143.75,-1.12,1.62,2.75,74.80,5.34
40.00,1.00,308.44,-8.88,-47.00,3.00,-4.25,0.62,74.80,5.34
40.00,2.00,283.94,-21.69,17.44,2.25,-1.62,-2.69,74.80,5.34
40.00,0.00,98.94,21.06,-143.75,-1.25,0.81,3.00,74.70,5.36
40.00,1.00,308.50,-8.81,-47.00,3.12,-4.44,1.00,74.70,5.36
40.00,2.00,284.00,-21.62,17.44,2.06,-2.12,-3.06,74.70,5.36
40.00,0.00,99.00,21.06,-143.69,-2.38,0.94,3.31,74.56,5.38
40.00,1.00,308.56,-8.75,-47.06,3.50,-5.19,0.81,74.56,5.38
40.00,2.00,284.06,-21.56,17.44,2.00,-2.38,-3.12,74.56,5.38
40.00,0.00,99.06,21.12,-143.62,-3.19,2.75,3.19,74.39,5.40
40.00,1.00,308.56,-8.69,-47.06,3.31,-5.69,0.75,74.39,5.40
40.00,2.00,284.19,-21.50,17.44,2.44,-2.25,-4.06,74.39,5.40
40.00,0.00,99.06,21.25,-143.44,-4.81,4.44,2.56,74.18,5.42
40.00,1.00,308.62,-8.56,-47.12,3.44,-6.06,0.81,74.18,5.42
40.00,2.00,284.25,-21.44,17.44,2.31,-1.94,-4.31,74.18,5.42
