Iteration,IMUNo,OrientationX (deg),OrientationY,OrientationZ,GyroX (20rad/sec),GyroY,GyroZ,Elbow_Pos (rad),Time (sec)
5.00,0.00,264.31,1.69,-102.31,-0.12,1.69,0.44,0.02,1.02
5.00,1.00,274.69,-6.38,-51.62,-3.12,-3.25,1.12,0.02,1.02
5.00,2.00,284.75,-22.06,21.38,-0.94,-1.31,-2.44,0.02,1.02
5.00,0.00,264.25,1.69,-102.31,0.25,0.56,1.12,0.03,1.04
5.00,1.00,274.75,-6.31,-51.56,-0.94,-3.00,0.12,0.03,1.04
5.00,2.00,284.81,-22.00,21.44,-0.12,-0.94,-1.81,0.03,1.04
5.00,0.00,264.25,1.69,-102.31,0.81,-0.38,1.56,0.02,1.06
5.00,1.00,274.75,-6.31,-51.50,-1.94,-3.44,-0.06,0.02,1.06
5.00,2.00,284.88,-22.00,21.44,1.19,0.25,-2.75,0.02,1.06
5.00,0.00,264.25,1.75,-102.31,0.75,-1.19,1.62,0.02,1.08
5.00,1.00,274.81,-6.25,-51.44,-2.00,-4.00,-0.31,0.02,1.08
5.00,2.00,284.94,-21.94,21.50,1.00,0.50,-3.00,0.02,1.08
5.00,0.00,264.25,1.75,-102.38,0.94,-1.19,1.69,0.01,1.10
5.00,1.00,274.81,-6.19,-51.44,-1.00,-3.69,-0.31,0.01,1.10
5.00,2.00,285.00,-21.94,21.50,1.31,0.25,-3.38,0.01,1.10
5.00,0.00,264.25,1.75,-102.38,0.38,-1.25,1.62,-0.02,1.12
5.00,1.00,274.88,-6.19,-51.38,-1.12,-3.69,0.06,-0.02,1.12
5.00,2.00,285.06,-21.94,21.50,1.19,-0.31,-3.25,-0.02,1.12
5.00,0.00,264.25,1.81,-102.38,0.06,-1.12,1.62,-0.04,1.14
5.00,1.00,274.88,-6.12,-51.38,-1.19,-3.88,0.00,-0.04,1.14
5.00,2.00,285.12,-21.88,21.50,0.69,-0.56,-3.44,-0.04,1.14
5.00,0.00,264.25,1.81,-102.38,0.00,-1.56,1.50,-0.04,1.16
5.00,1.00,274.94,-6.06,-51.38,-0.50,-3.12,-0.44,-0.04,1.16
5.00,2.00,285.19,-21.88,21.50,0.19,-0.12,-3.31,-0.04,1.16
5.00,0.00,264.25,1.88,-102.38,0.12,-1.75,1.19,-0.02,1.18
5.00,1.00,274.94,-6.06,-51.31,-1.44,-2.62,0.00,-0.02,1.18
5.00,2.00,285.25,-21.88,21.56,-0.75,0.00,-3.06,-0.02,1.18
5.00,0.00,264.25,1.88,-102.38,-0.12,-2.00,0.88,0.01,1.20
5.00,1.00,275.00,-6.00,-51.31,-2.06,-3.00,0.69,0.01,1.20
5.00,2.00,285.31,-21.81,21.56,-1.00,-0.56,-2.88,0.01,1.20
5.00,0.00,264.31,1.88,-102.38,-0.81,-1.75,0.56,0.01,1.22
5.00,1.00,275.00,-6.00,-51.25,-0.94,-2.44,0.31,0.01,1.22
5.00,2.00,285.31,-21.81,21.62,-0.75,-0.75,-2.94,0.01,1.22
5.00,0.00,264.38,1.88,-102.31,-0.94,-1.19,0.75,0.01,1.24
5.00,1.00,275.00,-5.94,-51.25,-0.56,-1.56,0.38,0.01,1.24
5.00,2.00,285.38,-21.81,21.62,-0.88,0.12,-2.62,0.01,1.24
5.00,0.00,264.38,1.88,-102.31,-0.56,-1.06,1.12,0.08,1.26
5.00,1.00,275.00,-5.94,-51.25,-1.12,-0.44,0.62,0.08,1.26
5.00,2.00,285.44,-21.75,21.69,-3.06,1.00,-2.06,0.08,1.26
5.00,0.00,264.38,1.88,-102.31,-0.25,-1.19,1.19,0.19,1.28
5.00,1.00,275.00,-5.88,-51.25,-2.75,0.38,0.94,0.19,1.28
5.00,2.00,285.44,-21.81,21.81,-4.44,0.88,-1.50,0.19,1.28
5.00,0.00,264.38,1.88,-102.38,-0.12,-1.31,0.62,0.32,1.30
5.00,1.00,274.94,-5.88,-51.12,-3.94,-0.06,0.75,0.32,1.30
5.00,2.00,285.44,-21.75,21.88,-4.62,0.19,-0.62,0.32,1.30
5.00,0.00,264.38,1.88,-102.38,0.00,-1.69,-0.69,0.44,1.32
5.00,1.00,274.94,-5.88,-51.06,-2.94,0.81,0.31,0.44,1.32
5.00,2.00,285.44,-21.81,21.94,-4.31,-0.38,0.31,0.44,1.32
5.00,0.00,264.44,1.88,-102.38,0.06,-1.81,-0.69,0.56,1.34
5.00,1.00,274.94,-5.94,-51.06,-1.06,1.88,0.19,0.56,1.34
5.00,2.00,285.38,-21.81,22.06,-4.25,-0.31,1.31,0.56,1.34
5.00,0.00,264.44,1.88,-102.44,0.81,0.06,0.62,0.67,1.36
5.00,1.00,274.88,-5.94,-51.06,-0.56,2.31,-0.12,0.67,1.36
5.00,2.00,285.31,-21.81,22.06,-3.06,-0.06,1.94,0.67,1.36
5.00,0.00,264.38,1.94,-102.50,2.12,1.81,1.50,0.79,1.38
5.00,1.00,274.88,-5.94,-51.06,-1.31,2.31,0.50,0.79,1.38
5.00,2.00,285.31,-21.81,22.12,-2.25,-0.50,2.19,0.79,1.38
5.00,0.00,264.25,2.00,-102.56,2.75,2.62,1.62,0.94,1.40
5.00,1.00,274.88,-6.00,-51.00,-2.19,2.00,0.81,0.94,1.40
5.00,2.00,285.25,-21.81,22.12,-2.38,-1.81,2.00,0.94,1.40
5.00,0.00,264.06,2.12,-102.69,3.50,4.38,1.88,1.09,1.42
5.00,1.00,274.81,-6.00,-51.00,-1.62,2.62,0.69,1.09,1.42
5.00,2.00,285.19,-21.81,22.12,-2.00,-2.75,2.94,1.09,1.42
5.00,0.00,263.88,2.19,-102.75,4.38,5.69,2.50,1.30,1.44
5.00,1.00,274.75,-6.00,-50.94,-0.75,3.06,0.88,1.30,1.44
5.00,2.00,285.06,-21.81,22.19,-3.00,-3.00,4.19,1.30,1.44
5.00,0.00,263.56,2.31,-102.94,4.62,6.75,3.38,1.55,1.46
5.00,1.00,274.69,-6.06,-51.00,0.25,3.88,1.25,1.55,1.46
5.00,2.00,284.94,-21.75,22.19,-4.25,-2.62,3.94,1.55,1.46
5.00,0.00,263.31,2.44,-103.06,6.56,7.62,4.06,1.87,1.48
5.00,1.00,274.62,-6.06,-51.00,-0.38,3.88,1.19,1.87,1.48
5.00,2.00,284.88,-21.75,22.25,-4.88,-3.62,1.19,1.87,1.48
5.00,0.00,262.94,2.56,-103.25,9.56,9.81,4.25,2.20,1.50
5.00,1.00,274.62,-6.12,-51.00,-1.62,2.50,0.69,2.20,1.50
5.00,2.00,284.81,-21.69,22.31,-2.38,-3.56,0.94,2.20,1.50
5.00,0.00,262.56,2.75,-103.50,12.94,11.81,3.56,2.56,1.52
5.00,1.00,274.56,-6.12,-50.94,-1.19,1.94,-0.25,2.56,1.52
5.00,2.00,284.81,-21.62,22.31,0.31,-2.38,1.56,2.56,1.52
5.00,0.00,262.19,2.88,-103.81,16.06,12.69,4.19,3.03,1.54
5.00,1.00,274.56,-6.12,-50.94,-1.31,2.56,-0.31,3.03,1.54
5.00,2.00,284.75,-21.62,22.31,-0.69,-2.12,3.00,3.03,1.54
5.00,0.00,261.75,3.00,-104.12,18.50,11.25,5.06,3.62,1.56
5.00,1.00,274.50,-6.19,-50.94,0.19,3.50,0.19,3.62,1.56
5.00,2.00,284.69,-21.62,22.31,-2.62,-1.88,3.88,3.62,1.56
5.00,0.00,261.38,3.12,-104.50,20.81,8.38,5.88,4.26,1.58
5.00,1.00,274.50,-6.25,-50.94,-0.31,3.44,0.25,4.26,1.58
5.00,2.00,284.56,-21.62,22.31,-2.00,-1.50,4.56,4.26,1.58
5.00,0.00,261.00,3.31,-105.00,22.88,9.12,7.19,4.93,1.60
5.00,1.00,274.50,-6.25,-50.94,-1.31,2.69,-0.12,4.93,1.60
5.00,2.00,284.44,-21.62,22.31,-0.94,-0.44,5.00,4.93,1.60
5.00,0.00,260.56,3.50,-105.44,23.56,10.25,7.50,5.61,1.62
5.00,1.00,274.44,-6.31,-50.88,-2.12,3.31,-0.44,5.61,1.62
5.00,2.00,284.31,-21.69,22.25,-0.81,-0.50,6.12,5.61,1.62
5.00,0.00,260.12,3.69,-105.94,24.00,8.81,7.88,6.33,1.64
5.00,1.00,274.44,-6.38,-50.88,-1.81,4.06,-0.25,6.33,1.64
5.00,2.00,284.19,-21.75,22.19,-1.56,-1.62,7.25,6.33,1.64
5.00,0.00,259.75,3.88,-106.44,25.06,7.12,8.81,7.09,1.66
5.00,1.00,274.38,-6.44,-50.81,-2.12,5.00,0.50,7.09,1.66
5.00,2.00,284.00,-21.75,22.19,-2.25,-2.50,8.69,7.09,1.66
5.00,0.00,259.38,4.12,-107.00,27.62,3.62,11.25,7.92,1.68
5.00,1.00,274.31,-6.50,-50.75,-1.69,5.00,0.88,7.92,1.68
5.00,2.00,283.81,-21.81,22.12,-1.81,-2.25,9.81,7.92,1.68
5.00,0.00,259.06,4.38,-107.56,30.44,0.75,13.75,8.86,1.70
5.00,1.00,274.25,-6.50,-50.75,-1.25,5.75,1.06,8.86,1.70
5.00,2.00,283.56,-21.81,22.12,-3.31,-1.44,10.75,8.86,1.70
5.00,0.00,258.69,4.62,-108.19,30.88,0.38,13.81,9.83,1.72
5.00,1.00,274.12,-6.62,-50.75,-1.75,6.19,1.12,9.83,1.72
5.00,2.00,283.31,-21.88,22.06,-3.69,-2.00,11.12,9.83,1.72
5.00,0.00,258.38,4.88,-108.81,30.94,0.69,13.00,10.77,1.74
5.00,1.00,274.12,-6.62,-50.75,-1.62,6.44,0.88,10.77,1.74
5.00,2.00,283.12,-21.94,22.06,-2.31,-2.25,11.12,10.77,1.74
5.00,0.00,258.00,5.12,-109.38,30.75,1.31,13.38,11.67,1.76
5.00,1.00,273.94,-6.75,-50.75,-1.19,7.88,0.69,11.67,1.76
5.00,2.00,282.88,-21.94,22.00,-1.56,-2.75,10.44,11.67,1.76
5.00,0.00,257.62,5.38,-110.00,31.25,1.25,14.75,12.61,1.78
5.00,1.00,273.88,-6.81,-50.69,-1.06,8.12,1.00,12.61,1.78
5.00,2.00,282.62,-22.00,21.94,-2.19,-2.81,11.25,12.61,1.78
5.00,0.00,257.19,5.69,-110.62,34.12,0.62,17.25,13.63,1.80
5.00,1.00,273.81,-6.88,-50.69,-0.75,8.00,1.12,13.63,1.80
5.00,2.00,282.38,-22.00,21.88,-2.31,-3.62,12.12,13.63,1.80
5.00,0.00,256.69,6.00,-111.38,36.00,0.62,18.25,14.69,1.82
5.00,1.00,273.69,-7.00,-50.69,-0.69,8.94,1.25,14.69,1.82
5.00,2.00,282.12,-22.06,21.81,-1.62,-3.31,12.69,14.69,1.82
5.00,0.00,256.25,6.31,-112.06,35.06,0.50,16.38,15.70,1.84
5.00,1.00,273.62,-7.06,-50.75,-0.81,9.56,1.75,15.70,1.84
5.00,2.00,281.88,-22.06,21.69,-1.00,-4.19,12.19,15.70,1.84
5.00,0.00,255.81,6.62,-112.69,33.06,1.00,15.50,16.68,1.86
5.00,1.00,273.38,-7.19,-50.69,-3.81,10.12,2.56,16.68,1.86
5.00,2.00,281.56,-22.06,21.62,-1.94,-5.25,12.88,16.68,1.86
5.00,0.00,255.31,6.94,-113.38,32.94,1.81,17.38,17.76,1.88
5.00,1.00,273.25,-7.25,-50.62,-4.75,9.56,3.69,17.76,1.88
5.00,2.00,281.25,-22.06,21.56,-5.56,-7.38,16.56,17.76,1.88
5.00,0.00,254.75,7.25,-114.00,33.19,4.06,18.75,18.92,1.90
5.00,1.00,273.12,-7.31,-50.56,-4.31,10.25,3.69,18.92,1.90
5.00,2.00,280.81,-22.06,21.56,-8.06,-8.75,18.56,18.92,1.90
5.00,0.00,254.06,7.62,-114.69,32.44,5.12,18.81,20.03,1.92
5.00,1.00,272.94,-7.38,-50.56,-4.06,11.12,4.19,20.03,1.92
5.00,2.00,280.38,-22.00,21.56,-7.31,-10.00,19.50,20.03,1.92
5.00,0.00,253.38,8.06,-115.31,32.69,5.19,20.00,21.10,1.94
5.00,1.00,272.75,-7.44,-50.50,-4.19,10.81,4.81,21.10,1.94
5.00,2.00,279.94,-21.94,21.50,-5.44,-9.69,18.88,21.10,1.94
5.00,0.00,252.62,8.44,-115.94,32.19,6.44,20.31,22.13,1.96
5.00,1.00,272.56,-7.50,-50.44,-4.25,11.00,5.44,22.13,1.96
5.00,2.00,279.56,-21.94,21.44,-4.44,-8.50,17.88,22.13,1.96
5.00,0.00,251.88,8.88,-116.56,32.44,6.50,20.19,23.16,1.98
5.00,1.00,272.38,-7.56,-50.38,-4.88,11.06,4.62,23.16,1.98
5.00,2.00,279.19,-21.94,21.38,-4.25,-7.62,17.44,23.16,1.98
5.00,0.00,251.12,9.25,-117.25,33.56,5.94,20.25,24.21,2.00
5.00,1.00,272.19,-7.62,-50.31,-4.56,11.75,4.69,24.21,2.00
5.00,2.00,278.81,-21.88,21.31,-4.19,-7.50,17.94,24.21,2.00
5.00,0.00,250.38,9.62,-117.88,33.94,5.12,20.12,25.28,2.02
5.00,1.00,271.94,-7.75,-50.31,-2.94,12.25,4.38,25.28,2.02
5.00,2.00,278.38,-21.88,21.25,-4.12,-7.75,18.44,25.28,2.02
5.00,0.00,249.69,10.00,-118.56,34.75,4.38,19.19,26.35,2.04
5.00,1.00,271.75,-7.81,-50.25,-2.25,12.25,4.56,26.35,2.04
5.00,2.00,278.00,-21.88,21.19,-3.25,-7.75,17.94,26.35,2.04
5.00,0.00,249.00,10.31,-119.25,35.75,4.00,18.38,27.40,2.06
5.00,1.00,271.56,-7.88,-50.25,-2.12,11.75,4.31,27.40,2.06
5.00,2.00,277.62,-21.88,21.06,-1.88,-7.81,17.25,27.40,2.06
5.00,0.00,248.38,10.62,-119.94,35.44,3.75,17.25,28.42,2.08
5.00,1.00,271.38,-8.00,-50.25,-3.06,10.56,4.38,28.42,2.08
5.00,2.00,277.25,-21.81,20.94,-0.88,-6.88,17.12,28.42,2.08
5.00,0.00,247.75,10.88,-120.69,35.62,3.00,16.38,29.45,2.10
5.00,1.00,271.19,-8.06,-50.19,-3.44,10.12,4.06,29.45,2.10
5.00,2.00,276.94,-21.81,20.81,-1.00,-6.19,16.69,29.45,2.10
5.00,0.00,247.06,11.19,-121.38,35.56,3.25,15.88,30.52,2.12
5.00,1.00,271.06,-8.12,-50.19,-4.12,9.88,3.31,30.52,2.12
5.00,2.00,276.56,-21.81,20.69,-2.69,-6.50,17.12,30.52,2.12
5.00,0.00,246.44,11.44,-122.06,36.44,3.25,15.62,31.61,2.14
5.00,1.00,270.88,-8.19,-50.12,-3.69,10.00,3.44,31.61,2.14
5.00,2.00,276.19,-21.81,20.62,-2.44,-6.75,17.69,31.61,2.14
5.00,0.00,245.81,11.69,-122.69,35.25,4.56,14.44,32.64,2.16
5.00,1.00,270.75,-8.25,-50.06,-3.12,9.38,3.00,32.64,2.16
5.00,2.00,275.81,-21.81,20.50,-1.38,-6.19,17.69,32.64,2.16
5.00,0.00,245.19,11.88,-123.25,33.38,5.12,12.25,33.59,2.18
5.00,1.00,270.56,-8.38,-50.06,-2.56,11.25,2.94,33.59,2.18
5.00,2.00,275.50,-21.88,20.38,-0.69,-5.44,16.56,33.59,2.18
5.00,0.00,244.50,12.12,-123.88,32.44,4.81,11.25,34.55,2.20
5.00,1.00,270.44,-8.44,-50.00,-4.38,10.50,2.62,34.55,2.20
5.00,2.00,275.12,-21.88,20.31,-1.75,-5.12,16.62,34.55,2.20
5.00,0.00,243.88,12.38,-124.50,32.00,5.25,10.62,35.52,2.22
5.00,1.00,270.25,-8.56,-49.94,-4.44,11.25,2.38,35.52,2.22
5.00,2.00,274.75,-21.88,20.19,-2.62,-5.44,16.75,35.52,2.22
5.00,0.00,243.12,12.56,-125.12,30.94,6.88,9.50,36.46,2.24
5.00,1.00,270.06,-8.69,-49.94,-3.38,12.50,2.12,36.46,2.24
5.00,2.00,274.44,-21.88,20.12,-2.62,-6.25,17.06,36.46,2.24
5.00,0.00,242.44,12.81,-125.69,30.56,7.44,9.06,37.35,2.26
5.00,1.00,269.94,-8.81,-49.94,-2.44,13.50,2.44,37.35,2.26
5.00,2.00,274.06,-21.88,20.00,-1.19,-5.69,17.31,37.35,2.26
5.00,0.00,241.69,13.00,-126.19,28.94,8.19,9.19,38.21,2.28
5.00,1.00,269.75,-8.94,-49.88,-5.25,9.69,2.81,38.21,2.28
5.00,2.00,273.69,-21.88,19.88,-1.69,-6.19,18.12,38.21,2.28
5.00,0.00,240.94,13.25,-126.69,26.56,9.56,8.25,39.03,2.30
5.00,1.00,269.56,-9.00,-49.81,-2.88,14.81,3.69,39.03,2.30
5.00,2.00,273.31,-21.88,19.75,-2.69,-7.12,18.88,39.03,2.30
5.00,0.00,240.19,13.50,-127.12,26.19,10.12,7.88,39.85,2.32
5.00,1.00,269.38,-9.19,-49.81,-1.69,14.81,2.44,39.85,2.32
5.00,2.00,272.88,-21.88,19.69,-2.81,-7.75,18.62,39.85,2.32
5.00,0.00,239.38,13.75,-127.69,27.12,9.00,8.38,40.66,2.34
5.00,1.00,269.19,-9.25,-49.75,-5.19,11.56,4.31,40.66,2.34
5.00,2.00,272.56,-21.81,19.56,-1.81,-7.06,17.25,40.66,2.34
5.00,0.00,238.62,13.94,-128.19,27.06,6.88,9.00,41.44,2.36
5.00,1.00,269.00,-9.38,-49.75,-2.75,13.69,3.69,41.44,2.36
5.00,2.00,272.19,-21.81,19.44,-0.69,-6.00,17.06,41.44,2.36
5.00,0.00,238.06,14.12,-128.56,24.31,6.19,8.00,42.14,2.38
5.00,1.00,268.81,-9.50,-49.75,-2.50,14.81,3.12,42.14,2.38
5.00,2.00,271.81,-21.81,19.31,-0.88,-5.56,17.19,42.14,2.38
5.00,0.00,237.62,14.19,-128.88,21.12,4.69,5.81,42.80,2.40
5.00,1.00,268.56,-9.62,-49.75,-3.38,13.38,4.12,42.80,2.40
5.00,2.00,271.44,-21.81,19.25,-2.38,-7.00,17.38,42.80,2.40
5.00,0.00,237.25,14.31,-129.25,19.94,2.56,5.06,43.43,2.42
5.00,1.00,268.38,-9.69,-49.69,-3.81,12.56,5.25,43.43,2.42
5.00,2.00,271.12,-21.81,19.12,-2.50,-7.00,16.88,43.43,2.42
5.00,0.00,236.81,14.38,-129.62,19.81,1.56,5.75,44.03,2.44
5.00,1.00,268.12,-9.81,-49.69,-4.25,13.25,5.56,44.03,2.44
5.00,2.00,270.75,-21.81,19.06,-1.50,-5.69,16.50,44.03,2.44
5.00,0.00,236.38,14.50,-130.00,18.06,2.00,5.44,44.59,2.46
5.00,1.00,267.88,-9.88,-49.62,-4.31,14.12,5.25,44.59,2.46
5.00,2.00,270.38,-21.81,18.94,-1.81,-5.44,17.50,44.59,2.46
5.00,0.00,235.94,14.62,-130.31,15.50,5.88,3.62,45.10,2.48
5.00,1.00,267.62,-10.00,-49.62,-2.50,16.81,4.94,45.10,2.48
5.00,2.00,270.06,-21.81,18.88,-2.94,-5.94,16.94,45.10,2.48
5.00,0.00,235.31,14.75,-130.56,15.56,8.94,3.81,45.62,2.50
5.00,1.00,267.38,-10.12,-49.69,-0.50,15.88,4.62,45.62,2.50
5.00,2.00,269.69,-21.81,18.75,-3.00,-5.94,16.56,45.62,2.50
5.00,0.00,234.62,15.00,-130.81,16.19,10.38,5.75,46.18,2.52
5.00,1.00,267.12,-10.31,-49.69,-0.06,16.06,5.31,46.18,2.52
5.00,2.00,269.38,-21.75,18.75,-3.62,-5.12,15.62,46.18,2.52
5.00,0.00,233.88,15.25,-131.06,16.50,11.06,8.31,46.75,2.54
5.00,1.00,266.88,-10.44,-49.75,-0.44,16.06,4.81,46.75,2.54
5.00,2.00,269.00,-21.75,18.69,-3.88,-4.00,15.00,46.75,2.54
5.00,0.00,233.06,15.50,-131.31,15.44,11.50,9.31,47.31,2.56
5.00,1.00,266.69,-10.50,-49.69,-6.38,10.44,6.31,47.31,2.56
5.00,2.00,268.75,-21.81,18.69,-4.38,-4.00,14.06,47.31,2.56
5.00,0.00,232.25,15.81,-131.56,13.38,11.94,8.25,47.83,2.58
5.00,1.00,266.44,-10.56,-49.62,-3.69,12.88,5.38,47.83,2.58
5.00,2.00,268.44,-21.81,18.69,-5.38,-4.12,14.31,47.83,2.58
5.00,0.00,231.44,16.06,-131.69,11.81,12.56,6.81,48.28,2.60
5.00,1.00,266.25,-10.69,-49.62,-3.69,12.62,4.31,48.28,2.60
5.00,2.00,268.12,-21.81,18.69,-4.25,-3.94,12.88,48.28,2.60
5.00,0.00,230.75,16.31,-131.88,11.31,12.12,6.38,48.69,2.62
5.00,1.00,266.06,-10.69,-49.56,-6.44,8.62,5.44,48.69,2.62
5.00,2.00,267.88,-21.81,18.69,-3.06,-3.44,11.81,48.69,2.62
5.00,0.00,230.00,16.56,-132.06,13.19,10.19,7.69,49.16,2.64
5.00,1.00,265.81,-10.75,-49.50,-4.69,9.69,5.25,49.16,2.64
5.00,2.00,267.62,-21.75,18.69,-3.75,-4.25,12.19,49.16,2.64
5.00,0.00,229.62,16.69,-132.19,13.44,10.00,9.62,49.68,2.66
5.00,1.00,265.62,-10.81,-49.50,-3.31,11.06,4.88,49.68,2.66
5.00,2.00,267.38,-21.75,18.69,-5.06,-5.00,12.44,49.68,2.66
5.00,0.00,228.94,16.94,-132.38,12.00,9.62,9.12,50.14,2.68
5.00,1.00,265.44,-10.88,-49.44,-4.38,9.38,5.19,50.14,2.68
5.00,2.00,267.06,-21.75,18.69,-4.56,-4.88,12.31,50.14,2.68
5.00,0.00,228.25,17.19,-132.50,12.69,7.94,10.19,50.60,2.70
5.00,1.00,265.25,-10.94,-49.38,-3.12,8.81,4.31,50.60,2.70
5.00,2.00,266.81,-21.75,18.69,-3.44,-3.19,12.00,50.60,2.70
5.00,0.00,227.56,17.44,-132.81,13.75,5.94,11.75,51.10,2.72
5.00,1.00,265.12,-11.00,-49.38,-3.88,9.19,4.12,51.10,2.72
5.00,2.00,266.62,-21.75,18.69,-4.38,-2.94,10.00,51.10,2.72
5.00,0.00,226.88,17.69,-133.06,14.25,3.88,13.00,51.63,2.74
5.00,1.00,264.94,-11.06,-49.31,-3.81,9.75,4.06,51.63,2.74
5.00,2.00,266.38,-21.75,18.69,-4.44,-4.12,9.38,51.63,2.74
5.00,0.00,226.25,17.88,-133.38,13.19,3.38,12.88,52.10,2.76
5.00,1.00,264.81,-11.12,-49.25,-5.00,8.06,3.44,52.10,2.76
5.00,2.00,266.19,-21.75,18.69,-3.62,-1.81,9.56,52.10,2.76
5.00,0.00,225.81,18.06,-133.56,9.06,3.12,10.38,52.46,2.78
5.00,1.00,264.62,-11.19,-49.19,-5.56,7.38,3.00,52.46,2.78
5.00,2.00,266.00,-21.75,18.69,-3.94,-2.06,10.00,52.46,2.78
5.00,0.00,225.31,18.25,-133.75,7.25,4.12,9.25,52.82,2.80
5.00,1.00,264.50,-11.25,-49.12,-3.12,11.62,2.88,52.82,2.80
5.00,2.00,265.75,-21.75,18.69,-5.25,-2.62,10.50,52.82,2.80
5.00,0.00,224.88,18.44,-133.88,2.81,4.88,6.00,53.04,2.82
5.00,1.00,264.31,-11.31,-49.12,-4.88,8.88,2.25,53.04,2.82
5.00,2.00,265.50,-21.75,18.75,-5.31,-2.94,10.75,53.04,2.82
5.00,0.00,224.56,18.56,-133.88,4.88,2.50,8.38,53.34,2.84
5.00,1.00,264.19,-11.31,-49.00,-7.62,4.50,4.25,53.34,2.84
5.00,2.00,265.25,-21.75,18.75,-5.75,-2.69,10.31,53.34,2.84
5.00,0.00,224.19,18.75,-134.06,6.62,1.44,10.19,53.72,2.86
5.00,1.00,264.06,-11.38,-48.94,-4.94,8.94,2.62,53.72,2.86
5.00,2.00,265.06,-21.75,18.81,-6.75,-3.69,10.25,53.72,2.86
5.00,0.00,223.75,18.94,-134.25,7.50,3.81,11.69,54.08,2.88
5.00,1.00,263.94,-11.44,-48.81,-7.19,6.75,2.56,54.08,2.88
5.00,2.00,264.81,-21.75,18.88,-5.44,-2.56,9.75,54.08,2.88
5.00,0.00,223.25,19.12,-134.44,7.00,5.56,10.38,54.40,2.90
5.00,1.00,263.81,-11.50,-48.69,-5.38,7.69,2.50,54.40,2.90
5.00,2.00,264.62,-21.81,18.94,-4.38,-0.94,8.88,54.40,2.90
5.00,0.00,222.69,19.31,-134.50,4.38,5.81,7.50,54.67,2.92
5.00,1.00,263.69,-11.62,-48.62,-5.50,7.94,1.81,54.67,2.92
5.00,2.00,264.44,-21.81,19.00,-5.50,-1.12,8.69,54.67,2.92
5.00,0.00,222.38,19.50,-134.56,1.69,6.12,5.56,54.83,2.94
5.00,1.00,263.56,-11.69,-48.56,-6.12,6.25,1.94,54.83,2.94
5.00,2.00,264.25,-21.81,19.06,-3.94,-0.62,8.69,54.83,2.94
5.00,0.00,222.19,19.56,-134.44,0.50,6.44,3.94,54.91,2.96
5.00,1.00,263.50,-11.75,-48.44,-4.38,7.06,1.06,54.91,2.96
5.00,2.00,264.12,-21.88,19.06,-2.31,-0.69,8.06,54.91,2.96
5.00,0.00,222.19,19.62,-134.38,1.56,3.50,1.44,55.00,2.98
5.00,1.00,263.44,-11.81,-48.38,-4.88,6.25,0.81,55.00,2.98
5.00,2.00,263.94,-21.94,19.06,-1.56,-0.81,7.31,55.00,2.98
5.00,0.00,222.00,19.69,-134.50,6.31,-0.38,4.12,55.20,3.00
5.00,1.00,263.38,-11.94,-48.31,-3.44,7.19,-0.06,55.20,3.00
5.00,2.00,263.81,-21.94,19.00,-0.69,0.19,6.38,55.20,3.00
5.00,0.00,221.69,19.75,-134.62,6.81,1.69,5.50,55.42,3.02
5.00,1.00,263.31,-12.00,-48.31,-3.88,6.81,-0.75,55.42,3.02
5.00,2.00,263.69,-22.00,19.00,-1.12,1.00,6.25,55.42,3.02
5.00,0.00,221.38,19.88,-134.75,3.12,6.00,4.00,55.59,3.04
5.00,1.00,263.25,-12.12,-48.25,-3.62,6.19,-0.56,55.59,3.04
5.00,2.00,263.56,-22.00,19.00,-2.88,0.12,7.00,55.59,3.04
5.00,0.00,221.00,20.00,-134.69,-0.88,9.62,0.88,55.63,3.06
5.00,1.00,263.19,-12.19,-48.19,-2.12,6.12,-0.88,55.63,3.06
5.00,2.00,263.44,-22.06,19.00,-2.31,-1.00,6.31,55.63,3.06
5.00,0.00,220.69,20.12,-134.56,-1.06,8.69,0.12,55.63,3.08
5.00,1.00,263.12,-12.38,-48.19,-0.12,9.06,-1.06,55.63,3.08
5.00,2.00,263.31,-22.06,19.06,-1.12,-0.69,4.38,55.63,3.08
5.00,0.00,220.44,20.25,-134.56,1.00,4.81,2.62,55.69,3.10
5.00,1.00,263.12,-12.44,-48.19,-4.62,4.62,-0.75,55.69,3.10
5.00,2.00,263.25,-22.06,19.06,-1.06,0.12,3.50,55.69,3.10
5.00,0.00,220.12,20.38,-134.62,2.50,4.81,4.62,55.75,3.12
5.00,1.00,263.06,-12.50,-48.12,-2.94,4.81,-0.50,55.75,3.12
5.00,2.00,263.19,-22.06,19.06,0.38,1.31,2.56,55.75,3.12
5.00,0.00,219.81,20.50,-134.62,0.75,5.88,2.88,55.74,3.14
5.00,1.00,263.06,-12.62,-48.12,-0.62,6.44,-1.62,55.74,3.14
5.00,2.00,263.19,-22.12,19.06,1.12,2.12,1.31,55.74,3.14
5.00,0.00,219.62,20.56,-134.56,0.19,5.31,1.81,55.76,3.16
5.00,1.00,263.00,-12.69,-48.06,-3.88,2.38,-0.31,55.76,3.16
5.00,2.00,263.19,-22.19,19.06,-0.75,1.69,1.69,55.76,3.16
5.00,0.00,219.44,20.69,-134.50,0.25,3.88,2.56,55.86,3.18
5.00,1.00,263.00,-12.75,-48.00,-2.12,4.56,-0.69,55.86,3.18
5.00,2.00,263.12,-22.19,19.06,-3.12,-0.12,2.19,55.86,3.18
5.00,0.00,219.25,20.75,-134.50,0.88,3.69,3.25,55.97,3.20
5.00,1.00,263.00,-12.81,-47.94,-2.94,2.75,-0.88,55.97,3.20
5.00,2.00,263.06,-22.19,19.12,-3.31,-0.81,1.94,55.97,3.20
5.00,0.00,219.12,20.81,-134.50,1.38,3.31,3.00,56.06,3.22
5.00,1.00,263.00,-12.88,-47.88,-2.19,2.69,-0.88,56.06,3.22
5.00,2.00,263.00,-22.19,19.19,-1.56,-0.31,1.44,56.06,3.22
5.00,0.00,218.94,20.88,-134.50,1.62,2.31,2.56,56.09,3.24
5.00,1.00,263.00,-12.94,-47.88,-1.00,3.25,-1.56,56.09,3.24
5.00,2.00,263.00,-22.25,19.19,0.44,1.25,-0.12,56.09,3.24
5.00,0.00,218.88,20.94,-134.50,2.00,1.19,2.56,56.16,3.26
5.00,1.00,263.00,-13.06,-47.81,-1.56,3.12,-1.31,56.16,3.26
5.00,2.00,263.06,-22.25,19.19,-0.50,1.81,-0.50,56.16,3.26
5.00,0.00,218.81,20.94,-134.56,1.38,0.06,2.62,56.24,3.28
5.00,1.00,263.00,-13.12,-47.81,-2.38,2.44,-1.25,56.24,3.28
5.00,2.00,263.06,-22.25,19.25,-1.44,0.88,-0.12,56.24,3.28
5.00,0.00,218.81,20.94,-134.56,0.81,-0.81,2.62,56.31,3.30
5.00,1.00,263.00,-13.12,-47.75,-2.81,1.56,-1.06,56.31,3.30
5.00,2.00,263.06,-22.25,19.25,-1.69,-0.12,0.50,56.31,3.30
5.00,0.00,218.88,20.94,-134.56,-0.31,-1.00,1.50,56.37,3.32
5.00,1.00,263.00,-13.19,-47.69,-2.56,2.19,-1.12,56.37,3.32
5.00,2.00,263.00,-22.25,19.31,-2.56,0.62,0.31,56.37,3.32
5.00,0.00,218.94,20.94,-134.56,-0.69,-1.19,0.44,56.42,3.34
5.00,1.00,263.00,-13.19,-47.62,-4.81,0.06,-0.69,56.42,3.34
5.00,2.00,263.00,-22.25,19.38,-2.56,1.06,0.56,56.42,3.34
5.00,0.00,219.00,20.94,-134.50,-1.00,-1.44,0.00,56.45,3.36
5.00,1.00,263.00,-13.25,-47.56,-3.50,1.25,-1.56,56.45,3.36
5.00,2.00,263.00,-22.31,19.44,-1.88,1.56,0.69,56.45,3.36
5.00,0.00,219.12,20.94,-134.50,-1.44,-0.88,0.19,56.47,3.38
5.00,1.00,263.00,-13.31,-47.44,-3.56,1.50,-1.38,56.47,3.38
5.00,2.00,263.00,-22.31,19.50,-2.31,1.25,0.88,56.47,3.38
5.00,0.00,219.19,20.88,-134.50,-1.56,-0.69,0.31,56.49,3.40
5.00,1.00,263.00,-13.38,-47.38,-3.44,2.06,-1.31,56.49,3.40
5.00,2.00,262.94,-22.38,19.50,-2.00,1.50,1.31,56.49,3.40
5.00,0.00,219.19,20.88,-134.44,-1.50,0.38,0.19,56.50,3.42
5.00,1.00,263.00,-13.38,-47.31,-3.69,1.69,-1.25,56.50,3.42
5.00,2.00,262.94,-22.38,19.56,-2.00,1.44,1.31,56.50,3.42
5.00,0.00,219.19,20.94,-134.44,-1.31,1.38,-0.06,56.53,3.44
5.00,1.00,263.00,-13.44,-47.25,-2.56,3.50,-0.94,56.53,3.44
5.00,2.00,262.94,-22.38,19.62,-2.50,1.12,1.00,56.53,3.44
5.00,0.00,219.12,20.94,-134.38,-1.19,2.12,-0.38,56.55,3.46
5.00,1.00,263.00,-13.50,-47.25,-3.00,2.94,-0.69,56.55,3.46
5.00,2.00,262.88,-22.44,19.62,-1.94,1.50,1.44,56.55,3.46
5.00,0.00,219.06,20.94,-134.31,-1.56,2.38,-0.50,56.59,3.48
5.00,1.00,262.94,-13.56,-47.19,-3.06,2.62,-1.19,56.59,3.48
5.00,2.00,262.88,-22.50,19.69,-3.00,1.88,2.00,56.59,3.48
5.00,0.00,219.06,21.00,-134.31,-1.38,1.69,-0.25,56.63,3.50
5.00,1.00,262.94,-13.62,-47.12,-3.62,0.81,-1.12,56.63,3.50
5.00,2.00,262.81,-22.50,19.75,-2.69,2.00,2.38,56.63,3.50
5.00,0.00,219.00,21.00,-134.25,-0.12,1.44,-0.19,56.69,3.52
5.00,1.00,262.94,-13.62,-47.06,-0.62,3.06,-0.88,56.69,3.52
5.00,2.00,262.75,-22.56,19.81,-2.19,1.06,2.38,56.69,3.52
5.00,0.00,219.00,21.00,-134.25,0.44,1.06,-0.06,56.70,3.54
5.00,1.00,262.94,-13.69,-47.06,-2.31,2.19,-0.19,56.70,3.54
5.00,2.00,262.75,-22.56,19.81,0.00,1.31,1.31,56.70,3.54
5.00,0.00,219.00,21.00,-134.25,0.44,-0.38,0.19,56.73,3.56
5.00,1.00,262.94,-13.75,-47.00,-2.75,1.56,-0.44,56.73,3.56
5.00,2.00,262.69,-22.62,19.81,-0.75,1.19,1.19,56.73,3.56
5.00,0.00,219.00,21.00,-134.25,0.38,-0.62,0.12,56.81,3.58
5.00,1.00,262.94,-13.75,-46.94,-2.06,1.69,-1.19,56.81,3.58
5.00,2.00,262.69,-22.62,19.81,-2.38,0.00,2.06,56.81,3.58
5.00,0.00,219.06,21.00,-134.25,0.69,-1.00,0.12,56.87,3.60
5.00,1.00,262.94,-13.81,-46.94,-2.12,1.56,-0.94,56.87,3.60
5.00,2.00,262.62,-22.62,19.88,-1.31,1.44,1.00,56.87,3.60
5.00,0.00,219.12,20.94,-134.31,0.75,-2.25,-0.19,56.93,3.62
5.00,1.00,262.94,-13.88,-46.88,-1.75,1.75,-1.25,56.93,3.62
5.00,2.00,262.62,-22.69,19.88,-1.62,1.62,1.19,56.93,3.62
5.00,0.00,219.25,20.88,-134.31,0.94,-3.50,0.25,56.99,3.64
5.00,1.00,262.94,-13.88,-46.81,-1.75,1.69,-1.38,56.99,3.64
5.00,2.00,262.56,-22.69,19.94,-1.06,1.19,0.94,56.99,3.64
5.00,0.00,219.38,20.88,-134.38,0.81,-4.25,0.38,56.99,3.66
5.00,1.00,262.94,-13.94,-46.81,-1.00,2.44,-1.56,56.99,3.66
5.00,2.00,262.56,-22.69,19.94,0.69,0.75,1.00,56.99,3.66
5.00,0.00,219.50,20.81,-134.38,1.00,-4.25,-0.19,56.98,3.68
5.00,1.00,263.00,-14.00,-46.81,-1.38,2.31,-1.38,56.98,3.68
5.00,2.00,262.56,-22.75,19.88,1.62,1.06,0.69,56.98,3.68
5.00,0.00,219.69,20.75,-134.44,0.44,-3.75,-0.50,57.00,3.70
5.00,1.00,263.00,-14.06,-46.75,-1.25,1.94,-1.12,57.00,3.70
5.00,2.00,262.56,-22.75,19.88,-0.25,0.94,1.12,57.00,3.70
5.00,0.00,219.81,20.69,-134.44,1.25,-4.12,-0.19,57.06,3.72
5.00,1.00,263.00,-14.12,-46.75,-1.19,1.44,-1.38,57.06,3.72
5.00,2.00,262.56,-22.75,19.94,-1.19,0.00,0.88,57.06,3.72
5.00,0.00,219.88,20.69,-134.44,1.56,-1.50,1.25,57.11,3.74
5.00,1.00,263.00,-14.12,-46.69,-1.38,1.19,-1.50,57.11,3.74
5.00,2.00,262.50,-22.75,19.94,0.00,0.81,0.69,57.11,3.74
5.00,0.00,219.94,20.62,-134.44,1.31,-1.69,0.12,57.13,3.76
5.00,1.00,263.06,-14.19,-46.69,-1.31,0.75,-1.75,57.13,3.76
5.00,2.00,262.56,-22.81,19.94,0.62,1.50,0.00,57.13,3.76
5.00,0.00,220.06,20.62,-134.44,1.12,-2.31,-1.06,57.17,3.78
5.00,1.00,263.06,-14.25,-46.62,-0.12,0.69,-1.56,57.17,3.78
5.00,2.00,262.56,-22.81,19.94,-0.44,1.19,0.06,57.17,3.78
5.00,0.00,220.12,20.56,-134.44,1.06,-1.12,-1.00,57.22,3.80
5.00,1.00,263.12,-14.31,-46.62,-0.81,-0.56,-0.12,57.22,3.80
5.00,2.00,262.56,-22.88,20.00,-0.88,1.50,-0.56,57.22,3.80
5.00,0.00,220.12,20.56,-134.38,0.62,0.62,-1.00,57.29,3.82
5.00,1.00,263.12,-14.31,-46.56,-0.69,-0.06,-0.12,57.29,3.82
5.00,2.00,262.56,-22.88,20.06,-1.88,0.19,-0.56,57.29,3.82
5.00,0.00,220.12,20.56,-134.38,0.56,0.75,-1.31,57.33,3.84
5.00,1.00,263.12,-14.31,-46.56,-0.94,-0.31,-0.31,57.33,3.84
5.00,2.00,262.56,-22.88,20.06,-0.69,1.00,-0.38,57.33,3.84
5.00,0.00,220.12,20.56,-134.38,0.19,0.81,-1.19,57.36,3.86
5.00,1.00,263.12,-14.31,-46.56,-0.25,-0.19,-0.12,57.36,3.86
5.00,2.00,262.56,-22.88,20.06,-0.75,0.50,-0.38,57.36,3.86
5.00,0.00,220.12,20.56,-134.38,-0.06,0.69,-0.69,57.37,3.88
5.00,1.00,263.12,-14.38,-46.50,0.44,-0.25,0.00,57.37,3.88
5.00,2.00,262.56,-22.88,20.12,-0.38,0.12,-1.00,57.37,3.88
5.00,0.00,220.12,20.56,-134.38,-0.38,0.12,-0.44,57.36,3.90
5.00,1.00,263.12,-14.38,-46.50,0.75,-0.38,0.25,57.36,3.90
5.00,2.00,262.56,-22.88,20.12,-0.19,0.44,-0.81,57.36,3.90
5.00,0.00,220.19,20.50,-134.31,-0.38,0.44,-0.19,57.37,3.92
5.00,1.00,263.12,-14.38,-46.50,0.56,-0.25,0.25,57.37,3.92
5.00,2.00,262.62,-22.88,20.12,-0.56,-0.06,-1.00,57.37,3.92
5.00,0.00,220.12,20.56,-134.31,-0.06,0.94,0.38,57.35,3.94
5.00,1.00,263.12,-14.38,-46.50,0.06,-1.00,0.12,57.35,3.94
5.00,2.00,262.62,-22.81,20.19,0.38,0.06,-1.12,57.35,3.94
5.00,0.00,220.19,20.56,-134.25,-1.00,0.69,0.31,57.30,3.96
5.00,1.00,263.19,-14.38,-46.50,0.12,-1.56,0.38,57.30,3.96
5.00,2.00,262.69,-22.81,20.19,0.88,-0.50,-1.62,57.30,3.96
5.00,0.00,220.19,20.56,-134.19,-1.38,0.75,0.19,57.25,3.98
5.00,1.00,263.19,-14.38,-46.50,1.00,-2.00,1.25,57.25,3.98
5.00,2.00,262.69,-22.81,20.19,0.50,-0.69,-1.94,57.25,3.98
5.00,0.00,220.19,20.56,-134.12,-1.94,1.88,0.12,57.18,4.00
5.00,1.00,263.19,-14.31,-46.50,1.12,-2.25,1.19,57.18,4.00
5.00,2.00,262.75,-22.75,20.25,0.31,-0.62,-2.50,57.18,4.00
5.00,0.00,220.19,20.62,-134.00,-2.69,2.31,-0.25,57.07,4.02
5.00,1.00,263.19,-14.31,-46.50,1.31,-3.00,1.06,57.07,4.02
5.00,2.00,262.81,-22.75,20.25,1.38,0.00,-3.00,57.07,4.02
