Iteration,IMUNo,OrientationX (deg),OrientationY,OrientationZ,GyroX (20rad/sec),GyroY,GyroZ,Elbow_Pos (rad),Time (sec)
54.00,0.00,260.44,5.56,-93.50,0.00,1.19,0.50,0.00,1.00
54.00,1.00,332.06,-1.69,-52.25,0.94,-0.44,0.50,0.00,1.02
54.00,2.00,317.88,-19.00,20.69,0.12,-0.50,0.81,0.00,1.02
54.00,0.00,260.44,5.56,-93.50,-0.25,1.81,0.44,-0.01,1.02
54.00,1.00,332.06,-1.69,-52.25,0.56,-0.56,0.62,-0.01,1.02
54.00,2.00,317.88,-19.00,20.69,0.06,-0.88,1.19,-0.01,1.04
54.00,0.00,260.38,5.56,-93.50,-0.12,2.12,0.44,-0.02,1.04
54.00,1.00,332.06,-1.69,-52.25,0.75,-0.31,0.75,-0.02,1.04
54.00,2.00,317.88,-18.94,20.69,-0.06,-0.88,1.00,-0.02,1.06
54.00,0.00,260.31,5.56,-93.50,0.12,1.81,0.75,-0.03,1.06
54.00,1.00,332.00,-1.62,-52.25,0.81,0.00,0.62,-0.03,1.06
54.00,2.00,317.81,-18.94,20.69,0.38,-0.56,0.75,-0.03,1.06
54.00,0.00,260.25,5.56,-93.50,0.19,1.44,1.00,-0.04,1.08
54.00,1.00,332.00,-1.62,-52.25,0.88,-0.19,0.81,-0.04,1.08
54.00,2.00,317.81,-18.94,20.69,0.50,-0.81,0.69,-0.04,1.08
54.00,0.00,260.25,5.56,-93.50,-0.19,1.06,0.88,-0.06,1.10
54.00,1.00,332.00,-1.62,-52.25,0.88,-0.19,0.75,-0.06,1.10
54.00,2.00,317.81,-18.94,20.69,0.44,-1.06,0.62,-0.06,1.10
54.00,0.00,260.19,5.62,-93.50,-0.19,1.25,0.69,-0.05,1.12
54.00,1.00,332.00,-1.62,-52.25,0.62,-0.25,0.88,-0.05,1.12
54.00,2.00,317.81,-18.94,20.69,-0.38,-1.06,0.75,-0.05,1.12
54.00,0.00,260.19,5.62,-93.50,-0.19,1.62,0.62,-0.06,1.14
54.00,1.00,332.00,-1.62,-52.25,0.25,-0.12,0.56,-0.06,1.14
54.00,2.00,317.75,-18.94,20.69,0.00,-0.69,0.94,-0.06,1.14
54.00,0.00,260.12,5.62,-93.50,-0.50,2.06,0.56,-0.07,1.16
54.00,1.00,332.00,-1.62,-52.25,0.38,-0.12,0.44,-0.07,1.16
54.00,2.00,317.75,-18.88,20.69,-0.25,-0.88,1.06,-0.07,1.16
54.00,0.00,260.06,5.62,-93.50,-0.56,2.12,1.00,-0.09,1.18
54.00,1.00,332.00,-1.62,-52.25,0.31,-0.31,0.38,-0.09,1.18
54.00,2.00,317.75,-18.88,20.62,0.19,-0.50,0.75,-0.09,1.18
54.00,0.00,260.00,5.62,-93.50,-0.56,1.19,1.00,-0.11,1.20
54.00,1.00,332.00,-1.62,-52.25,0.25,-0.31,0.69,-0.11,1.20
54.00,2.00,317.75,-18.88,20.62,0.12,-0.62,0.62,-0.11,1.20
54.00,0.00,260.00,5.69,-93.50,-0.56,0.38,0.94,-0.12,1.22
54.00,1.00,331.94,-1.62,-52.25,-0.06,-0.06,0.75,-0.12,1.22
54.00,2.00,317.69,-18.88,20.62,-0.31,-0.81,0.69,-0.12,1.22
54.00,0.00,260.00,5.69,-93.50,-0.62,0.62,0.50,-0.12,1.24
54.00,1.00,331.94,-1.62,-52.25,-0.19,-0.38,0.50,-0.12,1.24
54.00,2.00,317.69,-18.88,20.62,-0.56,-1.06,0.88,-0.12,1.24
54.00,0.00,259.94,5.69,-93.44,-0.69,0.69,0.38,-0.15,1.26
54.00,1.00,331.94,-1.62,-52.19,0.19,-0.62,0.25,-0.15,1.26
54.00,2.00,317.69,-18.88,20.62,0.00,-0.69,0.75,-0.15,1.26
54.00,0.00,259.94,5.69,-93.44,-0.50,0.81,0.44,-0.18,1.28
54.00,1.00,331.94,-1.62,-52.19,0.06,-0.56,0.12,-0.18,1.28
54.00,2.00,317.69,-18.88,20.62,0.62,-0.19,0.31,-0.18,1.28
54.00,0.00,259.94,5.69,-93.44,-0.38,0.50,0.75,-0.21,1.30
54.00,1.00,331.94,-1.62,-52.19,0.19,-0.44,-0.06,-0.21,1.30
54.00,2.00,317.69,-18.88,20.62,0.25,-0.19,0.44,-0.21,1.30
54.00,0.00,259.88,5.69,-93.44,-0.19,0.69,0.88,-0.21,1.32
54.00,1.00,331.94,-1.62,-52.19,0.25,-0.31,-0.12,-0.21,1.32
54.00,2.00,317.69,-18.88,20.62,-0.19,-0.56,0.31,-0.21,1.32
54.00,0.00,259.88,5.75,-93.44,-0.38,0.31,0.56,-0.21,1.34
54.00,1.00,331.94,-1.62,-52.19,-0.12,-0.50,-0.12,-0.21,1.34
54.00,2.00,317.69,-18.88,20.62,-0.38,-0.38,0.19,-0.21,1.34
54.00,0.00,259.88,5.75,-93.44,-0.38,0.50,0.19,-0.21,1.36
54.00,1.00,332.00,-1.62,-52.19,0.12,-0.69,-0.12,-0.21,1.36
54.00,2.00,317.69,-18.88,20.62,-0.31,-0.31,0.19,-0.21,1.36
54.00,0.00,259.88,5.75,-93.44,-0.62,0.25,0.12,-0.23,1.38
54.00,1.00,332.00,-1.62,-52.19,-0.06,-0.69,-0.38,-0.23,1.38
54.00,2.00,317.69,-18.88,20.62,0.06,-0.25,-0.12,-0.23,1.38
54.00,0.00,259.88,5.75,-93.44,-0.38,0.25,0.19,-0.24,1.40
54.00,1.00,332.00,-1.56,-52.19,-0.06,-0.62,-0.50,-0.24,1.40
54.00,2.00,317.69,-18.88,20.62,0.00,0.12,-0.38,-0.24,1.40
54.00,0.00,259.88,5.75,-93.44,-0.25,-0.19,0.19,-0.25,1.42
54.00,1.00,332.00,-1.56,-52.12,-0.25,-0.56,-0.44,-0.25,1.42
54.00,2.00,317.69,-18.88,20.62,-0.19,0.00,-0.38,-0.25,1.42
54.00,0.00,259.88,5.75,-93.44,-0.38,0.12,0.25,-0.25,1.44
54.00,1.00,332.00,-1.56,-52.12,-0.31,-0.50,-0.38,-0.25,1.44
54.00,2.00,317.69,-18.88,20.62,-0.19,-0.12,-0.06,-0.25,1.44
54.00,0.00,259.88,5.75,-93.44,-0.38,0.62,0.25,-0.25,1.46
54.00,1.00,332.00,-1.56,-52.12,-0.31,-0.44,0.00,-0.25,1.46
54.00,2.00,317.69,-18.88,20.62,-0.56,-0.12,-0.25,-0.25,1.46
54.00,0.00,259.88,5.75,-93.44,-0.31,1.00,0.19,-0.20,1.48
54.00,1.00,332.00,-1.56,-52.12,-0.38,-0.31,0.19,-0.20,1.48
54.00,2.00,317.69,-18.88,20.69,-1.56,-0.06,0.31,-0.20,1.48
54.00,0.00,259.88,5.75,-93.44,-0.25,1.12,0.94,-0.09,1.50
54.00,1.00,332.00,-1.56,-52.12,-0.56,0.19,0.56,-0.09,1.50
54.00,2.00,317.62,-18.88,20.69,-3.50,0.19,0.38,-0.09,1.50
54.00,0.00,259.81,5.75,-93.44,0.44,1.94,1.31,0.10,1.52
54.00,1.00,332.00,-1.56,-52.12,-0.50,0.50,1.00,0.10,1.52
54.00,2.00,317.62,-18.88,20.81,-5.38,0.00,0.44,0.10,1.52
54.00,0.00,259.75,5.81,-93.44,1.25,2.56,1.25,0.33,1.54
54.00,1.00,332.00,-1.56,-52.06,-1.00,0.25,0.56,0.33,1.54
54.00,2.00,317.62,-18.88,20.94,-5.44,0.44,0.69,0.33,1.54
54.00,0.00,259.62,5.81,-93.50,4.81,5.12,1.38,0.60,1.56
54.00,1.00,332.00,-1.56,-52.06,-1.25,-0.69,-0.25,0.60,1.56
54.00,2.00,317.56,-18.88,21.00,-3.38,1.50,1.75,0.60,1.56
54.00,0.00,259.44,5.88,-93.62,6.69,5.75,3.50,0.85,1.58
54.00,1.00,332.00,-1.56,-52.00,-0.81,-0.75,-1.25,0.85,1.58
54.00,2.00,317.56,-18.94,21.00,-0.81,2.56,1.50,0.85,1.58
54.00,0.00,259.25,5.94,-93.81,7.56,4.94,5.00,1.15,1.60
54.00,1.00,332.00,-1.56,-52.00,-1.00,0.44,-1.12,1.15,1.60
54.00,2.00,317.50,-19.00,21.00,-1.19,0.69,2.50,1.15,1.60
54.00,0.00,259.06,6.06,-94.00,10.06,2.25,7.81,1.55,1.62
54.00,1.00,332.06,-1.62,-51.94,-1.94,1.44,-1.31,1.55,1.62
54.00,2.00,317.44,-19.00,21.00,-1.94,0.44,3.94,1.55,1.62
54.00,0.00,258.81,6.25,-94.25,10.81,1.94,7.75,2.01,1.64
54.00,1.00,332.06,-1.69,-51.88,-1.38,1.88,-0.88,2.01,1.64
54.00,2.00,317.31,-19.06,21.06,-2.94,0.19,4.00,2.01,1.64
54.00,0.00,258.62,6.38,-94.44,13.12,2.75,6.94,2.58,1.66
54.00,1.00,332.00,-1.69,-51.88,-0.81,1.56,0.00,2.58,1.66
54.00,2.00,317.25,-19.06,21.12,-3.69,-0.62,3.62,2.58,1.66
54.00,0.00,258.38,6.50,-94.75,16.12,4.44,8.06,3.24,1.68
54.00,1.00,332.00,-1.69,-51.88,-0.81,0.94,0.19,3.24,1.68
54.00,2.00,317.19,-19.06,21.12,-3.62,-1.12,2.62,3.24,1.68
54.00,0.00,258.06,6.69,-95.12,17.88,5.06,8.25,3.97,1.70
54.00,1.00,332.00,-1.75,-51.81,-0.69,0.06,0.06,3.97,1.70
54.00,2.00,317.12,-19.06,21.19,-3.75,-1.50,1.75,3.97,1.70
54.00,0.00,257.69,6.88,-95.56,20.81,8.12,7.94,4.82,1.72
54.00,1.00,332.00,-1.75,-51.81,-1.56,0.00,-0.06,4.82,1.72
54.00,2.00,317.06,-19.06,21.31,-4.56,-0.31,0.50,4.82,1.72
54.00,0.00,257.25,7.06,-96.06,22.50,10.62,8.81,5.64,1.74
54.00,1.00,332.00,-1.75,-51.75,-1.00,0.44,-0.44,5.64,1.74
54.00,2.00,317.06,-19.06,21.31,-2.00,0.69,2.00,5.64,1.74
54.00,0.00,256.69,7.31,-96.50,24.25,13.62,10.06,6.40,1.76
54.00,1.00,332.00,-1.75,-51.69,-1.06,0.50,-0.69,6.40,1.76
54.00,2.00,317.00,-19.12,21.31,1.62,1.25,4.69,6.40,1.76
54.00,0.00,256.12,7.56,-96.94,24.56,13.06,10.19,7.19,1.78
54.00,1.00,332.00,-1.75,-51.69,0.38,1.94,-0.12,7.19,1.78
54.00,2.00,316.88,-19.19,21.25,1.00,0.75,4.81,7.19,1.78
54.00,0.00,255.62,7.75,-97.38,25.50,11.19,10.62,8.15,1.80
54.00,1.00,332.00,-1.75,-51.69,-0.44,3.06,1.12,8.15,1.80
54.00,2.00,316.75,-19.19,21.25,-3.19,-0.38,5.88,8.15,1.80
54.00,0.00,255.12,8.00,-97.88,27.06,6.88,10.69,9.23,1.82
54.00,1.00,331.94,-1.81,-51.69,-0.69,4.06,1.81,9.23,1.82
54.00,2.00,316.62,-19.25,21.31,-4.94,-0.88,6.75,9.23,1.82
54.00,0.00,254.81,8.12,-98.44,26.81,3.06,8.12,10.29,1.84
54.00,1.00,331.88,-1.81,-51.69,-2.12,3.75,1.94,10.29,1.84
54.00,2.00,316.50,-19.25,21.38,-4.88,-0.94,6.62,10.29,1.84
54.00,0.00,254.62,8.25,-99.00,26.38,0.12,5.50,11.33,1.86
54.00,1.00,331.75,-1.81,-51.62,-1.94,3.75,1.50,11.33,1.86
54.00,2.00,316.31,-19.31,21.38,-4.62,-1.88,7.31,11.33,1.86
54.00,0.00,254.50,8.31,-99.50,25.62,0.50,3.62,12.33,1.88
54.00,1.00,331.69,-1.88,-51.56,-1.06,3.75,1.44,12.33,1.88
54.00,2.00,316.19,-19.31,21.44,-3.88,-0.31,6.50,12.33,1.88
54.00,0.00,254.31,8.38,-100.06,28.88,-0.31,5.31,13.42,1.90
54.00,1.00,331.69,-1.88,-51.56,-1.12,3.50,1.31,13.42,1.90
54.00,2.00,316.00,-19.38,21.44,-3.62,0.75,6.69,13.42,1.90
54.00,0.00,254.06,8.50,-100.69,31.12,-0.25,7.31,14.61,1.92
54.00,1.00,331.56,-1.94,-51.56,-1.44,3.56,1.00,14.61,1.92
54.00,2.00,315.88,-19.44,21.50,-4.25,-0.31,7.88,14.61,1.92
54.00,0.00,253.81,8.69,-101.31,32.38,1.56,7.44,15.85,1.94
54.00,1.00,331.56,-1.94,-51.50,-1.31,3.38,1.19,15.85,1.94
54.00,2.00,315.69,-19.44,21.50,-4.69,-1.50,8.50,15.85,1.94
54.00,0.00,253.50,8.81,-101.94,32.69,2.00,6.25,17.05,1.96
54.00,1.00,331.50,-1.94,-51.50,-1.62,3.19,0.88,17.05,1.96
54.00,2.00,315.50,-19.50,21.50,-3.00,-1.50,8.31,17.05,1.96
54.00,0.00,253.25,8.94,-102.56,34.12,0.75,7.12,18.25,1.98
54.00,1.00,331.44,-2.00,-51.44,-1.19,2.94,0.31,18.25,1.98
54.00,2.00,315.31,-19.50,21.50,-1.50,-1.75,8.12,18.25,1.98
54.00,0.00,252.94,9.06,-103.25,36.00,0.00,8.19,19.49,2.00
54.00,1.00,331.44,-2.00,-51.44,-0.56,2.94,0.25,19.49,2.00
54.00,2.00,315.19,-19.56,21.50,-1.06,-2.00,7.88,19.49,2.00
54.00,0.00,252.69,9.19,-104.00,37.44,-1.88,8.69,20.76,2.02
54.00,1.00,331.38,-2.06,-51.44,0.12,3.06,-0.06,20.76,2.02
54.00,2.00,315.00,-19.56,21.44,-0.25,-1.12,8.31,20.76,2.02
54.00,0.00,252.44,9.38,-104.75,37.44,-2.38,8.44,22.00,2.04
54.00,1.00,331.38,-2.12,-51.44,0.75,3.31,-0.25,22.00,2.04
54.00,2.00,314.81,-19.62,21.38,0.50,-0.81,9.38,22.00,2.04
54.00,0.00,252.19,9.50,-105.50,37.75,-3.50,8.62,23.22,2.06
54.00,1.00,331.31,-2.19,-51.44,0.00,4.06,-0.44,23.22,2.06
54.00,2.00,314.62,-19.69,21.25,1.19,-1.12,9.69,23.22,2.06
54.00,0.00,251.88,9.69,-106.25,38.12,-3.88,9.94,24.46,2.08
54.00,1.00,331.31,-2.25,-51.44,0.38,3.81,0.12,24.46,2.08
54.00,2.00,314.44,-19.75,21.19,1.44,-1.69,10.00,24.46,2.08
54.00,0.00,251.62,9.81,-107.06,38.94,-5.31,10.94,25.72,2.10
54.00,1.00,331.25,-2.25,-51.44,0.25,4.50,0.06,25.72,2.10
54.00,2.00,314.25,-19.75,21.06,1.19,-2.12,10.94,25.72,2.10
54.00,0.00,251.38,10.00,-107.81,38.75,-5.44,10.81,26.99,2.12
54.00,1.00,331.19,-2.31,-51.44,-0.56,4.81,0.06,26.99,2.12
54.00,2.00,314.00,-19.81,21.00,1.06,-3.19,11.44,26.99,2.12
54.00,0.00,251.12,10.19,-108.62,38.25,-5.31,10.50,28.28,2.14
54.00,1.00,331.19,-2.38,-51.44,-0.44,4.75,0.44,28.28,2.14
54.00,2.00,313.75,-19.81,20.88,-0.25,-4.00,11.81,28.28,2.14
54.00,0.00,250.88,10.31,-109.38,38.31,-4.50,11.19,29.54,2.16
54.00,1.00,331.12,-2.44,-51.44,-0.31,4.56,1.12,29.54,2.16
54.00,2.00,313.56,-19.81,20.81,0.94,-5.25,11.38,29.54,2.16
54.00,0.00,250.50,10.56,-110.19,39.75,-3.75,12.38,30.75,2.18
54.00,1.00,331.06,-2.50,-51.38,-1.06,4.25,1.19,30.75,2.18
54.00,2.00,313.31,-19.75,20.62,3.56,-5.00,11.75,30.75,2.18
54.00,0.00,250.12,10.75,-111.00,41.19,-3.31,13.69,32.00,2.20
54.00,1.00,331.00,-2.50,-51.38,-1.12,3.56,1.06,32.00,2.20
54.00,2.00,313.19,-19.75,20.56,4.12,-5.19,12.69,32.00,2.20
54.00,0.00,249.62,11.00,-111.81,42.06,-1.44,15.62,33.32,2.22
54.00,1.00,330.94,-2.50,-51.38,-0.88,3.50,0.94,33.32,2.22
54.00,2.00,312.81,-19.75,20.31,2.75,-5.69,13.25,33.32,2.22
54.00,0.00,249.12,11.31,-112.62,40.44,0.31,15.75,34.60,2.24
54.00,1.00,330.94,-2.56,-51.31,-0.94,3.19,1.31,34.60,2.24
54.00,2.00,312.50,-19.75,20.19,2.25,-5.62,13.75,34.60,2.24
54.00,0.00,248.56,11.56,-113.44,40.69,-1.19,16.31,35.91,2.26
54.00,1.00,330.88,-2.56,-51.31,-0.75,3.81,2.06,35.91,2.26
54.00,2.00,312.25,-19.75,20.00,1.81,-5.50,13.44,35.91,2.26
54.00,0.00,248.06,11.88,-114.31,42.81,-5.62,18.50,37.31,2.28
54.00,1.00,330.75,-2.56,-51.31,-0.75,3.94,2.69,37.31,2.28
54.00,2.00,311.94,-19.75,19.88,1.12,-5.38,14.62,37.31,2.28
54.00,0.00,247.69,12.12,-115.25,44.19,-11.06,19.00,38.74,2.30
54.00,1.00,330.69,-2.56,-51.31,-0.44,4.00,2.88,38.74,2.30
54.00,2.00,311.81,-19.75,19.81,1.44,-4.88,14.38,38.74,2.30
54.00,0.00,247.44,12.31,-116.19,45.38,-15.75,18.56,40.18,2.32
54.00,1.00,330.56,-2.56,-51.25,-1.50,3.75,3.38,40.18,2.32
54.00,2.00,311.38,-19.75,19.62,2.44,-5.19,13.50,40.18,2.32
54.00,0.00,247.25,12.50,-117.12,44.25,-17.06,17.50,41.58,2.34
54.00,1.00,330.50,-2.56,-51.25,-1.31,3.75,3.69,41.58,2.34
54.00,2.00,311.12,-19.69,19.44,2.81,-5.88,14.38,41.58,2.34
54.00,0.00,247.12,12.62,-118.06,42.75,-15.88,16.38,42.94,2.36
54.00,1.00,330.38,-2.56,-51.25,-1.19,3.94,3.94,42.94,2.36
54.00,2.00,310.81,-19.69,19.31,2.06,-7.12,15.75,42.94,2.36
54.00,0.00,246.88,12.75,-119.00,42.50,-11.94,16.69,44.34,2.38
54.00,1.00,330.25,-2.56,-51.19,-0.75,4.25,4.62,44.34,2.38
54.00,2.00,310.44,-19.62,19.12,0.94,-8.44,16.19,44.34,2.38
54.00,0.00,246.44,13.00,-119.88,43.88,-8.44,18.25,45.77,2.40
54.00,1.00,330.12,-2.56,-51.19,-1.25,3.94,4.94,45.77,2.40
54.00,2.00,310.31,-19.62,19.06,1.19,-9.12,16.06,45.77,2.40
54.00,0.00,245.94,13.25,-120.81,44.44,-7.25,19.00,47.17,2.42
54.00,1.00,330.00,-2.50,-51.12,-1.12,4.19,4.69,47.17,2.42
54.00,2.00,309.81,-19.50,18.81,2.75,-9.25,16.25,47.17,2.42
54.00,0.00,245.25,13.50,-121.69,43.31,-1.62,18.38,48.51,2.44
54.00,1.00,329.88,-2.50,-51.12,-1.06,3.88,4.62,48.51,2.44
54.00,2.00,309.44,-19.44,18.62,3.56,-8.56,15.50,48.51,2.44
54.00,0.00,244.56,13.81,-122.56,42.06,0.06,17.50,49.83,2.46
54.00,1.00,329.75,-2.50,-51.12,-1.06,4.12,4.44,49.83,2.46
54.00,2.00,309.12,-19.38,18.44,2.81,-8.31,15.06,49.83,2.46
54.00,0.00,243.81,14.06,-123.44,42.62,-1.12,18.06,51.20,2.48
54.00,1.00,329.62,-2.50,-51.06,-1.31,4.06,4.62,51.20,2.48
54.00,2.00,308.88,-19.38,18.31,1.56,-6.88,15.62,51.20,2.48
54.00,0.00,243.06,14.38,-124.31,43.31,-2.00,18.62,52.67,2.50
54.00,1.00,329.50,-2.44,-51.06,-0.50,4.12,4.25,52.67,2.50
54.00,2.00,308.69,-19.31,18.25,-0.25,-7.00,15.75,52.67,2.50
54.00,0.00,242.31,14.62,-125.25,44.38,-4.69,19.00,54.19,2.52
54.00,1.00,329.38,-2.44,-51.06,-0.19,4.25,4.62,54.19,2.52
54.00,2.00,308.19,-19.25,18.12,-0.88,-7.12,14.56,54.19,2.52
54.00,0.00,241.75,14.81,-126.12,43.12,-7.94,17.19,55.55,2.54
54.00,1.00,329.25,-2.44,-51.00,0.19,3.69,3.75,55.55,2.54
54.00,2.00,307.94,-19.25,18.00,2.62,-5.44,13.12,55.55,2.54
54.00,0.00,241.31,14.94,-127.06,43.12,-12.00,15.19,56.83,2.56
54.00,1.00,329.19,-2.44,-51.00,0.75,3.19,3.44,56.83,2.56
54.00,2.00,307.69,-19.25,17.81,5.00,-3.31,11.38,56.83,2.56
54.00,0.00,241.00,15.00,-128.00,43.12,-13.50,13.94,58.13,2.58
54.00,1.00,329.06,-2.44,-51.00,1.44,3.44,3.12,58.13,2.58
54.00,2.00,307.50,-19.25,17.62,4.38,-4.00,10.75,58.13,2.58
54.00,0.00,240.69,15.06,-128.94,42.25,-11.12,12.69,59.36,2.60
54.00,1.00,329.00,-2.44,-51.06,2.19,3.06,3.12,59.36,2.60
54.00,2.00,307.38,-19.25,17.56,5.75,-4.81,10.94,59.36,2.60
54.00,0.00,240.19,15.12,-129.81,41.75,-6.44,12.38,60.51,2.62
54.00,1.00,328.94,-2.44,-51.06,2.62,2.75,2.75,60.51,2.62
54.00,2.00,307.12,-19.19,17.25,7.31,-5.12,11.19,60.51,2.62
54.00,0.00,239.50,15.31,-130.62,38.94,-0.81,11.94,61.59,2.64
54.00,1.00,328.88,-2.44,-51.12,2.31,2.19,3.38,61.59,2.64
54.00,2.00,307.00,-19.19,17.12,6.75,-6.62,11.56,61.59,2.64
54.00,0.00,238.62,15.50,-131.38,39.19,2.88,12.12,62.68,2.66
54.00,1.00,328.75,-2.38,-51.12,2.12,2.31,4.12,62.68,2.66
54.00,2.00,306.62,-19.06,16.81,6.69,-8.25,13.31,62.68,2.66
54.00,0.00,237.62,15.75,-132.12,37.19,7.31,12.00,63.77,2.68
54.00,1.00,328.62,-2.38,-51.19,1.75,2.44,4.06,63.77,2.68
54.00,2.00,306.38,-19.00,16.62,4.88,-8.38,14.00,63.77,2.68
54.00,0.00,236.44,16.06,-132.81,36.25,10.31,10.81,64.89,2.70
54.00,1.00,328.56,-2.31,-51.19,1.31,2.81,4.75,64.89,2.70
54.00,2.00,306.19,-18.94,16.50,2.94,-9.75,14.12,64.89,2.70
54.00,0.00,235.25,16.31,-133.56,35.94,10.81,11.19,65.96,2.72
54.00,1.00,328.44,-2.31,-51.25,1.44,3.19,4.50,65.96,2.72
54.00,2.00,305.75,-18.81,16.25,4.06,-9.44,13.81,65.96,2.72
54.00,0.00,234.12,16.62,-134.12,34.00,11.00,11.06,66.91,2.74
54.00,1.00,328.31,-2.31,-51.25,1.44,3.25,4.06,66.91,2.74
54.00,2.00,305.62,-18.75,16.12,5.75,-9.25,13.25,66.91,2.74
54.00,0.00,233.06,16.88,-134.69,33.88,10.56,11.69,67.84,2.76
54.00,1.00,328.19,-2.25,-51.25,0.50,3.12,4.31,67.84,2.76
54.00,2.00,305.25,-18.62,15.88,6.06,-8.44,12.94,67.84,2.76
54.00,0.00,232.00,17.12,-135.25,32.69,12.06,11.31,68.77,2.78
54.00,1.00,328.06,-2.25,-51.25,1.62,4.19,3.69,68.77,2.78
54.00,2.00,305.00,-18.56,15.69,5.19,-7.00,12.69,68.77,2.78
54.00,0.00,230.88,17.38,-135.69,30.56,13.06,9.62,69.64,2.80
54.00,1.00,328.00,-2.25,-51.31,1.81,4.50,3.56,69.64,2.80
54.00,2.00,304.88,-18.50,15.56,4.50,-6.06,11.69,69.64,2.80
54.00,0.00,229.81,17.62,-136.19,27.69,12.44,7.19,70.47,2.82
54.00,1.00,327.88,-2.25,-51.31,0.88,5.31,3.50,70.47,2.82
54.00,2.00,304.56,-18.44,15.38,3.00,-5.12,10.81,70.47,2.82
54.00,0.00,228.69,17.88,-136.69,26.81,10.19,6.38,71.25,2.84
54.00,1.00,327.75,-2.31,-51.38,2.12,4.44,2.94,71.25,2.84
54.00,2.00,304.44,-18.38,15.31,3.44,-5.19,10.69,71.25,2.84
54.00,0.00,227.56,18.12,-137.25,29.12,10.62,8.69,72.05,2.86
54.00,1.00,327.69,-2.31,-51.38,1.31,4.31,2.38,72.05,2.86
54.00,2.00,304.25,-18.38,15.12,5.38,-3.69,10.94,72.05,2.86
54.00,0.00,226.25,18.44,-137.81,30.31,13.75,10.12,72.92,2.88
54.00,1.00,327.56,-2.31,-51.44,1.56,5.81,2.62,72.92,2.88
54.00,2.00,303.94,-18.31,14.88,4.38,-3.50,10.75,72.92,2.88
54.00,0.00,99.12,18.81,-138.38,29.62,17.50,9.62,73.82,2.90
54.00,1.00,327.50,-2.38,-51.50,1.69,4.44,3.25,73.82,2.90
54.00,2.00,303.81,-18.31,14.81,3.06,-4.94,11.31,73.82,2.90
54.00,0.00,99.00,19.19,-138.81,28.06,20.31,8.50,74.63,2.92
54.00,1.00,327.38,-2.38,-51.50,1.75,5.06,2.69,74.63,2.92
54.00,2.00,303.50,-18.25,14.62,3.81,-6.06,12.12,74.63,2.92
54.00,0.00,98.88,19.56,-139.25,27.00,22.12,7.50,75.36,2.94
54.00,1.00,327.25,-2.38,-51.56,3.00,5.19,2.31,75.36,2.94
54.00,2.00,303.38,-18.25,14.50,5.38,-5.25,10.81,75.36,2.94
54.00,0.00,98.75,20.00,-139.69,27.31,21.44,6.56,76.11,2.96
54.00,1.00,327.19,-2.44,-51.62,2.38,6.00,2.81,76.11,2.96
54.00,2.00,303.19,-18.19,14.31,5.00,-4.75,10.94,76.11,2.96
54.00,0.00,98.62,20.31,-140.06,25.12,19.75,6.19,76.80,2.98
54.00,1.00,327.06,-2.44,-51.62,1.38,4.50,3.31,76.80,2.98
54.00,2.00,302.88,-18.12,14.06,4.50,-5.44,10.56,76.80,2.98
54.00,0.00,98.56,20.44,-140.19,23.56,17.88,5.31,77.46,3.00
54.00,1.00,326.94,-2.44,-51.69,1.50,4.94,3.06,77.46,3.00
54.00,2.00,302.75,-18.06,14.00,3.88,-5.50,10.75,77.46,3.00
54.00,0.00,98.38,20.69,-140.50,23.25,16.50,5.88,78.16,3.02
54.00,1.00,326.88,-2.50,-51.69,0.94,4.62,3.50,78.16,3.02
54.00,2.00,302.44,-18.00,13.81,2.31,-5.81,11.12,78.16,3.02
54.00,0.00,98.25,20.88,-140.75,20.88,15.56,4.25,78.80,3.04
54.00,1.00,326.75,-2.50,-51.69,0.62,4.44,3.19,78.80,3.04
54.00,2.00,302.25,-17.94,13.69,1.94,-6.31,10.56,78.80,3.04
54.00,0.00,98.06,21.06,-141.00,19.88,13.31,2.94,79.35,3.06
54.00,1.00,326.62,-2.50,-51.75,0.94,4.56,2.81,79.35,3.06
54.00,2.00,302.12,-17.88,13.62,3.44,-4.75,9.44,79.35,3.06
54.00,0.00,97.94,21.25,-141.25,18.38,14.31,1.69,79.83,3.08
54.00,1.00,326.56,-2.50,-51.75,0.81,4.69,3.25,79.83,3.08
54.00,2.00,301.88,-17.81,13.44,4.06,-3.94,8.56,79.83,3.08
54.00,0.00,97.81,21.50,-141.50,18.25,13.88,2.19,80.34,3.10
54.00,1.00,326.44,-2.50,-51.75,0.69,5.00,3.00,80.34,3.10
54.00,2.00,301.81,-17.81,13.38,3.25,-4.25,8.50,80.34,3.10
54.00,0.00,97.62,21.69,-141.69,16.31,16.38,2.12,80.79,3.12
54.00,1.00,326.31,-2.56,-51.75,0.75,4.56,3.50,80.79,3.12
54.00,2.00,301.56,-17.75,13.25,2.69,-3.94,8.62,80.79,3.12
54.00,0.00,97.50,21.94,-141.81,13.44,17.44,0.06,81.16,3.14
54.00,1.00,326.25,-2.56,-51.81,0.81,4.69,3.75,81.16,3.14
54.00,2.00,301.38,-17.69,13.12,2.44,-4.56,7.94,81.16,3.14
54.00,0.00,97.31,22.19,-141.94,14.12,16.06,-0.06,81.59,3.16
54.00,1.00,326.12,-2.56,-51.81,0.44,4.31,2.88,81.59,3.16
54.00,2.00,301.31,-17.69,13.06,1.25,-5.06,8.00,81.59,3.16
54.00,0.00,97.12,22.38,-142.12,14.69,16.25,2.88,82.01,3.18
54.00,1.00,326.06,-2.56,-51.81,0.12,3.81,2.25,82.01,3.18
54.00,2.00,301.12,-17.56,13.00,2.25,-3.12,6.81,82.01,3.18
54.00,0.00,97.00,22.69,-142.31,13.44,16.44,2.50,82.36,3.20
54.00,1.00,326.00,-2.62,-51.81,0.38,3.81,1.94,82.36,3.20
54.00,2.00,301.06,-17.56,12.94,3.00,-2.56,6.00,82.36,3.20
54.00,0.00,96.88,22.88,-142.44,12.06,13.69,1.12,82.66,3.22
54.00,1.00,325.94,-2.62,-51.81,0.44,3.31,1.81,82.66,3.22
54.00,2.00,300.88,-17.56,12.81,3.12,-1.62,5.12,82.66,3.22
54.00,0.00,96.75,23.12,-142.56,11.94,13.69,1.56,82.96,3.24
54.00,1.00,325.88,-2.62,-51.81,0.88,3.56,1.31,82.96,3.24
54.00,2.00,300.81,-17.56,12.75,3.12,-1.19,3.94,82.96,3.24
54.00,0.00,96.62,23.31,-142.69,12.06,13.75,2.50,83.26,3.26
54.00,1.00,325.81,-2.69,-51.75,0.38,2.69,0.56,83.26,3.26
54.00,2.00,300.81,-17.50,12.75,3.00,-1.81,3.06,83.26,3.26
54.00,0.00,96.56,23.56,-142.75,10.31,13.19,4.06,83.47,3.28
54.00,1.00,325.81,-2.75,-51.75,0.31,1.94,0.44,83.47,3.28
54.00,2.00,300.75,-17.50,12.62,4.25,-1.56,2.31,83.47,3.28
54.00,0.00,96.50,23.75,-142.81,9.50,12.44,3.75,83.64,3.30
54.00,1.00,325.81,-2.81,-51.75,0.12,1.69,0.31,83.64,3.30
54.00,2.00,300.69,-17.50,12.56,4.38,-0.94,2.12,83.64,3.30
54.00,0.00,96.44,23.94,-142.88,8.31,7.75,3.62,83.82,3.32
54.00,1.00,325.81,-2.81,-51.75,-0.06,1.25,0.06,83.82,3.32
54.00,2.00,300.69,-17.44,12.50,2.81,-2.62,1.44,83.82,3.32
54.00,0.00,96.38,24.00,-143.00,8.06,6.12,3.69,83.91,3.34
54.00,1.00,325.81,-2.88,-51.75,0.50,0.81,-0.56,83.91,3.34
54.00,2.00,300.69,-17.38,12.44,5.44,-1.56,0.75,83.91,3.34
54.00,0.00,96.38,24.12,-143.06,6.38,3.81,2.81,83.92,3.36
54.00,1.00,325.81,-2.88,-51.75,1.12,0.06,-0.44,83.92,3.36
54.00,2.00,300.69,-17.38,12.38,6.19,-0.75,0.38,83.92,3.36
54.00,0.00,96.38,24.19,-143.19,6.75,1.25,3.69,84.02,3.38
54.00,1.00,325.81,-2.88,-51.75,0.62,-0.12,-0.06,84.02,3.38
54.00,2.00,300.69,-17.38,12.25,3.81,-1.31,0.25,84.02,3.38
54.00,0.00,96.44,24.25,-143.31,6.25,0.94,4.81,84.12,3.40
54.00,1.00,325.81,-2.88,-51.75,0.50,0.25,-0.06,84.12,3.40
54.00,2.00,300.69,-17.31,12.19,3.19,-1.38,0.56,84.12,3.40
54.00,0.00,96.50,24.31,-143.50,5.75,1.44,5.31,84.21,3.42
54.00,1.00,325.81,-2.88,-51.75,0.25,0.25,-0.12,84.21,3.42
54.00,2.00,300.69,-17.31,12.12,2.94,-1.69,0.69,84.21,3.42
54.00,0.00,96.56,24.38,-143.62,5.06,1.69,5.75,84.29,3.44
54.00,1.00,325.81,-2.88,-51.75,-0.25,0.00,0.12,84.29,3.44
54.00,2.00,300.69,-17.25,12.00,2.69,-2.06,0.62,84.29,3.44
54.00,0.00,96.69,24.50,-143.75,3.31,1.38,5.56,84.33,3.46
54.00,1.00,325.81,-2.88,-51.75,-0.31,0.25,0.25,84.33,3.46
54.00,2.00,300.69,-17.25,12.00,2.25,-2.19,0.88,84.33,3.46
54.00,0.00,96.75,24.56,-143.81,2.75,1.50,5.38,84.36,3.48
54.00,1.00,325.81,-2.88,-51.75,-0.19,0.56,0.19,84.36,3.48
54.00,2.00,300.62,-17.12,11.94,1.94,-3.50,1.25,84.36,3.48
54.00,0.00,96.81,24.62,-143.94,2.94,1.12,5.75,84.33,3.50
54.00,1.00,325.81,-2.88,-51.75,0.00,-0.19,-0.31,84.33,3.50
54.00,2.00,300.62,-17.12,11.88,3.81,-2.38,1.00,84.33,3.50
54.00,0.00,96.94,24.75,-144.00,2.62,0.50,6.12,84.26,3.52
54.00,1.00,325.81,-2.88,-51.75,0.44,-0.19,0.06,84.26,3.52
54.00,2.00,300.62,-17.06,11.75,4.50,-1.94,0.75,84.26,3.52
54.00,0.00,97.06,24.81,-144.12,2.81,0.25,6.56,84.22,3.54
54.00,1.00,325.81,-2.88,-51.75,0.88,0.19,0.38,84.22,3.54
54.00,2.00,300.62,-17.00,11.69,4.06,-1.69,1.00,84.22,3.54
54.00,0.00,97.19,24.88,-144.25,3.12,0.88,6.88,84.22,3.56
54.00,1.00,325.81,-2.88,-51.81,0.44,0.69,0.62,84.22,3.56
54.00,2.00,300.62,-17.00,11.62,3.12,-1.56,1.12,84.22,3.56
54.00,0.00,97.31,25.00,-144.38,4.00,1.06,6.88,84.29,3.58
54.00,1.00,325.81,-2.88,-51.81,0.06,0.75,1.19,84.29,3.58
54.00,2.00,300.56,-16.94,11.56,1.88,-2.19,1.88,84.29,3.58
54.00,0.00,97.38,25.06,-144.50,4.44,0.75,6.44,84.41,3.60
54.00,1.00,325.75,-2.88,-51.81,0.00,0.69,1.75,84.41,3.60
54.00,2.00,300.56,-16.94,11.50,1.06,-2.81,2.38,84.41,3.60
54.00,0.00,97.50,25.12,-144.62,4.50,0.06,5.81,84.55,3.62
54.00,1.00,325.75,-2.88,-51.81,0.00,1.19,1.56,84.55,3.62
54.00,2.00,300.44,-16.88,11.44,0.12,-2.81,2.88,84.55,3.62
54.00,0.00,97.56,25.19,-144.81,5.38,0.44,4.81,84.70,3.64
54.00,1.00,325.69,-2.88,-51.81,0.94,1.31,0.94,84.70,3.64
54.00,2.00,300.38,-16.81,11.44,1.00,-1.69,3.19,84.70,3.64
54.00,0.00,97.62,25.25,-144.94,5.19,-0.12,4.81,84.84,3.66
54.00,1.00,325.69,-2.88,-51.81,-0.44,1.00,1.81,84.84,3.66
54.00,2.00,300.38,-16.81,11.38,1.06,-1.31,3.62,84.84,3.66
54.00,0.00,97.69,25.31,-145.06,5.19,-0.62,5.31,85.03,3.68
54.00,1.00,325.62,-2.88,-51.81,-0.50,2.12,1.69,85.03,3.68
54.00,2.00,300.25,-16.81,11.31,-0.56,-0.75,4.19,85.03,3.68
54.00,0.00,97.81,25.31,-145.25,4.94,-0.19,5.38,85.23,3.70
54.00,1.00,325.56,-2.81,-51.81,-0.31,2.81,2.12,85.23,3.70
54.00,2.00,300.19,-16.81,11.31,-1.00,-1.19,4.62,85.23,3.70
54.00,0.00,97.88,25.38,-145.38,5.69,-0.31,4.62,85.49,3.72
54.00,1.00,325.44,-2.88,-51.81,0.31,4.69,1.44,85.49,3.72
54.00,2.00,300.12,-16.75,11.31,-2.06,-0.25,4.75,85.49,3.72
54.00,0.00,97.88,25.44,-145.56,5.69,0.12,3.88,85.72,3.74
54.00,1.00,325.38,-2.88,-51.81,-2.19,3.88,2.31,85.72,3.74
54.00,2.00,299.94,-16.75,11.31,-0.94,-0.94,5.31,85.72,3.74
54.00,0.00,97.94,25.50,-145.69,6.12,0.00,4.44,85.93,3.76
54.00,1.00,325.31,-2.88,-51.81,-0.19,3.94,2.06,85.93,3.76
54.00,2.00,299.88,-16.75,11.25,-0.31,-0.69,4.69,85.93,3.76
54.00,0.00,98.06,25.56,-145.88,6.62,0.19,6.25,86.24,3.78
54.00,1.00,325.25,-2.94,-51.81,-1.19,4.19,2.88,86.24,3.78
54.00,2.00,299.75,-16.75,11.25,-2.44,-1.12,4.75,86.24,3.78
54.00,0.00,98.12,25.62,-146.00,5.00,2.44,5.44,86.48,3.80
54.00,1.00,325.19,-2.94,-51.75,-1.31,2.75,2.88,86.48,3.80
54.00,2.00,299.69,-16.75,11.25,-2.19,-1.44,4.44,86.48,3.80
54.00,0.00,98.12,25.69,-146.00,0.19,-0.19,1.31,86.51,3.82
54.00,1.00,325.06,-2.94,-51.75,-1.94,2.88,2.75,86.51,3.82
54.00,2.00,299.56,-16.75,11.25,-0.75,-0.75,4.25,86.51,3.82
54.00,0.00,98.12,25.56,-146.00,-0.31,-5.50,-1.56,86.57,3.84
54.00,1.00,325.00,-2.88,-51.69,-2.00,2.44,2.81,86.57,3.84
54.00,2.00,299.50,-16.75,11.31,-2.00,-0.12,4.00,86.57,3.84
54.00,0.00,98.19,25.50,-146.06,3.00,-5.25,0.81,86.77,3.86
54.00,1.00,324.94,-2.88,-51.69,-1.75,3.38,2.31,86.77,3.86
54.00,2.00,299.44,-16.75,11.31,-3.00,-0.25,3.94,86.77,3.86
54.00,0.00,98.25,25.44,-146.19,4.69,-2.44,4.06,87.03,3.88
54.00,1.00,324.88,-2.94,-51.62,-2.12,3.19,2.25,87.03,3.88
54.00,2.00,299.31,-16.81,11.38,-3.12,-0.38,4.19,87.03,3.88
54.00,0.00,98.31,25.50,-146.31,3.19,-0.25,3.12,87.22,3.90
54.00,1.00,324.81,-2.94,-51.62,-2.31,3.38,1.62,87.22,3.90
54.00,2.00,299.25,-16.81,11.38,-2.50,0.12,4.19,87.22,3.90
54.00,0.00,98.31,25.50,-146.38,0.88,-0.38,0.38,87.30,3.92
54.00,1.00,324.75,-2.94,-51.56,-2.06,3.56,1.31,87.30,3.92
54.00,2.00,299.19,-16.81,11.44,-1.50,1.06,3.44,87.30,3.92
54.00,0.00,98.25,25.44,-146.38,0.06,-3.00,-1.25,87.34,3.94
54.00,1.00,324.69,-3.00,-51.50,-2.06,3.31,1.06,87.34,3.94
54.00,2.00,299.12,-16.81,11.44,-1.12,1.50,2.44,87.34,3.94
54.00,0.00,98.25,25.38,-146.38,1.00,-5.00,-1.00,87.42,3.96
54.00,1.00,324.62,-3.00,-51.50,-2.06,3.25,0.69,87.42,3.96
54.00,2.00,299.06,-16.88,11.44,-1.44,1.00,2.56,87.42,3.96
54.00,0.00,98.31,25.25,-146.44,1.88,-4.38,-0.38,87.52,3.98
54.00,1.00,324.56,-3.06,-51.44,-2.12,2.94,0.88,87.52,3.98
54.00,2.00,299.00,-16.88,11.50,-1.19,1.69,2.62,87.52,3.98
54.00,0.00,98.25,25.19,-146.44,-0.56,-1.56,-2.94,87.54,4.00
54.00,1.00,324.56,-3.06,-51.44,-2.62,3.00,0.88,87.54,4.00
54.00,2.00,299.00,-16.94,11.50,-1.06,2.00,2.00,87.54,4.00
54.00,0.00,98.19,25.06,-146.44,0.38,-8.50,-5.75,87.62,4.02
54.00,1.00,324.50,-3.12,-51.31,-2.69,2.00,0.56,87.62,4.02
54.00,2.00,298.94,-16.94,11.50,-2.00,0.50,1.12,87.62,4.02
54.00,0.00,98.19,24.94,-146.44,0.38,-5.62,-1.00,87.66,4.04
54.00,1.00,324.50,-3.12,-51.25,-2.88,1.50,-0.44,87.66,4.04
54.00,2.00,298.94,-16.94,11.56,-0.88,2.44,-0.25,87.66,4.04
54.00,0.00,98.19,24.88,-146.44,-0.75,-2.06,-2.94,87.65,4.06
54.00,1.00,324.50,-3.19,-51.25,-2.50,2.06,-1.06,87.65,4.06
54.00,2.00,298.94,-17.00,11.56,-0.50,2.94,0.06,87.65,4.06
54.00,0.00,98.12,24.75,-146.44,0.88,-3.12,-3.19,87.70,4.08
54.00,1.00,324.50,-3.25,-51.12,-1.75,1.88,-1.12,87.70,4.08
54.00,2.00,298.94,-17.06,11.56,-0.56,1.44,0.81,87.70,4.08
54.00,0.00,98.06,24.69,-146.44,0.62,-2.50,-2.94,87.71,4.10
54.00,1.00,324.56,-3.25,-51.12,-1.50,2.12,-1.38,87.71,4.10
54.00,2.00,298.94,-17.12,11.62,0.50,1.88,0.88,87.71,4.10
54.00,0.00,98.00,24.62,-146.44,0.50,-1.19,-2.50,87.63,4.12
54.00,1.00,324.56,-3.31,-51.06,-0.94,1.38,-1.56,87.63,4.12
54.00,2.00,298.94,-17.12,11.62,2.69,2.31,-0.81,87.63,4.12
54.00,0.00,98.00,24.62,-146.38,0.44,-0.56,-1.56,87.53,4.14
54.00,1.00,324.56,-3.38,-51.06,-1.00,0.94,-2.69,87.53,4.14
54.00,2.00,299.00,-17.19,11.62,3.44,1.62,-1.00,87.53,4.14
54.00,0.00,97.94,24.56,-146.38,0.69,-0.38,-1.56,87.41,4.16
54.00,1.00,324.62,-3.44,-51.00,-0.12,0.56,-3.06,87.41,4.16
54.00,2.00,299.06,-17.19,11.62,4.44,2.44,-1.69,87.41,4.16
54.00,0.00,97.94,24.56,-146.38,0.88,-1.25,-1.62,87.27,4.18
54.00,1.00,324.69,-3.50,-51.00,0.50,-0.62,-2.69,87.27,4.18
54.00,2.00,299.12,-17.25,11.56,5.00,2.62,-2.56,87.27,4.18
54.00,0.00,97.88,24.50,-146.38,0.88,-1.50,-0.94,87.15,4.20
54.00,1.00,324.75,-3.56,-50.94,0.50,-0.56,-2.94,87.15,4.20
54.00,2.00,299.19,-17.25,11.44,4.50,2.44,-2.31,87.15,4.20
54.00,0.00,97.88,24.50,-146.38,1.19,-1.25,0.25,87.09,4.22
54.00,1.00,324.81,-3.62,-50.94,0.06,0.12,-1.94,87.09,4.22
54.00,2.00,299.25,-17.31,11.38,2.94,2.25,-2.00,87.09,4.22
54.00,0.00,97.88,24.50,-146.44,1.06,-0.25,0.50,87.08,4.24
54.00,1.00,324.88,-3.69,-50.94,0.50,0.81,-1.25,87.08,4.24
54.00,2.00,299.31,-17.31,11.38,1.19,0.56,-0.50,87.08,4.24
54.00,0.00,97.88,24.44,-146.44,0.69,0.00,0.31,87.07,4.26
54.00,1.00,324.88,-3.69,-50.94,0.50,0.44,-0.44,87.07,4.26
54.00,2.00,299.31,-17.31,11.38,1.19,-0.88,-0.06,87.07,4.26
54.00,0.00,97.88,24.44,-146.44,-0.12,0.62,0.44,87.01,4.28
54.00,1.00,324.88,-3.75,-50.94,0.38,0.44,0.12,87.01,4.28
54.00,2.00,299.31,-17.31,11.31,1.50,-0.88,-0.19,87.01,4.28
54.00,0.00,97.88,24.50,-146.44,-0.69,1.44,0.50,86.91,4.30
54.00,1.00,324.94,-3.75,-50.94,0.31,-0.50,-0.12,86.91,4.30
54.00,2.00,299.31,-17.31,11.31,2.44,-0.31,-0.19,86.91,4.30
54.00,0.00,97.88,24.44,-146.44,-0.56,0.75,0.12,86.78,4.32
54.00,1.00,324.94,-3.75,-50.94,0.62,-0.56,-0.12,86.78,4.32
54.00,2.00,299.31,-17.31,11.25,3.12,0.44,0.19,86.78,4.32
54.00,0.00,97.88,24.44,-146.44,-0.31,-1.12,-1.00,86.72,4.34
54.00,1.00,324.94,-3.75,-50.94,0.50,-0.62,0.50,86.72,4.34
54.00,2.00,299.31,-17.31,11.19,1.56,0.06,1.19,86.72,4.34
54.00,0.00,97.88,24.38,-146.44,0.31,-2.56,-2.00,86.74,4.36
54.00,1.00,324.94,-3.75,-50.94,0.06,-0.81,0.94,86.74,4.36
54.00,2.00,299.25,-17.31,11.12,-0.31,-0.62,1.88,86.74,4.36
54.00,0.00,97.81,24.25,-146.44,0.88,-3.44,-3.19,86.82,4.38
54.00,1.00,324.94,-3.75,-50.94,0.38,-0.75,1.12,86.82,4.38
54.00,2.00,299.25,-17.31,11.12,-1.44,-0.69,2.50,86.82,4.38
54.00,0.00,97.75,24.12,-146.50,1.56,-4.56,-4.06,86.91,4.40
54.00,1.00,324.94,-3.75,-50.88,0.00,-0.75,1.25,86.91,4.40
54.00,2.00,299.19,-17.31,11.12,-1.06,-0.44,2.75,86.91,4.40
54.00,0.00,97.69,24.00,-146.56,2.81,-4.75,-3.94,87.03,4.42
54.00,1.00,324.88,-3.69,-50.94,0.62,0.06,1.62,87.03,4.42
54.00,2.00,299.12,-17.31,11.12,-0.88,1.56,4.44,87.03,4.42
54.00,0.00,97.62,23.88,-146.56,3.56,-3.56,-3.31,87.22,4.44
54.00,1.00,324.81,-3.69,-50.94,1.56,0.38,2.00,87.22,4.44
54.00,2.00,298.94,-17.38,11.12,-2.06,1.69,5.81,87.22,4.44
54.00,0.00,97.56,23.81,-146.62,3.06,-3.31,-2.75,87.41,4.46
54.00,1.00,324.81,-3.69,-51.00,2.00,0.38,2.00,87.41,4.46
54.00,2.00,298.88,-17.44,11.12,-2.50,1.25,5.19,87.41,4.46
54.00,0.00,97.50,23.75,-146.69,1.56,-3.50,-2.69,87.64,4.48
54.00,1.00,324.75,-3.62,-51.00,1.62,1.31,2.62,87.64,4.48
54.00,2.00,298.81,-17.44,11.12,-5.31,-2.94,5.88,87.64,4.48
54.00,0.00,97.50,23.62,-146.69,-0.56,-5.31,-2.62,87.76,4.50
54.00,1.00,324.69,-3.62,-51.06,0.81,0.94,2.12,87.76,4.50
54.00,2.00,298.62,-17.38,11.19,-4.12,-3.56,5.75,87.76,4.50
54.00,0.00,97.50,23.50,-146.69,-1.06,-7.75,-2.38,87.52,4.52
54.00,1.00,324.69,-3.56,-51.06,0.81,0.50,1.75,87.52,4.52
54.00,2.00,298.56,-17.38,11.12,5.88,0.19,1.81,87.52,4.52
54.00,0.00,97.50,23.38,-146.69,-1.31,-6.62,-1.25,87.31,4.54
54.00,1.00,324.62,-3.56,-51.06,1.81,-0.31,1.12,87.31,4.54
54.00,2.00,298.56,-17.38,10.94,5.06,-1.06,1.81,87.31,4.54
54.00,0.00,97.56,23.31,-146.69,-2.31,-3.31,0.31,87.14,4.56
54.00,1.00,324.62,-3.56,-51.12,2.62,-1.12,-0.44,87.14,4.56
54.00,2.00,298.56,-17.31,10.94,2.69,-2.69,1.94,87.14,4.56
54.00,0.00,97.62,23.38,-146.62,-2.00,0.19,1.75,87.08,4.58
54.00,1.00,324.69,-3.56,-51.19,1.38,-1.06,-1.00,87.08,4.58
54.00,2.00,298.44,-17.25,10.88,-0.19,-4.94,2.06,87.08,4.58
54.00,0.00,97.62,23.44,-146.56,-1.62,2.88,1.81,87.03,4.60
54.00,1.00,324.75,-3.56,-51.12,0.12,-1.75,-0.81,87.03,4.60
54.00,2.00,298.44,-17.19,10.88,-0.12,-4.69,1.62,87.03,4.60
54.00,0.00,97.62,23.50,-146.56,-0.06,3.25,1.94,87.03,4.62
54.00,1.00,324.75,-3.56,-51.12,0.06,-1.06,-0.19,87.03,4.62
54.00,2.00,298.44,-17.06,10.88,0.06,-2.62,-1.06,87.03,4.62
54.00,0.00,97.69,23.56,-146.56,0.56,3.94,2.12,87.02,4.64
54.00,1.00,324.75,-3.56,-51.12,1.06,-0.94,0.19,87.02,4.64
54.00,2.00,298.50,-17.00,10.94,0.69,-0.94,-1.62,87.02,4.64
54.00,0.00,97.69,23.62,-146.56,0.25,4.50,1.31,86.98,4.66
54.00,1.00,324.75,-3.56,-51.19,1.62,-0.62,0.00,86.98,4.66
54.00,2.00,298.50,-17.00,10.94,1.44,0.06,-2.38,86.98,4.66
54.00,0.00,97.69,23.69,-146.56,-0.44,3.00,0.50,86.99,4.68
54.00,1.00,324.75,-3.56,-51.19,1.00,-0.69,0.75,86.99,4.68
54.00,2.00,298.62,-17.00,10.94,-0.62,0.12,-2.75,86.99,4.68
54.00,0.00,97.62,23.75,-146.50,-0.50,1.75,-0.31,87.00,4.70
54.00,1.00,324.75,-3.56,-51.19,-0.06,-1.62,1.00,87.00,4.70
54.00,2.00,298.62,-17.00,10.94,-0.75,0.12,-2.31,87.00,4.70
54.00,0.00,97.62,23.75,-146.50,-0.06,0.31,-0.88,87.05,4.72
54.00,1.00,324.75,-3.50,-51.12,-1.19,-1.25,1.06,87.05,4.72
54.00,2.00,298.69,-17.00,11.00,-1.56,2.19,-1.44,87.05,4.72
54.00,0.00,97.62,23.69,-146.50,-0.31,-1.88,-1.94,87.02,4.74
54.00,1.00,324.75,-3.50,-51.12,-0.62,-1.19,1.38,87.02,4.74
54.00,2.00,298.69,-17.06,11.00,0.62,0.62,1.62,87.02,4.74
54.00,0.00,97.56,23.62,-146.50,-0.38,-2.81,-2.50,86.83,4.76
54.00,1.00,324.69,-3.44,-51.12,1.44,-0.69,1.75,86.83,4.76
54.00,2.00,298.62,-17.06,10.94,5.25,0.88,2.38,86.83,4.76
54.00,0.00,97.50,23.50,-146.50,-1.31,-7.19,-3.62,86.49,4.78
54.00,1.00,324.69,-3.38,-51.19,3.38,-2.12,0.56,86.49,4.78
54.00,2.00,298.50,-17.06,10.62,8.81,-3.62,7.75,86.49,4.78
54.00,0.00,97.50,23.31,-146.44,-2.00,-11.94,-2.12,86.20,4.80
54.00,1.00,324.81,-3.38,-51.25,3.25,-4.44,-3.81,86.20,4.80
54.00,2.00,298.44,-17.00,10.56,6.50,-5.69,8.00,86.20,4.80
54.00,0.00,97.56,23.12,-146.44,-2.19,-13.38,-1.81,85.98,4.82
54.00,1.00,325.00,-3.44,-51.25,0.75,-4.56,-8.00,85.98,4.82
54.00,2.00,298.19,-16.81,10.31,4.31,-8.62,7.69,85.98,4.82
54.00,0.00,97.56,22.94,-146.50,-0.38,-4.69,-2.75,85.74,4.84
54.00,1.00,325.19,-3.50,-51.25,0.12,-3.75,-6.19,85.74,4.84
54.00,2.00,298.12,-16.75,10.19,7.00,-3.81,2.25,85.74,4.84
54.00,0.00,97.56,22.88,-146.44,0.00,-0.94,-3.12,85.55,4.86
54.00,1.00,325.25,-3.50,-51.25,0.19,-3.25,-1.62,85.55,4.86
54.00,2.00,298.12,-16.69,10.12,5.56,-3.50,0.69,85.55,4.86
54.00,0.00,97.44,22.81,-146.44,0.44,0.62,-1.81,85.47,4.88
54.00,1.00,325.31,-3.50,-51.25,1.12,-3.50,-1.56,85.47,4.88
54.00,2.00,298.12,-16.56,10.00,2.69,-3.94,1.38,85.47,4.88
54.00,0.00,97.44,22.81,-146.44,1.69,-3.56,0.19,85.45,4.90
54.00,1.00,325.38,-3.44,-51.31,3.12,-3.12,-0.62,85.45,4.90
54.00,2.00,298.06,-16.56,10.00,2.38,-3.31,1.88,85.45,4.90
54.00,0.00,97.50,22.75,-146.50,2.12,-4.19,1.50,85.39,4.92
54.00,1.00,325.38,-3.44,-51.38,3.94,-1.94,-0.81,85.39,4.92
54.00,2.00,298.12,-16.56,9.88,3.88,0.81,-3.25,85.39,4.92
54.00,0.00,97.50,22.81,-146.56,2.69,4.44,4.06,85.26,4.94
54.00,1.00,325.44,-3.44,-51.44,2.50,0.31,-0.06,85.26,4.94
54.00,2.00,298.25,-16.50,9.81,6.50,0.94,-5.69,85.26,4.94
54.00,0.00,97.56,22.94,-146.62,2.56,7.31,4.62,85.06,4.96
54.00,1.00,325.38,-3.44,-51.44,1.25,2.69,0.81,85.06,4.96
54.00,2.00,298.31,-16.56,9.75,8.56,1.69,-5.00,85.06,4.96
54.00,0.00,97.62,23.12,-146.62,0.94,7.12,4.19,84.88,4.98
54.00,1.00,325.31,-3.50,-51.50,1.44,3.06,1.31,84.88,4.98
54.00,2.00,298.38,-16.56,9.50,6.25,-0.94,2.12,84.88,4.98
54.00,0.00,97.62,23.19,-146.62,-1.38,0.94,1.62,84.69,5.00
54.00,1.00,325.31,-3.50,-51.50,1.75,1.12,-0.44,84.69,5.00
54.00,2.00,298.31,-16.56,9.44,4.50,-3.00,1.44,84.69,5.00
54.00,0.00,97.62,23.12,-146.62,-1.81,-4.06,-0.88,84.51,5.02
54.00,1.00,325.31,-3.56,-51.56,1.75,0.88,-1.62,84.51,5.02
54.00,2.00,298.31,-16.50,9.31,3.50,-0.12,1.69,84.51,5.02
54.00,0.00,97.62,23.00,-146.56,-1.00,-3.81,-2.38,84.41,5.04
54.00,1.00,325.38,-3.56,-51.62,3.56,-1.12,-2.62,84.41,5.04
54.00,2.00,298.25,-16.50,9.25,1.88,0.50,2.88,84.41,5.04
54.00,0.00,97.56,22.94,-146.56,0.81,-1.19,-3.44,84.37,5.06
54.00,1.00,325.50,-3.62,-51.62,2.75,-2.62,-3.88,84.37,5.06
54.00,2.00,298.25,-16.50,9.25,1.94,1.00,1.00,84.37,5.06
54.00,0.00,97.44,22.88,-146.56,2.19,1.69,-5.25,84.43,5.08
54.00,1.00,325.62,-3.62,-51.69,0.88,-2.88,-3.94,84.43,5.08
54.00,2.00,298.25,-16.56,9.19,0.44,2.25,0.25,84.43,5.08
54.00,0.00,97.31,22.88,-146.62,3.00,1.06,-6.06,84.48,5.10
54.00,1.00,325.69,-3.69,-51.69,1.38,-3.00,-3.50,84.48,5.10
54.00,2.00,298.25,-16.62,9.19,1.69,3.25,0.69,84.48,5.10
54.00,0.00,97.19,22.75,-146.62,4.44,-2.19,-5.12,84.50,5.12
54.00,1.00,325.75,-3.69,-51.69,1.19,-1.50,-1.12,84.50,5.12
54.00,2.00,298.25,-16.69,9.12,3.88,4.06,1.38,84.50,5.12
54.00,0.00,97.12,22.62,-146.75,4.31,-4.94,-4.12,84.65,5.14
54.00,1.00,325.75,-3.69,-51.75,1.69,-0.31,0.69,84.65,5.14
54.00,2.00,298.19,-16.75,9.06,-0.38,1.19,4.12,84.65,5.14
54.00,0.00,97.06,22.50,-146.81,2.75,-7.81,-3.69,84.85,5.16
54.00,1.00,325.75,-3.69,-51.75,1.69,1.00,1.25,84.85,5.16
54.00,2.00,298.12,-16.75,9.06,-3.06,-1.06,5.50,84.85,5.16
54.00,0.00,97.06,22.31,-146.81,1.31,-8.69,-3.62,84.92,5.18
54.00,1.00,325.69,-3.69,-51.75,1.06,0.81,1.62,84.92,5.18
54.00,2.00,298.06,-16.75,9.12,-0.81,0.81,1.62,84.92,5.18
54.00,0.00,97.00,22.19,-146.88,1.19,-5.88,-3.19,84.95,5.20
54.00,1.00,325.69,-3.69,-51.81,1.19,0.62,2.12,84.95,5.20
54.00,2.00,298.00,-16.81,9.12,0.25,1.12,0.38,84.95,5.20
54.00,0.00,97.00,22.12,-146.88,1.06,-1.75,-2.62,84.89,5.22
54.00,1.00,325.62,-3.62,-51.81,1.00,-1.00,1.31,84.89,5.22
54.00,2.00,298.06,-16.81,9.06,2.94,1.75,-1.25,84.89,5.22
54.00,0.00,96.94,22.06,-146.88,0.19,0.19,-2.19,84.76,5.24
54.00,1.00,325.62,-3.62,-51.81,0.25,-1.69,0.94,84.76,5.24
54.00,2.00,298.12,-16.88,9.00,3.94,1.75,-1.44,84.76,5.24
54.00,0.00,96.88,22.06,-146.88,-0.12,-0.12,-1.31,84.69,5.26
54.00,1.00,325.62,-3.56,-51.81,1.00,-2.00,1.19,84.69,5.26
54.00,2.00,298.12,-16.88,9.00,2.00,-1.38,1.25,84.69,5.26
54.00,0.00,96.88,22.06,-146.81,-0.25,-1.00,-1.19,84.58,5.28
54.00,1.00,325.69,-3.56,-51.81,1.50,-2.38,0.69,84.58,5.28
54.00,2.00,298.06,-16.75,8.88,3.00,-4.81,2.50,84.58,5.28
54.00,0.00,96.88,22.00,-146.81,-0.38,-1.38,-1.00,84.29,5.30
54.00,1.00,325.75,-3.56,-51.81,1.94,-4.56,-1.19,84.29,5.30
54.00,2.00,298.06,-16.75,8.81,8.31,-4.00,-0.69,84.29,5.30
54.00,0.00,96.88,22.00,-146.81,0.06,0.12,-1.19,84.09,5.32
54.00,1.00,325.81,-3.56,-51.88,2.44,-5.88,-3.44,84.09,5.32
54.00,2.00,298.12,-16.62,8.62,6.00,-2.75,-1.69,84.09,5.32
54.00,0.00,96.81,21.94,-146.81,0.94,0.75,-1.94,84.02,5.34
54.00,1.00,325.94,-3.50,-51.88,2.31,-5.19,-2.88,84.02,5.34
54.00,2.00,298.12,-16.56,8.56,3.00,-2.06,-0.44,84.02,5.34
54.00,0.00,96.75,21.94,-146.88,2.19,-0.50,-2.38,84.02,5.36
54.00,1.00,326.06,-3.50,-51.94,0.81,-4.62,-1.12,84.02,5.36
54.00,2.00,298.12,-16.56,8.50,2.31,-1.75,-0.50,84.02,5.36
54.00,0.00,96.69,21.88,-146.94,4.00,-1.25,-1.81,84.13,5.38
54.00,1.00,326.06,-3.44,-51.94,0.44,-4.12,-0.19,84.13,5.38
54.00,2.00,298.12,-16.50,8.50,0.56,-1.12,-0.81,84.13,5.38
54.00,0.00,96.69,21.81,-147.06,6.38,-2.69,-0.69,84.35,5.40
54.00,1.00,326.12,-3.38,-51.94,0.56,-3.19,-0.19,84.35,5.40
54.00,2.00,298.12,-16.50,8.50,0.00,-0.25,-1.44,84.35,5.40
54.00,0.00,96.69,21.75,-147.19,8.81,-2.88,0.88,84.62,5.42
54.00,1.00,326.12,-3.38,-51.94,1.19,-3.25,0.38,84.62,5.42
54.00,2.00,298.19,-16.50,8.50,0.56,-0.19,-1.81,84.62,5.42
54.00,0.00,96.62,21.75,-147.38,8.12,-0.62,0.62,84.77,5.44
54.00,1.00,326.12,-3.31,-51.94,2.19,-3.62,1.75,84.77,5.44
54.00,2.00,298.25,-16.50,8.44,3.69,1.88,-3.06,84.77,5.44
54.00,0.00,96.62,21.75,-147.50,5.62,0.81,-1.19,84.80,5.46
54.00,1.00,326.12,-3.25,-52.00,1.56,-2.81,2.25,84.80,5.46
54.00,2.00,298.31,-16.50,8.44,4.75,1.62,-3.50,84.80,5.46
54.00,0.00,96.56,21.69,-147.56,3.31,-2.56,-2.31,84.82,5.48
54.00,1.00,326.12,-3.19,-52.00,1.12,-2.69,2.62,84.82,5.48
54.00,2.00,298.38,-16.50,8.31,2.75,-1.94,-0.56,84.82,5.48
54.00,0.00,96.56,21.62,-147.62,2.81,-6.12,-0.94,84.85,5.50
54.00,1.00,326.12,-3.12,-52.00,1.12,-0.94,2.31,84.85,5.50
54.00,2.00,298.38,-16.44,8.31,2.06,-2.06,0.19,84.85,5.50
54.00,0.00,96.56,21.50,-147.75,3.00,-7.25,1.00,84.87,5.52
54.00,1.00,326.06,-3.06,-52.00,1.44,-0.12,2.69,84.87,5.52
54.00,2.00,298.38,-16.44,8.25,2.25,-1.12,0.12,84.87,5.52
54.00,0.00,96.62,21.44,-147.81,3.31,-4.31,2.00,84.88,5.54
54.00,1.00,326.00,-3.00,-52.06,2.19,0.19,3.19,84.88,5.54
54.00,2.00,298.38,-16.44,8.19,2.94,-0.19,-1.25,84.88,5.54
54.00,0.00,96.69,21.44,-147.88,2.56,-1.19,1.69,84.87,5.56
54.00,1.00,325.94,-3.00,-52.06,1.00,-0.25,2.81,84.87,5.56
54.00,2.00,298.44,-16.38,8.12,3.12,0.31,-1.94,84.87,5.56
54.00,0.00,96.69,21.44,-147.94,1.25,2.31,0.81,84.84,5.58
54.00,1.00,325.88,-2.94,-52.12,1.44,-1.44,1.81,84.84,5.58
54.00,2.00,298.44,-16.38,8.12,2.12,-1.44,-1.12,84.84,5.58
54.00,0.00,96.62,21.50,-147.94,0.75,3.31,0.38,84.79,5.60
54.00,1.00,325.88,-2.88,-52.12,1.50,-2.69,1.12,84.79,5.60
54.00,2.00,298.50,-16.38,8.06,2.06,-1.75,-1.31,84.79,5.60
54.00,0.00,96.62,21.56,-147.94,0.31,3.94,0.19,84.75,5.62
54.00,1.00,325.88,-2.88,-52.12,1.31,-2.50,1.88,84.75,5.62
54.00,2.00,298.56,-16.31,8.06,1.50,-2.50,-2.00,84.75,5.62
54.00,0.00,96.62,21.56,-147.94,-0.06,1.88,-0.44,84.68,5.64
54.00,1.00,325.88,-2.81,-52.19,1.75,-2.75,2.06,84.68,5.64
54.00,2.00,298.56,-16.25,8.00,2.06,-2.19,0.06,84.68,5.64
54.00,0.00,96.56,21.50,-147.94,-0.25,-1.94,-1.19,84.63,5.66
54.00,1.00,325.88,-2.75,-52.19,1.88,-1.88,2.44,84.63,5.66
54.00,2.00,298.50,-16.25,7.94,1.25,-2.12,1.06,84.63,5.66
54.00,0.00,96.56,21.38,-147.94,0.56,-4.75,-2.19,84.63,5.68
54.00,1.00,325.81,-2.69,-52.25,1.94,-2.25,2.00,84.63,5.68
54.00,2.00,298.50,-16.19,7.94,0.69,-1.25,0.69,84.63,5.68
54.00,0.00,96.56,21.31,-148.00,1.81,-4.69,-2.75,84.62,5.70
54.00,1.00,325.81,-2.62,-52.25,2.25,-2.50,1.88,84.62,5.70
54.00,2.00,298.50,-16.19,7.94,1.88,-1.31,0.31,84.62,5.70
54.00,0.00,96.50,21.19,-148.00,2.00,-4.62,-2.81,84.43,5.72
54.00,1.00,325.88,-2.62,-52.31,3.19,-4.06,0.94,84.43,5.72
54.00,2.00,298.50,-16.19,7.81,7.62,-0.25,1.50,84.43,5.72
54.00,0.00,96.44,21.00,-148.00,0.44,-7.69,-3.88,84.15,5.74
54.00,1.00,326.00,-2.56,-52.38,1.25,-8.75,-3.88,84.15,5.74
54.00,2.00,298.44,-16.12,7.62,9.06,-1.81,3.88,84.15,5.74
54.00,0.00,96.44,20.81,-148.06,-0.31,-10.88,-5.12,84.11,5.76
54.00,1.00,326.19,-2.56,-52.31,-5.38,-5.44,-7.38,84.11,5.76
54.00,2.00,298.38,-16.06,7.50,0.75,-5.50,3.75,84.11,5.76
54.00,0.00,96.38,20.50,-148.06,0.81,-14.00,-5.50,84.17,5.78
54.00,1.00,326.31,-2.62,-52.19,-2.19,-2.12,-3.62,84.17,5.78
54.00,2.00,298.31,-15.94,7.50,-1.06,-5.38,3.00,84.17,5.78
54.00,0.00,96.31,20.19,-148.12,2.88,-12.44,-7.31,84.18,5.80
54.00,1.00,326.31,-2.56,-52.19,1.69,-4.19,1.06,84.18,5.80
54.00,2.00,298.25,-15.88,7.44,2.62,-4.44,4.50,84.18,5.80
54.00,0.00,96.19,20.00,-148.19,3.06,-4.25,-6.12,84.00,5.82
54.00,1.00,326.38,-2.50,-52.25,2.12,-5.75,0.50,84.00,5.82
54.00,2.00,298.19,-15.88,7.31,8.31,-0.69,0.56,84.00,5.82
54.00,0.00,96.12,19.94,-148.19,2.88,2.00,-2.50,83.88,5.84
54.00,1.00,326.38,-2.44,-52.31,2.44,-4.88,1.25,83.88,5.84
54.00,2.00,298.25,-15.88,7.19,6.62,0.31,-2.56,83.88,5.84
54.00,0.00,96.00,20.06,-148.25,3.56,8.25,-0.62,83.97,5.86
54.00,1.00,326.44,-2.38,-52.31,1.69,-2.88,1.50,83.97,5.86
54.00,2.00,298.31,-15.81,7.12,0.75,-2.38,-1.62,83.97,5.86
