Iteration,IMUNo,OrientationX (deg),OrientationY,OrientationZ,GyroX (20rad/sec),GyroY,GyroZ,Elbow_Pos (rad),Time (sec)
56.00,0.00,256.56,6.44,-93.25,-0.06,-0.25,0.12,0.00,1.00
56.00,1.00,337.50,0.25,-51.56,0.00,-0.56,-0.50,0.00,1.00
56.00,2.00,318.75,-18.44,21.19,0.06,0.19,-0.56,0.00,1.02
56.00,0.00,256.56,6.44,-93.25,-0.12,-0.25,0.06,-0.02,1.02
56.00,1.00,337.50,0.25,-51.56,0.38,-0.69,0.06,-0.02,1.02
56.00,2.00,318.75,-18.44,21.19,0.44,0.31,-0.56,-0.02,1.02
56.00,0.00,256.56,6.44,-93.25,-0.06,-0.44,0.00,-0.03,1.04
56.00,1.00,337.50,0.25,-51.56,0.38,-0.31,-0.06,-0.03,1.04
56.00,2.00,318.75,-18.44,21.19,0.25,0.38,-0.69,-0.03,1.04
56.00,0.00,256.56,6.44,-93.25,0.06,-0.38,-0.12,-0.02,1.06
56.00,1.00,337.50,0.25,-51.56,0.38,-0.31,-0.12,-0.02,1.06
56.00,2.00,318.75,-18.44,21.19,-0.19,0.31,-0.12,-0.02,1.06
56.00,0.00,256.56,6.44,-93.25,0.12,-0.12,-0.12,-0.01,1.08
56.00,1.00,337.50,0.25,-51.56,0.69,-0.25,-0.31,-0.01,1.08
56.00,2.00,318.75,-18.44,21.19,-0.31,0.44,-0.12,-0.01,1.08
56.00,0.00,256.56,6.44,-93.25,0.31,-0.06,-0.44,0.00,1.10
56.00,1.00,337.50,0.25,-51.56,0.50,-0.12,-0.56,0.00,1.10
56.00,2.00,318.75,-18.44,21.19,0.12,0.69,-0.19,0.00,1.10
56.00,0.00,256.56,6.44,-93.25,0.44,0.12,-0.50,0.00,1.12
56.00,1.00,337.50,0.25,-51.56,0.44,-0.12,-0.62,0.00,1.12
56.00,2.00,318.75,-18.44,21.19,0.44,0.62,-0.19,0.00,1.12
56.00,0.00,256.56,6.44,-93.25,0.44,-0.25,-0.25,0.01,1.14
56.00,1.00,337.50,0.25,-51.56,0.62,-0.50,-0.44,0.01,1.14
56.00,2.00,318.75,-18.44,21.19,0.12,0.62,-0.19,0.01,1.14
56.00,0.00,256.56,6.44,-93.25,0.56,-0.31,0.12,0.02,1.16
56.00,1.00,337.50,0.25,-51.56,0.56,-0.31,-0.25,0.02,1.16
56.00,2.00,318.75,-18.50,21.19,0.12,0.62,-0.12,0.02,1.16
56.00,0.00,256.56,6.44,-93.25,0.31,-0.19,0.25,0.02,1.18
56.00,1.00,337.50,0.25,-51.56,0.56,-0.31,-0.38,0.02,1.18
56.00,2.00,318.75,-18.50,21.19,0.25,0.38,-0.06,0.02,1.18
56.00,0.00,256.56,6.44,-93.25,0.06,-0.69,0.00,0.02,1.20
56.00,1.00,337.50,0.25,-51.50,0.56,-0.31,0.12,0.02,1.20
56.00,2.00,318.75,-18.50,21.19,0.00,0.25,0.00,0.02,1.20
56.00,0.00,256.56,6.44,-93.25,-0.12,-0.31,-0.06,0.02,1.22
56.00,1.00,337.50,0.25,-51.50,0.50,-0.19,0.19,0.02,1.22
56.00,2.00,318.75,-18.50,21.19,0.00,0.00,0.25,0.02,1.22
56.00,0.00,256.56,6.44,-93.25,-0.19,-0.38,-0.19,0.01,1.24
56.00,1.00,337.50,0.25,-51.50,0.69,0.00,-0.06,0.01,1.24
56.00,2.00,318.75,-18.50,21.19,0.00,0.31,0.06,0.01,1.24
56.00,0.00,256.56,6.44,-93.25,-0.06,0.38,-0.12,0.01,1.26
56.00,1.00,337.50,0.25,-51.50,0.25,0.00,-0.25,0.01,1.26
56.00,2.00,318.75,-18.50,21.19,0.06,0.31,0.19,0.01,1.26
56.00,0.00,256.56,6.44,-93.25,0.00,0.50,-0.12,0.03,1.28
56.00,1.00,337.50,0.25,-51.50,0.44,-0.12,0.00,0.03,1.28
56.00,2.00,318.75,-18.50,21.19,-0.50,-0.12,0.12,0.03,1.28
56.00,0.00,256.56,6.44,-93.25,0.00,0.38,-0.06,0.03,1.30
56.00,1.00,337.50,0.19,-51.50,0.19,0.00,0.31,0.03,1.30
56.00,2.00,318.75,-18.50,21.19,-0.19,0.25,-0.06,0.03,1.30
56.00,0.00,256.56,6.44,-93.25,0.19,0.38,-0.06,0.03,1.32
56.00,1.00,337.50,0.19,-51.50,0.25,-0.44,0.12,0.03,1.32
56.00,2.00,318.75,-18.50,21.19,0.31,0.44,-0.06,0.03,1.32
56.00,0.00,256.56,6.44,-93.25,0.31,0.31,0.06,0.02,1.34
56.00,1.00,337.50,0.19,-51.50,0.56,-0.50,0.00,0.02,1.34
56.00,2.00,318.75,-18.50,21.19,0.44,0.56,-0.25,0.02,1.34
56.00,0.00,256.56,6.44,-93.25,0.12,0.12,0.06,0.02,1.36
56.00,1.00,337.50,0.19,-51.50,0.44,0.12,-0.12,0.02,1.36
56.00,2.00,318.75,-18.50,21.19,0.31,0.81,-0.25,0.02,1.36
56.00,0.00,256.56,6.44,-93.25,0.25,-0.38,0.06,0.03,1.38
56.00,1.00,337.50,0.19,-51.50,0.25,0.12,-0.25,0.03,1.38
56.00,2.00,318.75,-18.50,21.19,-0.31,0.31,-0.12,0.03,1.38
56.00,0.00,256.56,6.44,-93.25,-0.06,-0.44,-0.12,0.04,1.40
56.00,1.00,337.50,0.19,-51.50,0.19,0.31,-0.38,0.04,1.40
56.00,2.00,318.75,-18.50,21.19,-0.31,0.56,0.06,0.04,1.40
56.00,0.00,256.56,6.44,-93.25,-0.31,-0.12,-0.44,0.05,1.42
56.00,1.00,337.50,0.19,-51.50,-0.19,0.38,-0.12,0.05,1.42
56.00,2.00,318.75,-18.50,21.19,-0.69,0.31,-0.12,0.05,1.42
56.00,0.00,256.56,6.44,-93.25,-0.69,0.38,-0.38,0.05,1.44
56.00,1.00,337.50,0.19,-51.50,-0.19,0.19,-0.06,0.05,1.44
56.00,2.00,318.75,-18.50,21.19,-0.62,0.50,0.06,0.05,1.44
56.00,0.00,256.56,6.44,-93.25,-0.31,0.88,0.00,0.06,1.46
56.00,1.00,337.50,0.19,-51.50,0.06,0.31,-0.25,0.06,1.46
56.00,2.00,318.75,-18.50,21.25,-0.62,0.75,-0.19,0.06,1.46
56.00,0.00,256.56,6.44,-93.25,0.06,0.44,0.44,0.10,1.48
56.00,1.00,337.50,0.19,-51.50,-0.06,0.06,0.12,0.10,1.48
56.00,2.00,318.75,-18.50,21.25,-1.19,1.00,-0.19,0.10,1.48
56.00,0.00,256.56,6.44,-93.25,0.75,0.62,0.81,0.17,1.50
56.00,1.00,337.50,0.19,-51.50,-0.50,0.38,0.00,0.17,1.50
56.00,2.00,318.75,-18.50,21.25,-1.62,0.44,-0.12,0.17,1.50
56.00,0.00,256.50,6.44,-93.25,1.12,0.56,1.06,0.26,1.52
56.00,1.00,337.50,0.19,-51.44,-0.31,0.38,0.06,0.26,1.52
56.00,2.00,318.75,-18.50,21.31,-1.56,-0.38,0.19,0.26,1.52
56.00,0.00,256.50,6.44,-93.31,2.00,0.94,1.19,0.33,1.54
56.00,1.00,337.50,0.19,-51.44,-0.19,0.31,-0.06,0.33,1.54
56.00,2.00,318.75,-18.50,21.31,-0.50,-1.19,0.19,0.33,1.54
56.00,0.00,256.44,6.50,-93.38,3.56,2.00,1.25,0.44,1.56
56.00,1.00,337.50,0.19,-51.44,-0.50,0.56,-0.38,0.44,1.56
56.00,2.00,318.75,-18.50,21.31,0.25,-2.38,-0.06,0.44,1.56
56.00,0.00,256.31,6.50,-93.50,6.19,2.31,2.44,0.63,1.58
56.00,1.00,337.56,0.19,-51.44,-0.94,0.12,-0.56,0.63,1.58
56.00,2.00,318.69,-18.44,21.31,0.00,-3.44,0.06,0.63,1.58
56.00,0.00,256.25,6.56,-93.62,10.44,1.44,4.50,0.94,1.60
56.00,1.00,337.56,0.12,-51.38,-1.69,0.06,-1.19,0.94,1.60
56.00,2.00,318.69,-18.38,21.31,0.25,-2.31,-0.12,0.94,1.60
56.00,0.00,256.06,6.69,-93.88,14.44,1.12,6.56,1.33,1.62
56.00,1.00,337.56,0.12,-51.38,-1.81,0.00,-1.88,1.33,1.62
56.00,2.00,318.69,-18.38,21.31,1.94,-0.06,0.69,1.33,1.62
56.00,0.00,255.88,6.88,-94.19,16.25,1.31,7.88,1.76,1.64
56.00,1.00,337.62,0.06,-51.31,-0.94,0.56,-2.56,1.76,1.64
56.00,2.00,318.69,-18.38,21.25,2.06,0.50,1.12,1.76,1.64
56.00,0.00,255.56,7.00,-94.56,19.19,3.50,10.19,2.32,1.66
56.00,1.00,337.69,0.06,-51.31,-0.50,0.50,-2.31,2.32,1.66
56.00,2.00,318.69,-18.38,21.25,1.19,0.31,1.25,2.32,1.66
56.00,0.00,255.25,7.25,-94.94,20.81,6.69,10.38,2.95,1.68
56.00,1.00,337.69,0.00,-51.31,-0.19,0.75,-1.62,2.95,1.68
56.00,2.00,318.62,-18.44,21.19,0.50,-0.31,2.44,2.95,1.68
56.00,0.00,254.81,7.44,-95.38,22.00,7.62,11.25,3.62,1.70
56.00,1.00,337.75,0.00,-51.31,0.00,1.12,-1.06,3.62,1.70
56.00,2.00,318.56,-18.44,21.19,0.06,-0.56,3.75,3.62,1.70
56.00,0.00,254.38,7.69,-95.88,26.56,5.19,12.25,4.45,1.72
56.00,1.00,337.75,0.00,-51.25,0.00,1.06,-0.44,4.45,1.72
56.00,2.00,318.44,-18.44,21.12,-0.31,-1.31,5.75,4.45,1.72
56.00,0.00,253.94,7.94,-96.38,27.25,3.69,12.12,5.29,1.74
56.00,1.00,337.69,0.00,-51.25,0.12,1.19,-0.25,5.29,1.74
56.00,2.00,318.31,-18.50,21.06,0.00,-1.50,7.12,5.29,1.74
56.00,0.00,253.56,8.19,-97.00,28.31,3.62,11.88,6.16,1.76
56.00,1.00,337.69,0.00,-51.25,0.50,1.94,-0.12,6.16,1.76
56.00,2.00,318.19,-18.50,21.00,0.19,-1.44,6.69,6.16,1.76
56.00,0.00,253.19,8.38,-97.62,27.69,5.12,11.00,7.04,1.78
56.00,1.00,337.69,-0.06,-51.25,0.31,1.94,0.62,7.04,1.78
56.00,2.00,318.06,-18.56,21.00,-0.75,-1.75,7.06,7.04,1.78
56.00,0.00,252.75,8.62,-98.19,27.31,6.56,11.00,7.92,1.80
56.00,1.00,337.62,-0.06,-51.25,-0.19,2.75,1.31,7.92,1.80
56.00,2.00,317.88,-18.56,20.94,-1.38,-2.19,8.44,7.92,1.80
56.00,0.00,252.31,8.81,-98.75,29.94,5.69,12.62,8.92,1.82
56.00,1.00,337.56,-0.06,-51.25,0.12,3.25,1.62,8.92,1.82
56.00,2.00,317.69,-18.62,20.88,-2.44,-1.75,9.31,8.92,1.82
56.00,0.00,251.88,9.06,-99.38,32.56,3.50,14.38,10.02,1.84
56.00,1.00,337.50,-0.06,-51.25,-1.44,3.94,2.00,10.02,1.84
56.00,2.00,317.44,-18.62,20.88,-3.12,-3.12,11.12,10.02,1.84
56.00,0.00,251.50,9.31,-100.06,34.25,0.44,14.75,11.15,1.86
56.00,1.00,337.44,-0.12,-51.25,-0.44,4.75,1.88,11.15,1.86
56.00,2.00,317.19,-18.62,20.81,-2.19,-3.50,11.31,11.15,1.86
56.00,0.00,251.12,9.56,-100.75,33.81,-1.38,12.69,12.23,1.88
56.00,1.00,337.31,-0.12,-51.19,-1.12,4.56,1.94,12.23,1.88
56.00,2.00,316.94,-18.69,20.81,-1.31,-3.12,10.75,12.23,1.88
56.00,0.00,250.75,9.75,-101.38,32.44,-0.62,10.75,13.26,1.90
56.00,1.00,337.25,-0.19,-51.19,0.00,5.38,2.00,13.26,1.90
56.00,2.00,316.75,-18.69,20.75,-0.88,-3.25,9.44,13.26,1.90
56.00,0.00,250.50,9.94,-102.06,34.38,-3.19,10.50,14.32,1.92
56.00,1.00,337.19,-0.19,-51.19,-0.81,4.62,2.19,14.32,1.92
56.00,2.00,316.56,-18.69,20.69,-0.06,-2.31,8.62,14.32,1.92
56.00,0.00,250.25,10.12,-102.81,37.44,-4.62,11.94,15.47,1.94
56.00,1.00,337.06,-0.25,-51.19,-0.38,4.81,2.12,15.47,1.94
56.00,2.00,316.44,-18.69,20.62,0.12,-2.88,8.75,15.47,1.94
56.00,0.00,249.81,10.38,-103.56,39.31,-0.62,12.06,16.68,1.96
56.00,1.00,337.00,-0.25,-51.19,-0.69,3.88,1.12,16.68,1.96
56.00,2.00,316.19,-18.69,20.56,0.06,-3.94,9.88,16.68,1.96
56.00,0.00,249.38,10.62,-104.31,39.44,2.81,11.88,17.88,1.98
56.00,1.00,337.00,-0.31,-51.12,-0.62,3.25,0.62,17.88,1.98
56.00,2.00,316.00,-18.69,20.50,0.62,-3.62,10.94,17.88,1.98
56.00,0.00,248.88,10.88,-105.12,40.00,2.88,12.69,19.06,2.00
56.00,1.00,336.94,-0.38,-51.12,0.06,3.81,0.31,19.06,2.00
56.00,2.00,315.75,-18.75,20.38,1.75,-3.69,11.12,19.06,2.00
56.00,0.00,248.38,11.12,-105.94,42.62,0.69,15.25,20.28,2.02
56.00,1.00,336.94,-0.44,-51.12,-0.38,3.12,0.56,20.28,2.02
56.00,2.00,315.56,-18.75,20.25,3.25,-4.06,10.94,20.28,2.02
56.00,0.00,247.81,11.44,-106.75,42.81,0.50,15.44,21.47,2.04
56.00,1.00,336.88,-0.44,-51.12,-0.88,3.75,0.62,21.47,2.04
56.00,2.00,315.31,-18.75,20.06,4.06,-3.12,10.69,21.47,2.04
56.00,0.00,247.31,11.69,-107.62,42.69,0.56,14.25,22.74,2.06
56.00,1.00,336.81,-0.50,-51.12,-0.31,3.69,1.31,22.74,2.06
56.00,2.00,315.12,-18.75,19.94,1.75,-4.38,10.31,22.74,2.06
56.00,0.00,246.81,11.94,-108.44,43.12,0.06,14.25,24.04,2.08
56.00,1.00,336.75,-0.50,-51.12,-0.75,3.00,1.38,24.04,2.08
56.00,2.00,314.94,-18.69,19.88,0.81,-5.25,10.25,24.04,2.08
56.00,0.00,246.25,12.25,-109.31,43.56,0.00,15.12,25.29,2.10
56.00,1.00,336.75,-0.56,-51.06,-0.88,3.06,1.25,25.29,2.10
56.00,2.00,314.69,-18.69,19.75,2.94,-5.12,10.38,25.29,2.10
56.00,0.00,245.69,12.50,-110.19,43.75,0.19,15.19,26.50,2.12
56.00,1.00,336.69,-0.56,-51.06,-0.50,3.44,1.06,26.50,2.12
56.00,2.00,314.50,-18.69,19.62,4.56,-4.62,10.25,26.50,2.12
56.00,0.00,245.06,12.81,-111.06,43.50,1.19,15.19,27.73,2.14
56.00,1.00,336.62,-0.62,-51.06,-0.88,3.56,1.50,27.73,2.14
56.00,2.00,314.31,-18.62,19.44,3.88,-5.38,11.12,27.73,2.14
56.00,0.00,244.44,13.06,-111.94,43.25,1.56,15.75,28.99,2.16
56.00,1.00,336.56,-0.62,-51.06,-0.94,3.56,2.06,28.99,2.16
56.00,2.00,314.06,-18.62,19.31,2.19,-5.94,12.31,28.99,2.16
56.00,0.00,243.81,13.38,-112.75,41.56,1.94,15.38,30.20,2.18
56.00,1.00,336.50,-0.62,-51.00,-1.12,3.06,2.38,30.20,2.18
56.00,2.00,313.81,-18.56,19.12,2.31,-6.75,12.88,30.20,2.18
56.00,0.00,243.25,13.62,-113.50,39.56,1.62,13.88,31.33,2.20
56.00,1.00,336.38,-0.62,-51.00,-0.75,3.75,2.50,31.33,2.20
56.00,2.00,313.50,-18.56,19.00,3.00,-6.12,12.25,31.33,2.20
56.00,0.00,242.62,13.88,-114.31,40.56,0.12,14.81,32.50,2.22
56.00,1.00,336.31,-0.62,-51.00,-0.69,3.69,2.75,32.50,2.22
56.00,2.00,313.31,-18.50,18.88,2.81,-6.12,12.38,32.50,2.22
56.00,0.00,242.00,14.12,-115.19,41.69,0.75,16.38,33.71,2.24
56.00,1.00,336.25,-0.69,-51.00,-0.31,4.50,2.50,33.71,2.24
56.00,2.00,313.00,-18.50,18.69,2.38,-6.44,13.31,33.71,2.24
56.00,0.00,241.31,14.44,-116.00,41.56,2.50,15.88,34.90,2.26
56.00,1.00,336.12,-0.69,-51.00,0.00,4.25,2.06,34.90,2.26
56.00,2.00,312.75,-18.44,18.56,2.94,-6.44,13.75,34.90,2.26
56.00,0.00,240.56,14.75,-116.81,40.69,2.94,15.62,36.03,2.28
56.00,1.00,336.06,-0.69,-51.00,-0.88,4.38,2.56,36.03,2.28
56.00,2.00,312.50,-18.44,18.38,4.12,-6.25,13.31,36.03,2.28
56.00,0.00,239.81,15.00,-117.56,38.25,4.38,15.12,37.11,2.30
56.00,1.00,335.94,-0.69,-50.94,-0.56,4.31,2.88,37.11,2.30
56.00,2.00,312.19,-18.38,18.19,3.12,-7.00,13.50,37.11,2.30
56.00,0.00,239.06,15.25,-118.25,37.25,4.56,14.81,38.20,2.32
56.00,1.00,335.88,-0.69,-50.94,-0.38,3.88,3.56,38.20,2.32
56.00,2.00,311.94,-18.31,18.06,1.94,-8.62,13.88,38.20,2.32
56.00,0.00,238.31,15.56,-119.00,37.69,4.94,15.00,39.29,2.34
56.00,1.00,335.75,-0.69,-50.94,-0.62,4.06,3.69,39.29,2.34
56.00,2.00,311.62,-18.25,17.94,2.31,-9.12,14.50,39.29,2.34
56.00,0.00,237.56,15.81,-119.69,35.69,5.50,13.44,40.31,2.36
56.00,1.00,335.62,-0.69,-50.94,0.25,4.31,4.06,40.31,2.36
56.00,2.00,311.31,-18.12,17.75,2.69,-9.50,15.12,40.31,2.36
56.00,0.00,236.88,16.06,-120.31,33.81,5.06,12.50,41.22,2.38
56.00,1.00,335.50,-0.69,-50.94,-0.56,4.75,4.81,41.22,2.38
56.00,2.00,311.00,-18.06,17.56,4.25,-9.19,15.25,41.22,2.38
56.00,0.00,236.19,16.31,-120.94,32.88,4.38,13.06,42.12,2.40
56.00,1.00,335.38,-0.69,-50.94,-1.25,4.94,4.69,42.12,2.40
56.00,2.00,310.69,-18.00,17.38,3.88,-8.69,16.56,42.12,2.40
56.00,0.00,235.44,16.56,-121.56,31.25,4.50,12.75,43.06,2.42
56.00,1.00,335.25,-0.69,-50.88,-2.00,6.12,5.25,43.06,2.42
56.00,2.00,310.31,-17.94,17.19,0.62,-9.75,17.69,43.06,2.42
56.00,0.00,234.69,16.81,-122.19,31.81,4.19,13.00,44.10,2.44
56.00,1.00,335.12,-0.69,-50.88,-1.62,5.88,5.31,44.10,2.44
56.00,2.00,309.94,-17.81,17.12,-1.69,-11.31,17.94,44.10,2.44
56.00,0.00,233.94,17.06,-122.81,30.88,6.12,12.75,45.06,2.46
56.00,1.00,334.94,-0.69,-50.81,-2.00,6.06,4.88,45.06,2.46
56.00,2.00,309.56,-17.69,17.00,-0.25,-10.75,17.75,45.06,2.46
56.00,0.00,233.19,17.31,-123.38,30.00,7.19,11.69,45.90,2.48
56.00,1.00,334.75,-0.75,-50.75,-1.12,5.62,4.56,45.90,2.48
56.00,2.00,309.19,-17.62,16.81,2.69,-8.06,15.94,45.90,2.48
56.00,0.00,232.50,17.50,-123.94,31.69,5.56,12.38,46.78,2.50
56.00,1.00,334.69,-0.75,-50.75,-1.44,6.38,4.44,46.78,2.50
56.00,2.00,308.94,-17.62,16.69,3.25,-6.50,14.69,46.78,2.50
56.00,0.00,231.81,17.69,-124.56,32.88,3.69,13.50,47.74,2.52
56.00,1.00,334.56,-0.75,-50.75,-1.38,5.25,4.19,47.74,2.52
56.00,2.00,308.62,-17.56,16.56,1.62,-5.75,14.44,47.74,2.52
56.00,0.00,231.12,17.88,-125.25,34.44,1.69,14.44,48.79,2.54
56.00,1.00,334.44,-0.75,-50.69,-1.38,6.19,4.00,48.79,2.54
56.00,2.00,308.31,-17.56,16.44,0.62,-4.75,14.81,48.79,2.54
56.00,0.00,230.31,18.12,-125.94,33.06,1.69,13.25,49.80,2.56
56.00,1.00,334.25,-0.81,-50.62,-1.00,6.00,3.50,49.80,2.56
56.00,2.00,308.06,-17.56,16.38,0.19,-3.06,14.56,49.80,2.56
56.00,0.00,229.56,18.31,-126.62,32.81,2.31,11.56,50.82,2.58
56.00,1.00,334.19,-0.81,-50.62,-0.81,5.62,3.75,50.82,2.58
56.00,2.00,307.75,-17.56,16.25,-0.19,-4.44,14.06,50.82,2.58
56.00,0.00,228.88,18.50,-127.25,32.94,2.62,11.38,51.78,2.60
56.00,1.00,334.06,-0.88,-50.56,-0.81,5.25,2.81,51.78,2.60
56.00,2.00,307.50,-17.56,16.19,1.62,-4.19,13.69,51.78,2.60
56.00,0.00,228.19,18.69,-127.88,32.44,2.38,10.94,52.69,2.62
56.00,1.00,334.00,-0.88,-50.56,-0.19,5.44,2.94,52.69,2.62
56.00,2.00,307.25,-17.56,16.06,3.19,-3.69,12.81,52.69,2.62
56.00,0.00,227.56,18.81,-128.50,33.25,1.75,11.50,53.64,2.64
56.00,1.00,333.88,-0.88,-50.56,-0.25,5.44,3.31,53.64,2.64
56.00,2.00,307.00,-17.56,15.94,2.25,-3.94,12.06,53.64,2.64
56.00,0.00,226.81,19.00,-129.12,32.62,2.12,11.50,54.61,2.66
56.00,1.00,333.75,-0.94,-50.56,-0.19,4.62,2.94,54.61,2.66
56.00,2.00,306.75,-17.50,15.81,1.19,-5.12,12.62,54.61,2.66
56.00,0.00,226.06,19.12,-129.69,30.69,3.38,10.62,55.54,2.68
56.00,1.00,333.69,-0.94,-50.50,-0.69,4.69,2.50,55.54,2.68
56.00,2.00,306.50,-17.50,15.75,0.75,-5.12,12.69,55.54,2.68
56.00,0.00,225.31,19.31,-130.25,28.69,3.19,9.31,56.37,2.70
56.00,1.00,333.62,-1.00,-50.50,-0.88,4.06,2.56,56.37,2.70
56.00,2.00,306.25,-17.44,15.62,1.62,-4.44,11.25,56.37,2.70
56.00,0.00,224.69,19.44,-130.81,28.75,2.75,8.38,57.17,2.72
56.00,1.00,333.50,-1.00,-50.50,-1.00,4.12,2.50,57.17,2.72
56.00,2.00,306.06,-17.44,15.50,2.94,-4.19,11.81,57.17,2.72
56.00,0.00,223.88,19.62,-131.44,31.25,1.44,9.75,58.01,2.74
56.00,1.00,333.44,-1.06,-50.50,0.12,4.88,2.12,58.01,2.74
56.00,2.00,305.81,-17.44,15.38,3.81,-3.69,12.00,58.01,2.74
56.00,0.00,223.12,19.75,-132.06,30.94,2.25,10.88,58.91,2.76
56.00,1.00,333.38,-1.06,-50.44,0.38,4.75,2.38,58.91,2.76
56.00,2.00,305.56,-17.44,15.25,2.00,-3.56,11.94,58.91,2.76
56.00,0.00,222.31,19.94,-132.62,28.81,4.25,10.88,59.78,2.78
56.00,1.00,333.25,-1.12,-50.44,-0.19,4.69,2.88,59.78,2.78
56.00,2.00,305.31,-17.38,15.19,0.50,-4.69,12.38,59.78,2.78
56.00,0.00,221.44,20.19,-133.12,25.94,6.38,9.62,60.54,2.80
56.00,1.00,333.19,-1.12,-50.44,-0.12,4.75,2.81,60.54,2.80
56.00,2.00,305.06,-17.38,15.06,1.31,-3.88,12.69,60.54,2.80
56.00,0.00,220.56,20.38,-133.56,25.06,7.25,9.12,61.26,2.82
56.00,1.00,333.06,-1.12,-50.44,-0.06,5.00,3.25,61.26,2.82
56.00,2.00,304.81,-17.38,14.94,1.88,-2.31,12.88,61.26,2.82
56.00,0.00,219.62,20.62,-134.06,23.88,7.69,8.88,61.97,2.84
56.00,1.00,332.94,-1.12,-50.44,0.69,5.31,3.69,61.97,2.84
56.00,2.00,304.56,-17.38,14.81,0.88,-2.38,13.44,61.97,2.84
56.00,0.00,218.75,20.81,-134.44,22.69,7.75,7.62,62.67,2.86
56.00,1.00,332.81,-1.19,-50.50,0.62,6.25,4.81,62.67,2.86
56.00,2.00,304.25,-17.38,14.75,-0.25,-3.62,14.50,62.67,2.86
56.00,0.00,218.00,21.00,-134.81,21.88,7.69,7.81,63.40,2.88
56.00,1.00,332.69,-1.19,-50.50,0.19,5.94,5.19,63.40,2.88
56.00,2.00,304.00,-17.38,14.69,-1.56,-4.50,15.12,63.40,2.88
56.00,0.00,217.19,21.25,-135.12,19.38,9.62,8.25,64.06,2.90
56.00,1.00,332.50,-1.12,-50.50,-0.88,5.25,5.56,64.06,2.90
56.00,2.00,303.62,-17.38,14.62,-2.25,-3.06,15.94,64.06,2.90
56.00,0.00,216.38,21.44,-135.44,17.88,8.75,8.50,64.70,2.92
56.00,1.00,332.31,-1.12,-50.44,-0.69,6.69,6.00,64.70,2.92
56.00,2.00,303.31,-17.44,14.56,-2.81,-1.69,15.88,64.70,2.92
56.00,0.00,215.56,21.69,-135.75,16.62,8.75,9.06,65.35,2.94
56.00,1.00,332.12,-1.12,-50.44,-0.88,7.00,6.12,65.35,2.94
56.00,2.00,303.00,-17.50,14.56,-4.31,-1.56,16.56,65.35,2.94
56.00,0.00,214.62,21.94,-136.06,17.94,9.31,9.62,66.04,2.96
56.00,1.00,331.94,-1.19,-50.44,-0.50,7.75,5.56,66.04,2.96
56.00,2.00,302.69,-17.50,14.56,-4.44,-3.62,16.44,66.04,2.96
56.00,0.00,213.69,22.25,-136.38,18.50,11.56,11.50,66.68,2.98
56.00,1.00,331.81,-1.19,-50.44,-0.69,7.44,5.88,66.68,2.98
56.00,2.00,302.31,-17.50,14.50,-2.44,-2.00,15.12,66.68,2.98
56.00,0.00,212.62,22.56,-136.69,15.38,12.94,10.44,67.23,3.00
56.00,1.00,331.62,-1.19,-50.44,-0.12,7.88,5.88,67.23,3.00
56.00,2.00,302.06,-17.56,14.44,-2.38,-1.19,13.38,67.23,3.00
56.00,0.00,211.69,22.88,-136.88,12.69,12.25,8.12,67.70,3.02
56.00,1.00,331.44,-1.19,-50.44,0.00,7.69,5.00,67.70,3.02
56.00,2.00,301.81,-17.56,14.44,-2.44,-2.12,12.50,67.70,3.02
56.00,0.00,211.00,23.06,-137.06,11.88,9.06,7.12,68.14,3.04
56.00,1.00,331.31,-1.25,-50.44,-1.06,7.00,4.81,68.14,3.04
56.00,2.00,301.56,-17.56,14.44,-2.50,-2.38,11.44,68.14,3.04
56.00,0.00,210.31,23.25,-137.31,12.81,5.12,8.12,68.55,3.06
56.00,1.00,331.12,-1.25,-50.44,-0.50,6.38,4.00,68.55,3.06
56.00,2.00,301.38,-17.56,14.44,-0.50,-2.69,10.19,68.55,3.06
56.00,0.00,209.88,23.31,-137.62,14.62,2.12,9.75,68.95,3.08
56.00,1.00,331.06,-1.31,-50.44,-0.44,5.56,3.56,68.95,3.08
56.00,2.00,301.19,-17.56,14.38,1.75,-1.75,9.69,68.95,3.08
56.00,0.00,209.62,23.38,-137.75,16.44,1.69,11.06,69.41,3.10
56.00,1.00,330.94,-1.31,-50.44,1.38,6.12,2.94,69.41,3.10
56.00,2.00,301.00,-17.56,14.31,1.56,-0.31,8.88,69.41,3.10
56.00,0.00,208.88,23.56,-138.12,16.69,4.81,11.69,69.91,3.12
56.00,1.00,330.81,-1.38,-50.44,1.38,5.69,2.88,69.91,3.12
56.00,2.00,300.81,-17.62,14.25,0.56,-0.75,9.38,69.91,3.12
56.00,0.00,208.06,23.81,-138.50,11.94,4.75,10.25,70.27,3.14
56.00,1.00,330.69,-1.44,-50.44,-0.31,4.69,3.69,70.27,3.14
56.00,2.00,300.69,-17.62,14.19,0.31,-2.31,9.06,70.27,3.14
56.00,0.00,207.44,24.00,-138.75,8.62,2.50,8.19,70.49,3.16
56.00,1.00,330.62,-1.44,-50.44,0.12,4.81,2.50,70.49,3.16
56.00,2.00,300.50,-17.56,14.12,1.44,-2.81,8.56,70.49,3.16
56.00,0.00,207.12,24.06,-138.88,6.56,-0.38,6.62,70.60,3.18
56.00,1.00,330.56,-1.50,-50.44,-0.88,3.81,2.44,70.60,3.18
56.00,2.00,300.38,-17.56,14.06,3.00,-1.94,6.69,70.60,3.18
56.00,0.00,206.88,24.12,-139.06,9.62,-5.19,7.12,70.82,3.20
56.00,1.00,330.50,-1.50,-50.44,-0.25,4.12,1.69,70.82,3.20
56.00,2.00,300.25,-17.56,14.00,2.44,-2.38,6.50,70.82,3.20
56.00,0.00,206.62,24.19,-139.38,13.25,-5.19,9.94,71.17,3.22
56.00,1.00,330.44,-1.56,-50.44,0.44,3.81,2.19,71.17,3.22
56.00,2.00,300.12,-17.56,13.88,1.88,-1.56,6.81,71.17,3.22
56.00,0.00,206.25,24.25,-139.75,12.12,-1.62,10.19,71.53,3.24
56.00,1.00,330.31,-1.56,-50.44,0.62,4.50,2.44,71.53,3.24
56.00,2.00,300.00,-17.56,13.81,0.56,-1.06,7.12,71.53,3.24
56.00,0.00,205.81,24.38,-140.00,9.19,1.12,8.31,71.83,3.26
56.00,1.00,330.25,-1.62,-50.44,0.31,4.56,2.06,71.83,3.26
56.00,2.00,299.81,-17.56,13.81,-0.62,-2.00,7.44,71.83,3.26
56.00,0.00,205.38,24.50,-140.25,6.62,2.00,7.44,72.05,3.28
56.00,1.00,330.19,-1.62,-50.44,-0.62,2.88,2.38,72.05,3.28
56.00,2.00,299.69,-17.56,13.75,-0.62,-1.19,6.88,72.05,3.28
56.00,0.00,205.19,24.50,-140.31,7.00,0.25,7.50,72.30,3.30
56.00,1.00,330.12,-1.62,-50.44,-1.69,2.88,2.69,72.30,3.30
56.00,2.00,299.56,-17.56,13.75,-1.12,-0.56,6.81,72.30,3.30
56.00,0.00,204.88,24.62,-140.50,6.50,0.50,8.56,72.54,3.32
56.00,1.00,330.00,-1.69,-50.44,0.31,4.81,2.00,72.54,3.32
56.00,2.00,299.44,-17.56,13.75,-1.06,-1.75,6.62,72.54,3.32
56.00,0.00,204.50,24.75,-140.69,4.62,0.62,5.75,72.71,3.34
56.00,1.00,329.94,-1.69,-50.38,-1.25,2.81,1.69,72.71,3.34
56.00,2.00,299.31,-17.56,13.69,-0.81,-0.31,6.25,72.71,3.34
56.00,0.00,204.56,24.75,-140.69,2.44,0.00,4.06,72.85,3.36
56.00,1.00,329.88,-1.69,-50.38,-1.81,3.44,2.94,72.85,3.36
56.00,2.00,299.19,-17.56,13.69,-2.38,-1.06,6.69,72.85,3.36
56.00,0.00,204.62,24.69,-140.69,1.50,-1.56,3.06,72.98,3.38
56.00,1.00,329.81,-1.69,-50.31,-1.88,3.69,2.94,72.98,3.38
56.00,2.00,299.00,-17.56,13.69,-2.62,-1.25,6.81,72.98,3.38
56.00,0.00,204.56,24.75,-140.75,2.50,-1.06,4.69,73.12,3.40
56.00,1.00,329.69,-1.75,-50.31,-2.12,3.62,2.56,73.12,3.40
56.00,2.00,298.88,-17.56,13.75,-2.00,-0.81,6.25,73.12,3.40
56.00,0.00,204.31,24.81,-140.88,3.50,0.94,6.94,73.29,3.42
56.00,1.00,329.62,-1.75,-50.25,-1.62,3.94,2.25,73.29,3.42
56.00,2.00,298.75,-17.56,13.75,-2.06,-0.12,5.62,73.29,3.42
56.00,0.00,204.12,24.88,-141.00,2.94,1.25,6.25,73.44,3.44
56.00,1.00,329.56,-1.75,-50.25,-1.81,3.69,2.00,73.44,3.44
56.00,2.00,298.62,-17.56,13.75,-1.88,0.31,5.56,73.44,3.44
56.00,0.00,204.00,24.94,-141.00,2.12,1.44,5.25,73.53,3.46
56.00,1.00,329.50,-1.81,-50.19,-2.06,3.94,1.88,73.53,3.46
56.00,2.00,298.56,-17.62,13.75,-0.94,1.62,5.12,73.53,3.46
56.00,0.00,204.00,25.00,-140.94,-0.81,1.06,3.06,73.54,3.48
56.00,1.00,329.44,-1.81,-50.12,-2.06,4.12,2.12,73.54,3.48
56.00,2.00,298.44,-17.69,13.75,-1.12,1.19,5.19,73.54,3.50
56.00,0.00,204.19,24.94,-140.94,-1.38,-1.69,1.44,73.56,3.50
56.00,1.00,329.31,-1.81,-50.12,-1.94,3.62,2.19,73.56,3.50
56.00,2.00,298.38,-17.69,13.75,-1.75,-0.19,5.19,73.56,3.50
56.00,0.00,204.38,24.88,-140.94,0.25,-4.12,1.94,73.59,3.52
56.00,1.00,329.25,-1.88,-50.06,-1.62,4.00,2.31,73.59,3.52
56.00,2.00,298.25,-17.69,13.75,-0.94,-0.19,5.81,73.59,3.52
56.00,0.00,204.50,24.81,-141.00,0.94,-4.12,3.19,73.63,3.54
56.00,1.00,329.19,-1.88,-50.06,-2.00,4.06,2.38,73.63,3.54
56.00,2.00,298.12,-17.75,13.69,-0.25,0.12,5.62,73.63,3.54
56.00,0.00,204.62,24.81,-141.00,-0.44,-2.12,2.44,73.61,3.56
56.00,1.00,329.12,-1.88,-50.00,-2.06,4.44,2.06,73.61,3.56
56.00,2.00,298.00,-17.75,13.69,0.31,1.00,5.50,73.61,3.56
56.00,0.00,204.75,24.81,-140.94,-2.12,-1.31,0.81,73.53,3.58
56.00,1.00,329.00,-1.94,-50.00,-1.94,5.38,2.31,73.53,3.58
56.00,2.00,297.94,-17.81,13.62,0.25,2.44,6.25,73.53,3.60
56.00,0.00,204.88,24.75,-140.94,-2.31,-2.19,0.19,73.49,3.60
56.00,1.00,328.88,-2.00,-49.94,-2.50,6.00,3.31,73.49,3.60
56.00,2.00,297.75,-17.88,13.56,-1.06,2.00,7.50,73.49,3.60
56.00,0.00,205.12,24.69,-140.94,-1.75,-3.94,0.88,73.51,3.62
56.00,1.00,328.75,-2.00,-49.88,-2.62,6.25,2.69,73.51,3.62
56.00,2.00,297.62,-17.94,13.56,-2.12,2.50,8.38,73.51,3.62
56.00,0.00,205.31,24.62,-140.94,-0.94,-4.00,0.94,73.57,3.64
56.00,1.00,328.62,-2.06,-49.81,-2.56,7.06,3.25,73.57,3.64
56.00,2.00,297.44,-18.06,13.56,-3.12,1.00,9.25,73.57,3.64
56.00,0.00,205.44,24.56,-141.00,-1.00,-2.81,0.31,73.62,3.66
56.00,1.00,328.56,-2.12,-49.81,-2.75,6.25,2.81,73.62,3.66
56.00,2.00,297.25,-18.06,13.56,-2.62,-0.12,9.56,73.62,3.66
56.00,0.00,205.50,24.56,-140.94,-1.31,-1.06,0.50,73.62,3.68
56.00,1.00,328.44,-2.12,-49.75,-3.00,5.94,2.50,73.62,3.68
56.00,2.00,297.06,-18.12,13.56,-1.31,1.06,8.75,73.62,3.70
56.00,0.00,205.50,24.56,-140.94,-1.31,0.62,1.06,73.66,3.70
56.00,1.00,328.31,-2.19,-49.69,-2.88,5.88,3.06,73.66,3.70
56.00,2.00,296.88,-18.12,13.56,-2.56,-0.75,8.19,73.66,3.70
56.00,0.00,205.44,24.62,-140.94,-0.69,1.56,1.44,73.70,3.72
56.00,1.00,328.25,-2.25,-49.62,-2.56,4.81,2.19,73.70,3.72
56.00,2.00,296.75,-18.19,13.56,-1.94,-1.31,8.56,73.70,3.72
56.00,0.00,205.38,24.62,-140.94,0.44,1.94,1.69,73.72,3.74
56.00,1.00,328.19,-2.25,-49.56,-2.00,4.88,2.56,73.72,3.74
56.00,2.00,296.56,-18.19,13.50,-0.12,-1.56,8.00,73.72,3.74
56.00,0.00,205.31,24.69,-140.94,1.12,1.25,1.62,73.79,3.76
56.00,1.00,328.06,-2.31,-49.56,-1.56,4.81,2.88,73.79,3.76
56.00,2.00,296.38,-18.19,13.50,-1.19,-1.44,8.31,73.79,3.76
56.00,0.00,205.31,24.69,-140.94,1.00,-0.25,1.81,73.87,3.78
56.00,1.00,328.00,-2.31,-49.50,-2.00,4.75,2.88,73.87,3.78
56.00,2.00,296.25,-18.19,13.44,-1.56,-1.50,8.06,73.87,3.78
56.00,0.00,205.31,24.69,-140.94,0.75,-1.50,1.94,73.91,3.80
56.00,1.00,327.88,-2.38,-49.44,-2.12,4.44,3.12,73.91,3.80
56.00,2.00,296.06,-18.19,13.44,-0.62,-1.00,7.12,73.91,3.80
56.00,0.00,205.38,24.62,-141.00,0.62,-2.62,1.62,73.94,3.82
56.00,1.00,327.75,-2.38,-49.44,-2.25,4.69,3.12,73.94,3.82
56.00,2.00,295.94,-18.19,13.38,-0.19,0.25,6.62,73.94,3.82
56.00,0.00,205.50,24.62,-141.00,0.00,-2.88,1.38,73.99,3.84
56.00,1.00,327.69,-2.38,-49.38,-2.62,4.88,3.38,73.99,3.84
56.00,2.00,295.81,-18.25,13.38,-1.69,0.81,6.00,73.99,3.84
56.00,0.00,205.62,24.56,-141.00,-0.62,-3.12,1.50,74.04,3.86
56.00,1.00,327.56,-2.44,-49.31,-2.88,5.19,3.06,74.04,3.86
56.00,2.00,295.75,-18.25,13.44,-2.25,0.38,5.50,74.04,3.86
56.00,0.00,97.81,24.56,-141.00,-0.62,-2.56,1.62,74.05,3.88
56.00,1.00,327.50,-2.50,-49.25,-3.00,4.69,2.19,74.05,3.88
56.00,2.00,295.62,-18.25,13.44,-1.06,1.25,4.38,74.05,3.88
56.00,0.00,97.81,24.50,-141.06,-0.25,-3.00,1.69,74.08,3.90
56.00,1.00,327.44,-2.50,-49.19,-2.50,4.81,1.62,74.08,3.90
56.00,2.00,295.56,-18.31,13.44,-1.31,1.69,3.75,74.08,3.90
56.00,0.00,97.88,24.44,-141.06,-0.06,-4.31,1.62,74.12,3.92
56.00,1.00,327.38,-2.56,-49.12,-2.75,4.06,0.50,74.12,3.92
56.00,2.00,295.50,-18.31,13.50,-1.31,1.44,3.19,74.12,3.92
56.00,0.00,97.94,24.38,-141.06,-0.25,-4.12,1.31,74.11,3.94
56.00,1.00,327.31,-2.62,-49.06,-2.56,3.81,-0.12,74.11,3.94
56.00,2.00,295.44,-18.38,13.50,0.06,2.88,2.50,74.11,3.94
56.00,0.00,98.00,24.31,-141.12,-0.25,-3.62,1.00,74.16,3.96
56.00,1.00,327.31,-2.69,-49.06,-2.81,3.81,0.12,74.16,3.96
56.00,2.00,295.44,-18.44,13.50,-1.88,1.06,2.69,74.16,3.96
56.00,0.00,98.00,24.31,-141.12,-0.44,-2.81,1.00,74.22,3.98
56.00,1.00,327.31,-2.75,-49.00,-2.62,3.25,0.31,74.22,3.98
56.00,2.00,295.38,-18.44,13.50,-2.25,0.88,2.81,74.22,3.98
56.00,0.00,98.06,24.25,-141.12,-0.44,-1.69,0.62,74.26,4.00
56.00,1.00,327.25,-2.81,-48.94,-2.88,2.94,0.56,74.26,4.00
56.00,2.00,295.31,-18.50,13.56,-1.88,0.75,2.19,74.26,4.00
56.00,0.00,98.06,24.25,-141.12,-0.88,-1.62,0.50,74.29,4.02
56.00,1.00,327.25,-2.88,-48.88,-3.12,2.38,0.12,74.29,4.02
56.00,2.00,295.25,-18.50,13.56,-1.75,0.75,2.12,74.29,4.02
56.00,0.00,98.06,24.19,-141.06,-1.31,-1.44,-0.12,74.30,4.04
56.00,1.00,327.25,-2.88,-48.81,-3.12,2.50,-0.19,74.30,4.04
56.00,2.00,295.19,-18.50,13.56,-1.56,1.44,2.25,74.30,4.04
56.00,0.00,98.06,24.19,-141.06,-1.62,-1.00,-0.38,74.31,4.06
56.00,1.00,327.19,-2.94,-48.75,-3.31,2.62,-0.56,74.31,4.06
56.00,2.00,295.19,-18.56,13.62,-1.94,1.56,2.25,74.31,4.06
56.00,0.00,98.06,24.12,-141.06,-1.69,-1.38,-0.38,74.33,4.08
56.00,1.00,327.19,-2.94,-48.69,-3.12,2.25,-0.56,74.33,4.08
56.00,2.00,295.12,-18.56,13.62,-2.31,1.06,2.38,74.33,4.08
56.00,0.00,98.12,24.12,-141.00,-1.62,-1.62,-0.62,74.34,4.10
56.00,1.00,327.19,-3.00,-48.62,-3.31,1.88,-0.12,74.34,4.10
56.00,2.00,295.06,-18.62,13.69,-2.19,1.25,2.81,74.34,4.10
56.00,0.00,98.12,24.06,-140.94,-2.56,-2.88,-0.94,74.37,4.12
56.00,1.00,327.12,-3.00,-48.56,-3.88,2.25,-0.12,74.37,4.12
56.00,2.00,295.00,-18.62,13.69,-3.25,1.19,3.12,74.37,4.12
56.00,0.00,98.12,24.00,-140.94,-3.25,-3.38,-0.94,74.36,4.14
56.00,1.00,327.12,-3.06,-48.44,-4.44,2.69,-0.50,74.36,4.14
56.00,2.00,294.94,-18.62,13.75,-3.19,0.62,3.19,74.36,4.14
56.00,0.00,98.12,23.94,-140.88,-2.56,-2.94,-1.44,74.35,4.16
56.00,1.00,327.06,-3.12,-48.38,-4.19,3.25,-0.75,74.35,4.16
56.00,2.00,294.88,-18.69,13.75,-2.00,1.81,3.12,74.35,4.16
56.00,0.00,98.12,23.88,-140.81,-1.94,-2.62,-1.50,74.37,4.18
56.00,1.00,327.06,-3.12,-48.31,-4.31,3.75,-0.25,74.37,4.18
56.00,2.00,294.81,-18.75,13.81,-2.69,2.31,2.69,74.37,4.18
56.00,0.00,98.12,23.81,-140.81,-1.69,-1.62,-0.94,74.43,4.20
56.00,1.00,327.00,-3.19,-48.25,-4.38,4.38,-0.12,74.43,4.20
56.00,2.00,294.75,-18.75,13.88,-3.50,1.50,2.81,74.43,4.20
56.00,0.00,98.12,23.81,-140.81,-1.25,-0.25,-0.50,74.46,4.22
56.00,1.00,327.00,-3.25,-48.12,-4.50,4.19,-0.19,74.46,4.22
56.00,2.00,294.69,-18.81,13.88,-2.44,2.06,2.50,74.46,4.22
56.00,0.00,98.12,23.81,-140.75,-0.88,1.56,-0.75,74.50,4.24
56.00,1.00,326.94,-3.31,-48.06,-3.94,4.38,-0.31,74.50,4.24
56.00,2.00,294.69,-18.81,13.94,-2.00,1.94,1.69,74.50,4.24
56.00,0.00,98.06,23.81,-140.75,-0.75,2.19,-1.44,74.54,4.26
56.00,1.00,326.88,-3.38,-48.00,-4.12,4.19,-0.25,74.54,4.26
56.00,2.00,294.62,-18.88,14.00,-2.06,2.62,1.56,74.54,4.26
56.00,0.00,98.06,23.88,-140.69,-0.75,2.88,-1.56,74.59,4.28
56.00,1.00,326.88,-3.44,-47.94,-3.94,4.25,-0.31,74.59,4.28
56.00,2.00,294.56,-18.94,14.00,-2.56,2.44,2.06,74.59,4.28
56.00,0.00,98.00,23.88,-140.62,-0.31,3.44,-1.44,74.65,4.30
56.00,1.00,326.81,-3.50,-47.81,-3.81,4.62,-0.56,74.65,4.30
56.00,2.00,294.56,-18.94,14.06,-2.25,2.19,1.81,74.65,4.30
56.00,0.00,207.94,23.94,-140.62,-0.06,3.81,-1.69,74.73,4.32
56.00,1.00,326.75,-3.56,-47.75,-3.12,4.25,-0.31,74.73,4.32
56.00,2.00,294.50,-19.00,14.12,-2.50,1.56,1.88,74.73,4.32
56.00,0.00,207.81,23.94,-140.56,0.62,3.50,-2.00,74.80,4.34
56.00,1.00,326.75,-3.62,-47.69,-2.69,4.38,-0.12,74.80,4.34
56.00,2.00,294.50,-19.06,14.12,-1.56,2.00,2.06,74.80,4.34
56.00,0.00,207.75,23.94,-140.56,0.44,3.94,-2.31,74.88,4.36
56.00,1.00,326.69,-3.69,-47.62,-3.00,3.75,0.69,74.88,4.36
56.00,2.00,294.44,-19.12,14.12,-2.31,2.56,2.44,74.88,4.36
56.00,0.00,207.69,24.00,-140.50,-0.38,4.50,-2.19,74.99,4.38
56.00,1.00,326.69,-3.75,-47.56,-3.06,3.50,1.12,74.99,4.38
56.00,2.00,294.38,-19.12,14.19,-3.81,1.12,3.25,74.99,4.38
56.00,0.00,207.56,24.00,-140.44,-0.38,4.25,-2.06,75.10,4.40
56.00,1.00,326.62,-3.81,-47.50,-2.88,3.56,0.69,75.10,4.40
56.00,2.00,294.31,-19.12,14.25,-3.94,0.56,3.38,75.10,4.40
56.00,0.00,207.50,24.00,-140.44,-0.25,3.44,-2.38,75.21,4.42
56.00,1.00,326.62,-3.88,-47.44,-2.44,3.69,0.56,75.21,4.42
56.00,2.00,294.25,-19.19,14.31,-4.00,1.50,2.69,75.21,4.42
56.00,0.00,207.62,23.94,-140.38,-0.12,1.81,-2.88,75.31,4.44
56.00,1.00,326.56,-3.94,-47.38,-2.69,3.44,0.81,75.31,4.44
56.00,2.00,294.19,-19.25,14.38,-3.44,1.25,2.00,75.31,4.44
56.00,0.00,207.75,23.88,-140.31,-0.50,0.25,-3.56,75.36,4.46
56.00,1.00,326.56,-4.00,-47.31,-3.19,2.88,0.31,75.36,4.46
56.00,2.00,294.12,-19.25,14.44,-2.00,2.31,2.25,75.36,4.46
56.00,0.00,207.88,23.81,-140.25,-0.62,-0.38,-3.75,75.39,4.48
56.00,1.00,326.50,-4.06,-47.25,-2.88,2.44,0.06,75.39,4.48
56.00,2.00,294.06,-19.31,14.50,-1.62,2.94,1.88,75.39,4.48
56.00,0.00,208.06,23.75,-140.19,-1.00,-0.88,-3.88,75.48,4.50
56.00,1.00,326.50,-4.12,-47.19,-2.56,2.25,0.06,75.48,4.50
56.00,2.00,294.06,-19.38,14.56,-3.88,1.19,2.56,75.48,4.50
56.00,0.00,208.25,23.69,-140.19,-1.69,-1.12,-3.44,75.52,4.52
56.00,1.00,326.50,-4.12,-47.12,-2.31,1.94,-0.44,75.52,4.52
56.00,2.00,294.00,-19.38,14.62,-2.94,1.81,1.75,75.52,4.52
56.00,0.00,208.44,23.62,-140.12,-1.88,-1.25,-3.56,75.54,4.54
56.00,1.00,326.50,-4.19,-47.12,-2.06,1.88,-1.19,75.54,4.54
56.00,2.00,293.94,-19.44,14.62,-2.50,2.44,1.69,75.54,4.54
56.00,0.00,208.62,23.56,-140.06,-1.56,-0.94,-3.31,75.57,4.56
56.00,1.00,326.50,-4.25,-47.06,-1.88,2.12,-1.25,75.57,4.56
56.00,2.00,293.94,-19.50,14.69,-2.50,2.19,0.88,75.57,4.56
56.00,0.00,208.81,23.50,-140.00,-1.62,-1.75,-3.31,75.56,4.58
56.00,1.00,326.56,-4.31,-47.00,-2.06,2.00,-1.50,75.56,4.58
56.00,2.00,293.94,-19.50,14.75,-1.56,2.62,0.06,75.56,4.58
56.00,0.00,209.00,23.38,-140.00,0.50,-4.62,-1.00,75.64,4.60
56.00,1.00,326.56,-4.38,-47.00,-2.31,2.12,-1.50,75.64,4.60
56.00,2.00,293.94,-19.56,14.81,-1.94,3.00,-0.25,75.64,4.60
56.00,0.00,209.19,23.31,-140.00,0.00,-3.12,-0.62,75.68,4.62
56.00,1.00,326.56,-4.44,-46.94,-2.19,1.88,-1.56,75.68,4.62
56.00,2.00,293.94,-19.62,14.81,-1.31,2.75,-0.25,75.68,4.62
56.00,0.00,209.25,23.31,-140.00,0.25,-1.25,-1.31,75.72,4.64
56.00,1.00,326.62,-4.50,-46.88,-1.25,2.44,-1.62,75.72,4.64
56.00,2.00,293.94,-19.69,14.88,-0.88,3.19,-0.44,75.72,4.64
56.00,0.00,209.38,23.25,-140.00,0.31,-2.25,-1.62,75.79,4.66
56.00,1.00,326.62,-4.56,-46.81,0.25,3.19,-1.50,75.79,4.66
56.00,2.00,293.94,-19.75,14.88,-2.12,2.69,0.12,75.79,4.66
56.00,0.00,209.50,23.19,-140.06,1.38,-2.38,-1.88,75.92,4.68
56.00,1.00,326.62,-4.62,-46.81,-0.56,3.50,-1.50,75.92,4.68
56.00,2.00,293.94,-19.75,14.94,-2.69,2.38,-0.12,75.92,4.68
56.00,0.00,209.62,23.12,-140.06,0.31,-3.12,-2.06,75.96,4.70
56.00,1.00,326.62,-4.69,-46.81,-1.38,2.06,-1.00,75.96,4.70
56.00,2.00,293.94,-19.81,15.00,-1.25,2.44,0.75,75.96,4.70
56.00,0.00,209.75,23.06,-140.06,-0.56,-3.12,-1.00,75.96,4.72
56.00,1.00,326.62,-4.75,-46.75,-0.81,1.88,-1.25,75.96,4.72
56.00,2.00,293.94,-19.88,15.00,-0.31,2.00,0.12,75.96,4.72
56.00,0.00,209.88,23.00,-140.06,-0.25,-1.81,-0.62,75.96,4.74
56.00,1.00,326.69,-4.81,-46.75,-0.50,1.44,-0.94,75.96,4.74
56.00,2.00,293.94,-19.88,15.00,-0.50,2.19,-0.25,75.96,4.74
56.00,0.00,209.94,23.00,-140.06,0.19,-2.19,-0.75,75.98,4.76
56.00,1.00,326.69,-4.88,-46.69,-0.19,1.44,-0.69,75.98,4.76
56.00,2.00,294.00,-19.94,15.06,-0.31,2.62,-0.81,75.98,4.76
56.00,0.00,210.12,22.94,-140.06,0.50,-2.25,-1.00,76.00,4.78
56.00,1.00,326.69,-4.94,-46.69,-0.50,0.69,-0.31,76.00,4.78
56.00,2.00,294.00,-19.94,15.06,-0.31,1.81,-1.06,76.00,4.78
56.00,0.00,210.19,22.88,-140.00,0.06,-0.81,-0.56,76.03,4.80
56.00,1.00,326.69,-4.94,-46.69,-0.44,0.31,0.06,76.03,4.80
56.00,2.00,294.00,-20.00,15.06,-0.69,1.06,-1.38,76.03,4.80
56.00,0.00,210.25,22.88,-140.00,-0.19,0.31,-0.06,76.04,4.82
56.00,1.00,326.69,-5.00,-46.69,-0.06,0.06,0.06,76.04,4.82
56.00,2.00,294.06,-20.00,15.12,-0.56,0.81,-1.31,76.04,4.82
56.00,0.00,210.25,22.88,-140.00,-0.12,1.31,0.50,76.04,4.84
56.00,1.00,326.75,-5.00,-46.62,0.12,0.00,-0.06,76.04,4.84
56.00,2.00,294.12,-20.00,15.19,-0.19,1.00,-2.50,76.04,4.84
56.00,0.00,210.19,22.94,-140.00,0.25,2.31,0.69,76.03,4.86
56.00,1.00,326.75,-5.06,-46.62,0.12,-0.62,-0.25,76.03,4.86
56.00,2.00,294.19,-20.00,15.25,0.69,0.69,-3.44,76.03,4.86
56.00,0.00,210.00,23.00,-139.94,1.19,4.50,1.38,76.04,4.88
56.00,1.00,326.75,-5.06,-46.56,0.62,-0.94,0.00,76.04,4.88
56.00,2.00,294.25,-20.00,15.25,0.69,0.38,-3.88,76.04,4.88
56.00,0.00,209.81,23.06,-139.94,0.94,4.25,1.81,76.06,4.90
56.00,1.00,326.81,-5.06,-46.56,0.38,-1.50,-0.06,76.06,4.90
56.00,2.00,294.31,-19.94,15.31,0.38,0.06,-3.69,76.06,4.90
56.00,0.00,209.62,23.12,-139.94,0.69,4.25,2.12,76.06,4.92
56.00,1.00,326.81,-5.12,-46.56,0.62,-1.88,-0.25,76.06,4.92
56.00,2.00,294.44,-19.94,15.31,0.62,-0.62,-4.44,76.06,4.92
56.00,0.00,209.38,23.25,-139.94,0.94,3.88,2.50,76.04,4.94
56.00,1.00,326.88,-5.06,-46.56,1.06,-2.69,-0.69,76.04,4.94
56.00,2.00,294.50,-19.88,15.38,1.81,-0.19,-4.81,76.04,4.94
56.00,0.00,209.25,23.31,-139.94,0.62,3.44,2.38,75.99,4.96
56.00,1.00,326.88,-5.06,-46.56,1.25,-3.12,-0.69,75.99,4.96
56.00,2.00,294.62,-19.88,15.38,2.25,-0.50,-5.00,75.99,4.96
56.00,0.00,209.12,23.38,-139.88,0.38,3.81,1.69,75.91,4.98
56.00,1.00,326.94,-5.06,-46.56,1.44,-3.38,-1.00,75.91,4.98
56.00,2.00,294.75,-19.88,15.38,2.69,-0.56,-5.06,75.91,4.98
56.00,0.00,208.94,23.44,-139.88,-0.56,5.25,1.81,75.82,5.00
56.00,1.00,327.00,-5.06,-46.56,2.12,-3.75,-1.12,75.82,5.00
56.00,2.00,294.88,-19.81,15.38,2.56,-0.94,-5.31,75.82,5.00
