Iteration,IMUNo,OrientationX (deg),OrientationY,OrientationZ,GyroX (20rad/sec),GyroY,GyroZ,Elbow_Pos (rad),Time (sec)
77.00,0.00,262.12,5.44,-92.19,-0.56,-0.31,-0.12,-0.02,1.00
77.00,1.00,352.56,-2.88,-52.38,-0.25,-0.31,-0.62,-0.02,1.02
77.00,2.00,337.38,-19.81,19.62,0.12,0.31,-0.50,-0.02,1.02
77.00,0.00,262.12,5.44,-92.19,-0.44,-0.12,-0.19,-0.04,1.02
77.00,1.00,352.56,-2.88,-52.38,0.00,-0.19,-0.25,-0.04,1.02
77.00,2.00,337.38,-19.81,19.62,-0.06,0.12,-0.56,-0.04,1.02
77.00,0.00,262.12,5.44,-92.19,-0.12,-0.31,-0.12,-0.03,1.04
77.00,1.00,352.56,-2.88,-52.38,-0.31,-0.19,-0.19,-0.03,1.04
77.00,2.00,337.38,-19.81,19.62,-0.31,0.12,-0.31,-0.03,1.04
77.00,0.00,262.12,5.44,-92.19,-0.25,-0.19,0.00,-0.04,1.06
77.00,1.00,352.56,-2.88,-52.38,-0.25,0.12,-0.06,-0.04,1.06
77.00,2.00,337.38,-19.81,19.62,-0.12,0.31,-0.38,-0.04,1.06
77.00,0.00,262.12,5.44,-92.19,-0.31,-0.38,-0.12,-0.03,1.08
77.00,1.00,352.56,-2.88,-52.38,-0.12,0.19,-0.12,-0.03,1.08
77.00,2.00,337.38,-19.81,19.62,-0.50,0.19,-0.12,-0.03,1.08
77.00,0.00,262.12,5.44,-92.19,-0.44,-0.38,0.00,-0.04,1.10
77.00,1.00,352.56,-2.88,-52.38,-0.06,0.19,-0.31,-0.04,1.10
77.00,2.00,337.38,-19.81,19.62,-0.25,0.31,-0.12,-0.04,1.10
77.00,0.00,262.12,5.44,-92.19,-0.44,-0.12,0.00,-0.05,1.12
77.00,1.00,352.56,-2.88,-52.38,-0.25,0.00,-0.19,-0.05,1.12
77.00,2.00,337.38,-19.81,19.62,-0.12,-0.19,0.00,-0.05,1.12
77.00,0.00,262.12,5.44,-92.19,-0.19,0.25,0.19,-0.06,1.14
77.00,1.00,352.56,-2.88,-52.38,0.06,0.19,0.25,-0.06,1.14
77.00,2.00,337.38,-19.81,19.62,0.06,0.00,0.12,-0.06,1.14
77.00,0.00,262.12,5.44,-92.19,-0.19,0.56,0.25,-0.04,1.16
77.00,1.00,352.56,-2.88,-52.38,-0.38,0.38,0.38,-0.04,1.16
77.00,2.00,337.38,-19.81,19.62,-0.56,0.06,-0.19,-0.04,1.16
77.00,0.00,262.12,5.44,-92.19,-0.44,0.69,0.06,-0.03,1.18
77.00,1.00,352.56,-2.88,-52.38,-0.25,0.44,0.44,-0.03,1.18
77.00,2.00,337.38,-19.81,19.62,-0.75,0.12,0.19,-0.03,1.18
77.00,0.00,262.12,5.44,-92.19,-0.56,0.81,0.19,-0.02,1.20
77.00,1.00,352.56,-2.88,-52.38,-0.25,0.12,0.56,-0.02,1.20
77.00,2.00,337.38,-19.81,19.62,-0.88,-0.50,0.56,-0.02,1.20
77.00,0.00,262.12,5.44,-92.19,-0.50,0.81,0.31,-0.02,1.22
77.00,1.00,352.56,-2.88,-52.38,-0.38,0.06,0.12,-0.02,1.22
77.00,2.00,337.38,-19.81,19.62,-0.50,-0.31,0.56,-0.02,1.22
77.00,0.00,262.06,5.44,-92.19,-0.62,1.50,0.38,-0.03,1.24
77.00,1.00,352.56,-2.88,-52.38,-0.38,0.19,0.38,-0.03,1.24
77.00,2.00,337.38,-19.81,19.62,-0.31,0.00,0.19,-0.03,1.24
77.00,0.00,262.06,5.44,-92.19,-0.25,1.62,0.44,-0.02,1.26
77.00,1.00,352.56,-2.88,-52.38,-0.44,0.25,0.31,-0.02,1.26
77.00,2.00,337.38,-19.81,19.62,-0.50,-0.25,0.12,-0.02,1.26
77.00,0.00,262.06,5.44,-92.19,0.06,0.88,0.44,0.00,1.28
77.00,1.00,352.56,-2.88,-52.31,-0.69,-0.06,0.56,0.00,1.28
77.00,2.00,337.38,-19.81,19.62,-0.56,-0.31,-0.06,0.00,1.28
77.00,0.00,262.00,5.44,-92.19,0.12,0.44,0.56,0.01,1.30
77.00,1.00,352.56,-2.88,-52.31,-0.50,0.06,0.31,0.01,1.30
77.00,2.00,337.38,-19.81,19.62,-0.25,-0.12,0.00,0.01,1.30
77.00,0.00,262.00,5.44,-92.19,0.00,0.44,0.56,0.03,1.32
77.00,1.00,352.56,-2.88,-52.31,-0.56,0.06,0.25,0.03,1.32
77.00,2.00,337.38,-19.81,19.62,-0.38,0.06,0.25,0.03,1.32
77.00,0.00,262.00,5.44,-92.19,0.12,0.81,0.56,0.04,1.34
77.00,1.00,352.56,-2.88,-52.31,-0.44,0.12,0.31,0.04,1.34
77.00,2.00,337.38,-19.81,19.62,-0.19,-0.25,0.56,0.04,1.34
77.00,0.00,262.00,5.44,-92.19,0.12,1.38,0.56,0.05,1.36
77.00,1.00,352.56,-2.88,-52.31,-0.31,0.19,0.19,0.05,1.36
77.00,2.00,337.38,-19.81,19.62,-0.25,-0.19,0.50,0.05,1.36
77.00,0.00,261.94,5.50,-92.19,0.50,1.31,0.88,0.09,1.38
77.00,1.00,352.56,-2.88,-52.31,-0.50,-0.06,0.06,0.09,1.38
77.00,2.00,337.38,-19.81,19.62,-0.44,-0.25,0.56,0.09,1.38
77.00,0.00,261.88,5.50,-92.19,0.44,1.56,0.94,0.09,1.40
77.00,1.00,352.56,-2.88,-52.31,-0.19,0.31,-0.19,0.09,1.40
77.00,2.00,337.38,-19.81,19.62,0.31,0.06,-0.25,0.09,1.40
77.00,0.00,261.88,5.50,-92.19,0.75,1.69,1.00,0.10,1.42
77.00,1.00,352.56,-2.88,-52.31,-0.88,0.19,-0.06,0.10,1.42
77.00,2.00,337.38,-19.81,19.62,0.56,-0.06,-0.06,0.10,1.42
77.00,0.00,261.81,5.56,-92.19,0.88,1.12,1.25,0.10,1.44
77.00,1.00,352.56,-2.88,-52.31,-0.62,0.44,-0.12,0.10,1.44
77.00,2.00,337.38,-19.81,19.62,0.75,-0.38,-0.06,0.10,1.44
77.00,0.00,261.75,5.56,-92.19,1.50,0.94,1.50,0.12,1.46
77.00,1.00,352.56,-2.88,-52.31,-0.56,0.25,0.12,0.12,1.46
77.00,2.00,337.38,-19.81,19.62,1.00,-1.00,0.44,0.12,1.46
77.00,0.00,261.69,5.56,-92.25,2.19,1.75,1.44,0.16,1.48
77.00,1.00,352.56,-2.88,-52.31,-0.62,0.31,-0.25,0.16,1.48
77.00,2.00,337.38,-19.75,19.62,1.12,-0.81,0.69,0.16,1.48
77.00,0.00,261.62,5.62,-92.31,2.81,2.62,1.94,0.22,1.50
77.00,1.00,352.56,-2.88,-52.31,-0.81,0.25,-0.38,0.22,1.50
77.00,2.00,337.38,-19.75,19.56,1.00,-0.88,1.00,0.22,1.50
77.00,0.00,261.50,5.69,-92.38,3.75,3.31,2.50,0.35,1.52
77.00,1.00,352.56,-2.88,-52.25,-0.12,0.75,-0.50,0.35,1.52
77.00,2.00,337.38,-19.75,19.56,0.31,-1.12,1.62,0.35,1.52
77.00,0.00,261.31,5.75,-92.44,4.50,4.12,3.06,0.49,1.54
77.00,1.00,352.56,-2.94,-52.25,-0.25,0.75,-0.44,0.49,1.54
77.00,2.00,337.31,-19.75,19.56,0.38,-0.19,2.31,0.49,1.54
77.00,0.00,261.12,5.81,-92.56,4.81,4.81,4.06,0.67,1.56
77.00,1.00,352.56,-2.94,-52.25,0.19,1.31,-0.12,0.67,1.56
77.00,2.00,337.25,-19.75,19.56,-0.12,0.50,2.38,0.67,1.56
77.00,0.00,260.94,5.94,-92.62,5.00,6.00,4.50,0.88,1.58
77.00,1.00,352.56,-2.94,-52.25,0.31,1.25,0.38,0.88,1.58
77.00,2.00,337.19,-19.81,19.56,-0.94,1.00,2.62,0.88,1.58
77.00,0.00,260.69,6.00,-92.75,5.44,6.19,4.56,1.14,1.60
77.00,1.00,352.50,-2.94,-52.25,0.38,1.75,0.62,1.14,1.60
77.00,2.00,337.12,-19.81,19.56,-1.62,-0.94,3.31,1.14,1.60
77.00,0.00,260.50,6.12,-92.88,5.81,4.62,4.62,1.39,1.62
77.00,1.00,352.50,-2.94,-52.25,0.12,1.81,0.81,1.39,1.62
77.00,2.00,337.06,-19.81,19.56,-1.19,-1.88,3.44,1.39,1.62
77.00,0.00,260.31,6.19,-93.00,6.19,3.75,4.25,1.60,1.64
77.00,1.00,352.44,-2.94,-52.25,0.12,1.88,0.69,1.60,1.64
77.00,2.00,337.00,-19.81,19.50,0.31,-2.75,3.69,1.60,1.64
77.00,0.00,260.12,6.31,-93.12,6.75,4.56,3.62,1.87,1.66
77.00,1.00,352.44,-3.00,-52.25,0.31,1.94,1.00,1.87,1.66
77.00,2.00,336.88,-19.75,19.50,-0.75,-2.19,4.25,1.87,1.66
77.00,0.00,259.94,6.38,-93.25,8.25,5.12,3.88,2.22,1.68
77.00,1.00,352.38,-3.00,-52.19,0.38,2.19,1.00,2.22,1.68
77.00,2.00,336.81,-19.75,19.50,-1.56,-1.69,4.12,2.22,1.68
77.00,0.00,259.69,6.50,-93.44,10.69,5.44,6.06,2.74,1.70
77.00,1.00,352.31,-3.00,-52.19,-0.12,2.69,1.75,2.74,1.70
77.00,2.00,336.69,-19.81,19.50,-3.81,-0.75,4.12,2.74,1.70
77.00,0.00,259.44,6.62,-93.69,11.31,5.50,5.88,3.26,1.72
77.00,1.00,352.25,-3.00,-52.19,-0.25,2.69,1.88,3.26,1.72
77.00,2.00,336.62,-19.81,19.56,-3.25,-1.62,3.94,3.26,1.72
77.00,0.00,259.19,6.75,-93.88,13.62,5.50,5.75,3.81,1.74
77.00,1.00,352.19,-3.00,-52.19,0.19,2.88,1.50,3.81,1.74
77.00,2.00,336.50,-19.75,19.56,-1.62,-3.31,3.81,3.81,1.74
77.00,0.00,258.88,6.88,-94.25,18.06,3.12,7.12,4.45,1.76
77.00,1.00,352.19,-3.00,-52.19,0.31,2.44,0.75,4.45,1.76
77.00,2.00,336.44,-19.75,19.50,0.25,-2.50,3.81,4.45,1.76
77.00,0.00,258.69,7.00,-94.69,20.12,2.31,5.62,5.18,1.78
77.00,1.00,352.12,-3.06,-52.19,0.69,2.44,0.75,5.18,1.78
77.00,2.00,336.38,-19.69,19.50,-0.19,-2.25,4.12,5.18,1.78
77.00,0.00,258.56,7.00,-95.19,21.88,2.69,4.12,6.02,1.80
77.00,1.00,352.12,-3.06,-52.19,0.50,2.12,1.06,6.02,1.80
77.00,2.00,336.25,-19.69,19.44,-1.56,-1.62,5.19,6.02,1.80
77.00,0.00,258.38,7.06,-95.81,23.88,2.81,4.00,6.91,1.82
77.00,1.00,352.06,-3.06,-52.19,0.94,2.12,1.19,6.91,1.82
77.00,2.00,336.12,-19.69,19.44,-1.06,-1.94,5.31,6.91,1.82
77.00,0.00,258.19,7.12,-96.38,23.75,4.00,2.75,7.77,1.84
77.00,1.00,352.00,-3.06,-52.19,1.06,2.19,0.81,7.77,1.84
77.00,2.00,336.00,-19.69,19.44,-0.06,-2.19,5.69,7.77,1.84
77.00,0.00,258.00,7.19,-97.00,29.56,1.69,5.31,8.87,1.86
77.00,1.00,352.00,-3.12,-52.25,0.88,2.44,0.31,8.87,1.86
77.00,2.00,335.94,-19.69,19.38,-1.00,-0.94,5.56,8.87,1.86
77.00,0.00,257.81,7.31,-97.69,36.19,-1.75,9.00,10.23,1.88
77.00,1.00,351.94,-3.12,-52.25,1.06,3.06,0.69,10.23,1.88
77.00,2.00,335.81,-19.75,19.38,-1.75,-0.50,5.69,10.23,1.88
77.00,0.00,257.56,7.50,-98.38,37.94,-2.75,8.12,11.61,1.90
77.00,1.00,351.94,-3.19,-52.25,0.75,3.19,0.44,11.61,1.90
77.00,2.00,335.62,-19.81,19.38,-0.62,-0.56,9.06,11.61,1.90
77.00,0.00,257.38,7.62,-99.12,37.25,-1.31,5.25,12.92,1.92
77.00,1.00,351.94,-3.19,-52.25,0.88,2.81,-0.06,12.92,1.92
77.00,2.00,335.50,-19.88,19.25,0.75,-0.19,9.69,12.92,1.92
77.00,0.00,257.25,7.62,-99.50,38.62,-1.50,5.50,14.25,1.94
77.00,1.00,351.88,-3.25,-52.25,0.75,2.94,0.00,14.25,1.94
77.00,2.00,335.31,-19.94,19.19,1.50,0.62,9.00,14.25,1.94
77.00,0.00,256.94,7.81,-100.69,41.19,-0.56,7.81,15.77,1.96
77.00,1.00,351.88,-3.25,-52.25,1.06,3.56,0.81,15.77,1.96
77.00,2.00,335.12,-20.00,19.12,-1.00,-0.94,10.31,15.77,1.96
77.00,0.00,256.75,7.94,-101.12,42.00,1.81,8.25,17.30,1.98
77.00,1.00,351.81,-3.31,-52.31,0.38,3.94,1.25,17.30,1.98
77.00,2.00,334.88,-20.00,19.06,-0.88,-1.81,10.69,17.30,1.98
77.00,0.00,256.06,8.19,-102.31,41.50,6.62,7.50,18.77,2.00
77.00,1.00,351.75,-3.31,-52.31,0.69,3.88,0.88,18.77,2.00
77.00,2.00,334.69,-20.06,19.00,0.56,-2.56,10.50,18.77,2.00
77.00,0.00,255.50,8.38,-103.12,43.06,9.38,8.12,20.28,2.02
77.00,1.00,351.69,-3.38,-52.31,0.56,4.19,0.69,20.28,2.02
77.00,2.00,334.44,-20.06,18.88,1.06,-2.62,11.12,20.28,2.02
77.00,0.00,255.25,8.50,-103.56,46.69,8.31,10.69,21.89,2.04
77.00,1.00,351.62,-3.38,-52.31,0.81,3.94,1.12,21.89,2.04
77.00,2.00,334.25,-20.06,18.81,1.94,-2.25,11.69,21.89,2.04
77.00,0.00,254.62,8.75,-104.44,46.12,7.50,10.69,23.47,2.06
77.00,1.00,351.56,-3.44,-52.31,0.69,4.25,1.31,23.47,2.06
77.00,2.00,334.00,-20.12,18.62,2.06,-3.19,11.88,23.47,2.06
77.00,0.00,254.06,8.94,-105.31,45.25,6.88,9.62,25.04,2.08
77.00,1.00,351.50,-3.44,-52.38,0.50,4.56,2.19,25.04,2.08
77.00,2.00,333.75,-20.12,18.50,1.50,-3.62,11.69,25.04,2.08
77.00,0.00,253.56,9.19,-106.19,45.25,6.69,9.31,26.57,2.10
77.00,1.00,351.38,-3.50,-52.38,0.12,4.38,2.12,26.57,2.10
77.00,2.00,333.50,-20.12,18.44,2.62,-5.50,12.50,26.57,2.10
77.00,0.00,253.00,9.38,-107.06,47.56,3.56,10.56,28.02,2.12
77.00,1.00,351.31,-3.50,-52.38,0.06,3.75,1.19,28.02,2.12
77.00,2.00,333.31,-20.06,18.25,6.94,-4.81,11.12,28.02,2.12
77.00,0.00,252.50,9.62,-108.00,49.50,1.38,11.94,29.51,2.14
77.00,1.00,351.25,-3.56,-52.38,0.06,4.06,0.88,29.51,2.14
77.00,2.00,333.06,-20.06,18.00,8.06,-4.00,9.69,29.51,2.14
77.00,0.00,252.00,9.81,-108.94,48.31,2.31,11.62,31.06,2.16
77.00,1.00,351.19,-3.56,-52.38,-0.56,3.81,1.44,31.06,2.16
77.00,2.00,332.94,-20.06,17.81,5.25,-4.12,10.88,31.06,2.16
77.00,0.00,251.44,10.06,-109.88,47.69,2.81,11.06,32.60,2.18
77.00,1.00,351.12,-3.62,-52.38,-0.19,3.56,1.44,32.60,2.18
77.00,2.00,332.69,-20.06,17.62,4.75,-5.19,12.25,32.60,2.18
77.00,0.00,250.88,10.31,-110.81,48.44,4.88,13.12,34.17,2.20
77.00,1.00,351.12,-3.62,-52.38,0.62,2.62,1.75,34.17,2.20
77.00,2.00,332.44,-20.00,17.44,4.50,-5.44,13.19,34.17,2.20
77.00,0.00,250.19,10.56,-111.75,47.25,5.19,13.75,35.69,2.22
77.00,1.00,351.00,-3.62,-52.38,0.50,3.19,2.62,35.69,2.22
77.00,2.00,332.19,-20.00,17.25,4.94,-6.44,13.44,35.69,2.22
77.00,0.00,249.50,10.88,-112.69,48.00,4.38,14.50,37.23,2.24
77.00,1.00,350.94,-3.62,-52.38,0.19,3.50,3.00,37.23,2.24
77.00,2.00,331.94,-19.94,17.06,5.12,-6.81,13.25,37.23,2.24
77.00,0.00,248.81,11.19,-113.62,48.06,3.69,15.12,38.78,2.26
77.00,1.00,350.81,-3.62,-52.38,-0.25,3.75,2.75,38.78,2.26
77.00,2.00,331.69,-19.88,16.88,4.75,-7.00,14.31,38.78,2.26
77.00,0.00,248.12,11.44,-114.56,48.38,3.31,15.56,40.37,2.28
77.00,1.00,350.75,-3.62,-52.38,-0.06,3.94,2.62,40.37,2.28
77.00,2.00,331.38,-19.88,16.62,4.31,-6.81,15.06,40.37,2.28
77.00,0.00,247.38,11.75,-115.50,46.50,3.94,15.44,41.89,2.30
77.00,1.00,350.69,-3.62,-52.38,-0.06,3.06,2.56,41.89,2.30
77.00,2.00,331.06,-19.81,16.44,3.88,-7.06,15.44,41.89,2.30
77.00,0.00,246.69,12.06,-116.38,45.50,4.25,15.50,43.38,2.32
77.00,1.00,350.56,-3.62,-52.38,-0.31,4.06,3.25,43.38,2.32
77.00,2.00,330.75,-19.75,16.25,4.06,-7.56,15.12,43.38,2.32
77.00,0.00,245.94,12.38,-117.25,44.88,4.88,15.50,44.83,2.34
77.00,1.00,350.50,-3.62,-52.38,-0.19,3.94,2.81,44.83,2.34
77.00,2.00,330.50,-19.69,16.06,4.38,-7.69,14.88,44.83,2.34
77.00,0.00,245.12,12.69,-118.12,46.19,3.94,16.75,46.32,2.36
77.00,1.00,350.38,-3.62,-52.38,-0.25,3.94,3.06,46.32,2.36
77.00,2.00,330.19,-19.62,15.88,4.94,-7.06,13.81,46.32,2.36
77.00,0.00,244.31,13.00,-119.06,46.12,3.50,17.56,47.81,2.38
77.00,1.00,350.31,-3.62,-52.38,-0.25,4.31,3.12,47.81,2.38
77.00,2.00,329.94,-19.56,15.69,4.38,-7.88,13.50,47.81,2.38
77.00,0.00,243.50,13.31,-119.94,43.31,3.62,16.00,49.20,2.40
77.00,1.00,350.19,-3.62,-52.38,0.00,3.75,3.31,49.20,2.40
77.00,2.00,329.50,-19.50,15.38,4.75,-7.62,13.62,49.20,2.40
77.00,0.00,242.69,13.62,-120.75,41.62,3.44,14.38,50.49,2.42
77.00,1.00,350.06,-3.62,-52.38,-0.06,3.12,3.25,50.49,2.42
77.00,2.00,329.25,-19.44,15.19,5.69,-6.88,13.81,50.49,2.42
77.00,0.00,241.94,13.88,-121.62,42.81,0.88,15.06,51.83,2.44
77.00,1.00,350.00,-3.56,-52.38,-0.25,3.06,3.69,51.83,2.44
77.00,2.00,329.12,-19.38,15.06,5.38,-6.81,13.88,51.83,2.44
77.00,0.00,241.25,14.12,-122.50,43.75,-2.19,16.06,53.28,2.46
77.00,1.00,349.88,-3.56,-52.38,-0.50,3.06,4.12,53.28,2.46
77.00,2.00,328.69,-19.31,14.75,3.25,-7.94,14.88,53.28,2.46
77.00,0.00,240.62,14.38,-123.38,42.19,-1.31,15.56,54.69,2.48
77.00,1.00,349.75,-3.56,-52.38,-1.19,3.06,4.38,54.69,2.48
77.00,2.00,328.56,-19.25,14.69,2.88,-8.06,14.81,54.69,2.48
77.00,0.00,239.88,14.56,-124.25,40.56,1.31,14.25,55.99,2.50
77.00,1.00,349.69,-3.50,-52.38,-0.50,2.94,3.44,55.99,2.50
77.00,2.00,328.12,-19.19,14.44,4.44,-6.31,14.94,55.99,2.50
77.00,0.00,239.12,14.81,-125.00,40.44,0.94,13.94,57.30,2.52
77.00,1.00,349.56,-3.50,-52.38,-0.56,3.31,3.81,57.30,2.52
77.00,2.00,327.94,-19.12,14.31,3.94,-5.62,15.19,57.30,2.52
77.00,0.00,238.38,15.06,-125.75,38.94,2.19,14.56,58.57,2.54
77.00,1.00,349.44,-3.50,-52.38,-0.62,3.62,4.06,58.57,2.54
77.00,2.00,327.69,-19.12,14.12,3.50,-5.44,15.31,58.57,2.54
77.00,0.00,237.50,15.31,-126.50,37.50,4.06,14.44,59.81,2.56
77.00,1.00,349.31,-3.50,-52.38,-1.00,4.50,4.19,59.81,2.56
77.00,2.00,327.19,-19.00,13.88,2.94,-8.12,16.38,59.81,2.56
77.00,0.00,236.56,15.62,-127.31,38.69,5.44,15.69,61.08,2.58
77.00,1.00,349.25,-3.44,-52.38,-0.19,4.69,3.88,61.08,2.58
77.00,2.00,327.00,-19.00,13.81,3.38,-8.12,16.38,61.08,2.58
77.00,0.00,235.62,15.94,-127.94,36.25,7.56,15.31,62.17,2.60
77.00,1.00,349.12,-3.44,-52.38,-0.38,3.88,4.12,62.17,2.60
77.00,2.00,326.56,-18.88,13.50,5.81,-6.44,15.19,62.17,2.60
77.00,0.00,234.75,16.19,-128.56,35.06,5.62,14.81,63.26,2.62
77.00,1.00,349.00,-3.44,-52.38,-1.38,4.38,4.62,63.26,2.62
77.00,2.00,326.31,-18.81,13.31,4.62,-6.62,14.25,63.26,2.62
77.00,0.00,233.81,16.44,-129.19,33.31,6.06,14.88,64.34,2.64
77.00,1.00,348.88,-3.44,-52.38,-1.12,4.44,4.25,64.34,2.64
77.00,2.00,326.19,-18.81,13.19,3.19,-7.06,14.62,64.34,2.64
77.00,0.00,232.81,16.75,-129.88,33.00,6.69,15.00,65.42,2.66
77.00,1.00,348.69,-3.44,-52.31,-1.12,5.06,4.50,65.42,2.66
77.00,2.00,325.75,-18.69,13.00,2.94,-8.12,14.81,65.42,2.66
77.00,0.00,231.81,17.06,-130.56,33.06,6.00,15.44,66.48,2.68
77.00,1.00,348.56,-3.38,-52.31,-0.56,5.06,4.88,66.48,2.68
77.00,2.00,325.56,-18.62,12.88,3.69,-7.31,14.38,66.48,2.68
77.00,0.00,231.06,17.31,-131.06,30.94,5.38,14.56,67.47,2.70
77.00,1.00,348.44,-3.38,-52.31,-0.69,4.88,5.25,67.47,2.70
77.00,2.00,325.31,-18.56,12.75,3.38,-7.19,13.62,67.47,2.70
77.00,0.00,230.31,17.50,-131.56,31.06,3.69,14.44,68.46,2.72
77.00,1.00,348.31,-3.38,-52.31,-0.44,4.75,4.69,68.46,2.72
77.00,2.00,325.06,-18.50,12.56,3.44,-6.81,12.94,68.46,2.72
77.00,0.00,229.62,17.69,-132.06,30.19,4.69,13.94,69.42,2.74
77.00,1.00,348.12,-3.38,-52.31,-1.06,4.75,4.81,69.42,2.74
77.00,2.00,324.81,-18.44,12.44,3.44,-6.00,12.81,69.42,2.74
77.00,0.00,229.00,17.81,-132.50,28.00,3.88,11.81,70.32,2.76
77.00,1.00,348.00,-3.31,-52.31,-1.19,4.50,5.38,70.32,2.76
77.00,2.00,324.44,-18.31,12.19,2.88,-5.94,12.06,70.32,2.76
77.00,0.00,228.50,17.94,-132.94,25.38,1.75,10.31,71.14,2.78
77.00,1.00,347.88,-3.31,-52.25,-1.69,4.69,4.56,71.14,2.78
77.00,2.00,324.31,-18.31,12.12,2.50,-5.50,12.38,71.14,2.78
77.00,0.00,227.88,18.06,-133.44,24.81,0.06,9.69,71.98,2.80
77.00,1.00,347.75,-3.31,-52.25,-1.38,4.62,4.31,71.98,2.80
77.00,2.00,323.94,-18.25,11.94,1.25,-5.62,12.81,71.98,2.80
77.00,0.00,227.25,18.19,-133.94,24.69,-0.69,10.56,72.82,2.82
77.00,1.00,347.62,-3.25,-52.25,-1.12,4.50,4.44,72.82,2.82
77.00,2.00,323.69,-18.19,11.88,1.38,-5.50,12.50,72.82,2.82
77.00,0.00,226.62,18.38,-134.50,25.12,-1.19,11.38,73.69,2.84
77.00,1.00,347.50,-3.25,-52.19,-1.00,4.69,4.38,73.69,2.84
77.00,2.00,323.56,-18.12,11.81,0.88,-5.50,12.38,73.69,2.84
77.00,0.00,226.00,18.50,-135.00,23.81,-0.06,10.56,74.52,2.86
77.00,1.00,347.38,-3.25,-52.19,-1.44,4.56,4.31,74.52,2.86
77.00,2.00,323.19,-18.06,11.69,0.81,-4.88,11.81,74.52,2.86
77.00,0.00,225.38,18.62,-135.50,22.44,1.62,9.19,75.27,2.88
77.00,1.00,347.25,-3.25,-52.19,-0.62,5.38,3.31,75.27,2.88
77.00,2.00,323.06,-18.06,11.69,1.31,-5.25,11.62,75.27,2.88
77.00,0.00,224.62,18.81,-135.94,21.81,3.44,9.06,75.91,2.90
77.00,1.00,347.12,-3.25,-52.19,-1.00,4.56,2.50,75.91,2.90
77.00,2.00,322.88,-18.00,11.56,4.06,-4.12,11.00,75.91,2.90
77.00,0.00,223.94,19.00,-136.31,21.50,4.38,10.25,76.51,2.92
77.00,1.00,347.06,-3.31,-52.19,-0.88,4.56,2.81,76.51,2.92
77.00,2.00,322.69,-17.94,11.44,4.94,-3.81,10.12,76.51,2.92
77.00,0.00,223.12,19.19,-136.69,21.38,5.56,10.81,77.13,2.94
77.00,1.00,346.94,-3.31,-52.19,-0.69,4.62,2.31,77.13,2.94
77.00,2.00,322.50,-17.88,11.31,3.94,-5.69,9.81,77.13,2.94
77.00,0.00,222.38,19.38,-137.06,21.06,6.31,9.88,77.70,2.96
77.00,1.00,346.88,-3.31,-52.19,-0.69,3.88,2.00,77.70,2.96
77.00,2.00,322.31,-17.81,11.19,5.12,-5.31,9.50,77.70,2.96
77.00,0.00,221.69,19.56,-137.38,22.06,5.25,9.00,78.32,2.98
77.00,1.00,346.81,-3.31,-52.12,-0.56,3.81,2.38,78.32,2.98
77.00,2.00,322.19,-17.75,11.06,4.94,-4.88,8.94,78.32,2.98
77.00,0.00,221.06,19.69,-137.69,20.19,5.81,8.50,78.88,3.00
77.00,1.00,346.69,-3.38,-52.12,-0.62,3.38,2.06,78.88,3.00
77.00,2.00,322.00,-17.69,10.88,4.56,-5.50,8.75,78.88,3.00
77.00,0.00,220.44,19.81,-138.06,20.00,3.19,7.56,79.37,3.02
77.00,1.00,346.62,-3.38,-52.12,-0.69,3.00,1.94,79.37,3.02
77.00,2.00,321.88,-17.62,10.75,6.19,-5.00,8.69,79.37,3.02
77.00,0.00,219.69,19.94,-138.50,22.25,2.31,9.19,79.94,3.04
77.00,1.00,346.56,-3.38,-52.12,0.06,3.31,1.88,79.94,3.04
77.00,2.00,321.69,-17.56,10.56,6.50,-4.56,8.31,79.94,3.04
77.00,0.00,97.31,20.12,-139.00,23.62,3.81,10.19,80.59,3.06
77.00,1.00,346.50,-3.38,-52.12,0.12,2.94,2.38,80.59,3.06
77.00,2.00,321.56,-17.50,10.44,5.38,-4.19,8.19,80.59,3.06
77.00,0.00,97.38,20.31,-139.44,22.94,5.75,9.81,81.26,3.08
77.00,1.00,346.44,-3.38,-52.12,-0.19,2.50,2.50,81.26,3.08
77.00,2.00,321.38,-17.44,10.31,4.31,-4.44,7.44,81.26,3.08
77.00,0.00,97.38,20.50,-139.75,20.19,6.56,7.94,81.81,3.10
77.00,1.00,346.38,-3.38,-52.06,-0.62,2.44,1.69,81.81,3.10
77.00,2.00,321.25,-17.38,10.19,4.81,-4.44,7.81,81.81,3.10
77.00,0.00,97.31,20.62,-140.06,16.44,4.81,4.88,82.19,3.12
77.00,1.00,346.31,-3.38,-52.06,-0.19,2.25,1.38,82.19,3.12
77.00,2.00,321.12,-17.31,10.00,6.06,-3.88,7.31,82.19,3.12
77.00,0.00,97.31,20.62,-140.31,15.75,2.56,4.81,82.54,3.14
77.00,1.00,346.31,-3.38,-52.06,-0.31,2.31,1.56,82.54,3.14
77.00,2.00,321.00,-17.25,9.88,5.81,-3.69,6.62,82.54,3.14
77.00,0.00,97.38,20.75,-140.62,14.94,1.06,4.69,82.92,3.16
77.00,1.00,346.25,-3.44,-52.06,-0.31,2.38,2.00,82.92,3.16
77.00,2.00,320.88,-17.19,9.69,4.44,-4.00,7.00,82.92,3.16
77.00,0.00,97.38,20.75,-140.94,14.44,0.12,3.94,83.28,3.18
77.00,1.00,346.19,-3.44,-52.06,-0.06,2.00,1.75,83.28,3.18
77.00,2.00,320.75,-17.12,9.62,4.38,-4.50,6.56,83.28,3.18
77.00,0.00,97.38,20.81,-141.19,15.38,0.94,4.56,83.63,3.20
77.00,1.00,346.12,-3.44,-52.06,0.12,2.12,1.62,83.63,3.20
77.00,2.00,320.62,-17.06,9.50,5.62,-3.31,6.56,83.63,3.20
77.00,0.00,97.44,20.94,-141.56,15.56,3.88,6.19,84.00,3.22
77.00,1.00,346.06,-3.44,-52.06,0.44,2.81,1.88,84.00,3.22
77.00,2.00,320.56,-17.06,9.31,5.31,-2.00,6.56,84.00,3.22
77.00,0.00,97.44,21.12,-141.81,15.19,5.69,7.06,84.41,3.24
77.00,1.00,346.00,-3.44,-52.06,0.25,2.81,2.38,84.41,3.24
77.00,2.00,320.44,-17.06,9.19,3.69,-1.50,7.38,84.41,3.24
77.00,0.00,97.50,21.31,-142.12,13.62,7.31,7.25,84.80,3.26
77.00,1.00,345.94,-3.44,-52.06,0.31,3.19,2.12,84.80,3.26
77.00,2.00,320.31,-17.06,9.12,2.81,-2.12,6.75,84.80,3.26
77.00,0.00,97.50,21.50,-142.31,12.50,6.38,6.06,85.13,3.28
77.00,1.00,345.88,-3.44,-52.06,0.25,3.25,1.88,85.13,3.28
77.00,2.00,320.19,-17.00,9.00,3.19,-2.38,6.38,85.13,3.28
77.00,0.00,97.50,21.62,-142.50,11.31,5.38,4.62,85.40,3.30
77.00,1.00,345.81,-3.44,-52.06,1.50,3.31,1.69,85.40,3.30
77.00,2.00,320.06,-16.94,8.94,3.75,-3.25,5.50,85.40,3.30
77.00,0.00,97.50,21.69,-142.69,10.88,5.00,2.88,85.64,3.32
77.00,1.00,345.75,-3.50,-52.06,1.44,4.38,0.81,85.64,3.32
77.00,2.00,320.00,-16.94,8.81,4.38,-2.69,4.94,85.64,3.32
77.00,0.00,97.44,21.75,-142.81,9.88,1.94,3.75,85.78,3.34
77.00,1.00,345.75,-3.50,-52.12,0.00,1.25,1.69,85.78,3.34
77.00,2.00,319.94,-16.88,8.69,5.81,-1.88,3.81,85.78,3.34
77.00,0.00,97.50,21.81,-143.00,9.56,2.44,5.25,85.96,3.36
77.00,1.00,345.62,-3.50,-52.12,0.62,2.88,0.94,85.96,3.36
77.00,2.00,319.81,-16.88,8.56,4.69,-2.50,4.69,85.96,3.36
77.00,0.00,97.56,21.94,-143.25,10.94,2.81,5.69,86.22,3.38
77.00,1.00,345.62,-3.50,-52.12,1.00,1.94,1.38,86.22,3.38
77.00,2.00,319.75,-16.81,8.50,3.69,-2.56,4.38,86.22,3.38
77.00,0.00,97.62,22.06,-143.50,12.75,2.94,7.38,86.54,3.40
77.00,1.00,345.56,-3.50,-52.12,1.06,2.69,1.19,86.54,3.40
77.00,2.00,319.69,-16.81,8.38,3.88,-2.38,3.94,86.54,3.40
77.00,0.00,97.62,22.19,-143.69,8.44,5.19,4.50,86.69,3.42
77.00,1.00,345.50,-3.56,-52.12,0.31,1.50,1.12,86.69,3.42
77.00,2.00,319.62,-16.75,8.31,4.12,-1.94,3.19,86.69,3.42
77.00,0.00,97.62,22.25,-143.81,6.44,1.25,1.88,86.78,3.44
77.00,1.00,345.50,-3.56,-52.12,0.00,1.75,0.88,86.78,3.44
77.00,2.00,319.56,-16.75,8.19,4.06,-0.88,2.50,86.78,3.44
77.00,0.00,97.69,22.25,-144.00,8.00,-2.50,2.75,86.94,3.46
77.00,1.00,345.50,-3.56,-52.12,-0.19,1.44,0.69,86.94,3.46
77.00,2.00,319.56,-16.75,8.12,3.50,-0.75,1.69,86.94,3.46
77.00,0.00,97.75,22.25,-144.25,9.38,-2.31,4.00,87.13,3.48
77.00,1.00,345.44,-3.56,-52.12,0.19,1.25,0.00,87.13,3.48
77.00,2.00,319.56,-16.69,8.06,3.94,-1.44,1.88,87.13,3.48
77.00,0.00,97.81,22.31,-144.50,10.94,-0.56,6.00,87.32,3.50
77.00,1.00,345.44,-3.56,-52.12,0.12,0.50,-0.19,87.32,3.50
77.00,2.00,319.50,-16.69,7.94,5.62,-1.50,1.69,87.32,3.50
77.00,0.00,97.88,22.44,-144.62,6.62,3.88,4.69,87.32,3.52
77.00,1.00,345.44,-3.62,-52.12,0.25,0.62,-0.31,87.32,3.52
77.00,2.00,319.50,-16.69,7.81,6.62,0.00,0.44,87.32,3.52
77.00,0.00,97.81,22.50,-144.69,3.12,2.50,0.81,87.25,3.54
77.00,1.00,345.44,-3.62,-52.12,-0.44,0.44,-0.31,87.25,3.54
77.00,2.00,319.56,-16.69,7.75,5.06,0.12,-0.19,87.25,3.54
77.00,0.00,97.81,22.50,-144.81,5.25,0.06,1.38,87.32,3.56
77.00,1.00,345.44,-3.62,-52.12,0.06,0.88,-0.12,87.32,3.56
77.00,2.00,319.50,-16.69,7.62,3.50,-1.19,1.06,87.32,3.56
77.00,0.00,97.88,22.56,-144.94,7.69,1.06,4.81,87.49,3.58
77.00,1.00,345.44,-3.62,-52.12,0.12,1.00,0.19,87.49,3.58
77.00,2.00,319.50,-16.62,7.56,2.81,-1.56,1.44,87.49,3.58
77.00,0.00,97.94,22.69,-145.12,7.31,3.31,6.12,87.65,3.60
77.00,1.00,345.44,-3.62,-52.12,0.00,0.56,0.50,87.65,3.60
77.00,2.00,319.50,-16.62,7.50,2.94,-2.06,1.38,87.65,3.60
77.00,0.00,98.00,22.81,-145.25,5.31,3.88,4.69,87.74,3.62
77.00,1.00,345.44,-3.62,-52.12,-0.19,0.44,0.38,87.74,3.62
77.00,2.00,319.50,-16.56,7.44,2.69,-1.44,1.06,87.74,3.62
77.00,0.00,98.00,22.88,-145.31,3.69,3.75,3.06,87.78,3.64
77.00,1.00,345.44,-3.62,-52.12,0.06,0.88,0.38,87.78,3.64
77.00,2.00,319.44,-16.56,7.38,2.69,-0.12,1.31,87.78,3.64
77.00,0.00,98.06,23.00,-145.44,4.56,2.75,3.62,87.86,3.66
77.00,1.00,345.44,-3.69,-52.12,0.62,1.19,0.31,87.86,3.66
77.00,2.00,319.44,-16.56,7.31,2.25,-0.44,2.19,87.86,3.66
77.00,0.00,98.06,23.06,-145.50,3.69,3.75,3.75,87.95,3.68
77.00,1.00,345.44,-3.69,-52.12,1.25,2.06,0.38,87.95,3.68
77.00,2.00,319.38,-16.56,7.31,1.25,-1.38,2.00,87.95,3.68
77.00,0.00,98.06,23.12,-145.56,2.12,2.94,1.50,87.97,3.70
77.00,1.00,345.44,-3.69,-52.19,0.44,2.06,0.38,87.97,3.70
77.00,2.00,319.38,-16.50,7.25,1.50,-1.12,1.81,87.97,3.70
77.00,0.00,98.06,23.12,-145.56,2.75,-0.38,1.88,87.98,3.72
77.00,1.00,345.38,-3.75,-52.19,0.06,0.56,0.31,87.98,3.72
77.00,2.00,319.31,-16.50,7.19,2.56,-1.19,1.44,87.98,3.72
77.00,0.00,98.12,23.12,-145.62,3.62,0.56,3.56,88.03,3.74
77.00,1.00,345.38,-3.75,-52.19,0.50,1.12,0.38,88.03,3.74
77.00,2.00,319.31,-16.50,7.12,2.31,0.19,1.56,88.03,3.74
77.00,0.00,98.19,23.19,-145.75,3.38,1.50,4.31,88.13,3.76
77.00,1.00,345.38,-3.75,-52.19,0.19,0.50,0.88,88.13,3.76
77.00,2.00,319.31,-16.50,7.12,0.56,-0.56,1.62,88.13,3.76
77.00,0.00,98.25,23.25,-145.81,2.50,0.50,3.19,88.20,3.78
77.00,1.00,345.38,-3.75,-52.19,0.00,0.38,0.75,88.20,3.78
77.00,2.00,319.25,-16.50,7.12,0.44,-0.62,1.44,88.20,3.78
77.00,0.00,98.25,23.25,-145.88,2.00,0.50,2.12,88.21,3.80
77.00,1.00,345.38,-3.75,-52.19,-0.31,0.56,0.88,88.21,3.80
77.00,2.00,319.25,-16.50,7.06,1.75,0.69,1.81,88.21,3.80
77.00,0.00,98.31,23.31,-145.94,2.19,-0.38,2.00,88.27,3.82
77.00,1.00,345.31,-3.69,-52.19,-0.31,1.19,0.56,88.27,3.82
77.00,2.00,319.19,-16.50,7.06,0.56,-0.31,2.31,88.27,3.82
77.00,0.00,98.31,23.31,-146.00,2.62,-0.06,2.25,88.37,3.84
77.00,1.00,345.31,-3.75,-52.19,-0.06,1.88,0.88,88.37,3.84
77.00,2.00,319.12,-16.50,7.06,-0.19,-0.94,2.75,88.37,3.84
77.00,0.00,98.38,23.38,-146.06,3.19,1.38,3.75,88.43,3.86
77.00,1.00,345.31,-3.75,-52.19,-0.06,1.56,0.25,88.43,3.86
77.00,2.00,319.12,-16.50,7.00,1.38,-0.75,1.62,88.43,3.86
77.00,0.00,98.44,23.44,-146.12,2.88,2.69,3.62,88.47,3.88
77.00,1.00,345.25,-3.75,-52.19,-0.19,1.38,0.25,88.47,3.88
77.00,2.00,319.06,-16.50,6.94,2.00,0.00,1.25,88.47,3.88
77.00,0.00,98.44,23.50,-146.19,2.56,2.56,3.75,88.50,3.90
77.00,1.00,345.25,-3.81,-52.19,-0.31,1.50,0.25,88.50,3.90
77.00,2.00,319.06,-16.50,6.94,1.62,-0.06,1.19,88.50,3.90
77.00,0.00,98.50,23.56,-146.25,2.25,1.75,3.12,88.54,3.92
77.00,1.00,345.25,-3.81,-52.19,-0.31,1.25,0.12,88.54,3.92
77.00,2.00,319.06,-16.50,6.88,1.19,-0.06,1.44,88.54,3.92
77.00,0.00,98.56,23.62,-146.31,2.56,1.06,2.94,88.58,3.94
77.00,1.00,345.25,-3.81,-52.19,-0.25,1.25,0.38,88.58,3.94
77.00,2.00,319.00,-16.50,6.88,1.25,0.19,1.69,88.58,3.94
77.00,0.00,98.56,23.62,-146.38,3.44,0.19,3.00,88.69,3.96
77.00,1.00,345.25,-3.88,-52.19,-0.06,1.50,0.88,88.69,3.96
77.00,2.00,319.00,-16.50,6.81,0.62,-0.62,1.62,88.69,3.96
77.00,0.00,98.62,23.69,-146.50,3.75,-0.81,2.44,88.78,3.98
77.00,1.00,345.19,-3.88,-52.19,0.81,2.81,0.75,88.78,3.98
77.00,2.00,318.94,-16.50,6.81,1.00,-0.50,1.56,88.78,3.98
77.00,0.00,98.62,23.69,-146.56,4.69,0.19,2.19,88.93,4.00
77.00,1.00,345.19,-3.88,-52.19,-0.38,3.62,0.56,88.93,4.00
77.00,2.00,318.94,-16.50,6.81,0.50,-0.38,1.50,88.93,4.00
77.00,0.00,98.62,23.75,-146.69,3.81,1.62,2.12,89.03,4.02
77.00,1.00,345.12,-3.94,-52.19,-0.88,0.94,1.25,89.03,4.02
77.00,2.00,318.88,-16.50,6.75,1.25,0.31,1.69,89.03,4.02
77.00,0.00,98.69,23.81,-146.75,2.38,1.75,2.69,89.09,4.04
77.00,1.00,345.12,-3.94,-52.19,-0.44,1.75,0.94,89.09,4.04
77.00,2.00,318.88,-16.50,6.75,0.56,0.06,2.62,89.09,4.04
77.00,0.00,98.69,23.81,-146.75,1.12,1.62,1.75,89.17,4.06
77.00,1.00,345.06,-3.94,-52.19,-1.19,1.19,1.50,89.17,4.06
77.00,2.00,318.81,-16.50,6.75,-0.94,-0.50,2.44,89.17,4.06
77.00,0.00,98.75,23.81,-146.81,1.31,0.31,1.38,89.25,4.08
77.00,1.00,345.00,-3.94,-52.19,-0.31,2.12,1.44,89.25,4.08
77.00,2.00,318.75,-16.50,6.75,-1.06,-0.38,2.94,89.25,4.08
77.00,0.00,98.75,23.81,-146.81,1.62,-0.44,0.50,89.34,4.10
77.00,1.00,345.00,-3.94,-52.19,-0.81,1.81,1.56,89.34,4.10
77.00,2.00,318.69,-16.50,6.75,-0.94,0.19,2.62,89.34,4.10
77.00,0.00,98.69,23.81,-146.88,1.38,-0.62,0.31,89.44,4.12
77.00,1.00,344.94,-3.94,-52.12,-0.69,2.12,1.56,89.44,4.12
77.00,2.00,318.62,-16.50,6.75,-1.38,1.06,2.69,89.44,4.12
77.00,0.00,98.69,23.81,-146.88,0.75,-1.31,0.19,89.52,4.14
77.00,1.00,344.88,-3.94,-52.12,-0.75,1.88,1.50,89.52,4.14
77.00,2.00,318.56,-16.56,6.75,-1.50,0.81,3.00,89.52,4.14
77.00,0.00,98.69,23.75,-146.88,0.38,-1.12,-0.12,89.58,4.16
77.00,1.00,344.81,-3.94,-52.12,-0.94,2.31,1.69,89.58,4.16
77.00,2.00,318.50,-16.56,6.81,-1.25,1.31,2.06,89.58,4.16
77.00,0.00,98.69,23.75,-146.88,0.06,-0.88,-0.50,89.65,4.18
77.00,1.00,344.75,-3.94,-52.12,-0.75,2.44,1.75,89.65,4.18
77.00,2.00,318.50,-16.62,6.81,-1.88,1.06,2.88,89.65,4.18
77.00,0.00,98.69,23.69,-146.88,-0.06,-0.81,-0.88,89.71,4.20
77.00,1.00,344.75,-3.94,-52.12,-0.50,2.25,1.75,89.71,4.20
77.00,2.00,318.38,-16.62,6.81,-1.81,0.25,3.12,89.71,4.20
77.00,0.00,98.69,23.69,-146.88,-0.50,-0.25,-1.06,89.77,4.22
77.00,1.00,344.69,-3.94,-52.12,-0.69,1.94,1.75,89.77,4.22
77.00,2.00,318.38,-16.62,6.88,-2.06,0.75,2.56,89.77,4.22
77.00,0.00,98.69,23.69,-146.81,-1.12,0.44,-1.12,89.79,4.24
77.00,1.00,344.62,-3.94,-52.06,-0.88,2.25,1.50,89.79,4.24
77.00,2.00,318.31,-16.62,6.88,-1.62,1.44,2.06,89.79,4.24
77.00,0.00,98.62,23.69,-146.81,-0.81,0.62,-1.12,89.82,4.26
77.00,1.00,344.56,-3.94,-52.06,-1.00,2.25,1.25,89.82,4.26
77.00,2.00,318.25,-16.69,6.94,-1.69,1.12,2.38,89.82,4.26
77.00,0.00,98.62,23.69,-146.75,-1.00,1.12,-1.31,89.84,4.28
77.00,1.00,344.50,-3.94,-52.06,-0.94,2.31,1.56,89.84,4.28
77.00,2.00,318.19,-16.69,6.94,-1.69,1.06,2.38,89.84,4.28
77.00,0.00,98.56,23.62,-146.69,-0.62,-1.62,-1.12,89.90,4.30
77.00,1.00,344.44,-3.94,-52.06,-0.88,2.00,1.69,89.90,4.30
77.00,2.00,318.12,-16.75,6.94,-2.19,0.75,2.50,89.90,4.30
77.00,0.00,98.62,23.56,-146.75,-0.50,-3.81,-0.38,89.97,4.32
77.00,1.00,344.38,-3.94,-52.00,-1.25,1.69,2.00,89.97,4.32
77.00,2.00,318.12,-16.75,7.00,-2.56,0.88,2.06,89.97,4.32
77.00,0.00,98.56,23.50,-146.75,-0.38,-3.25,-1.62,90.06,4.34
77.00,1.00,344.38,-3.94,-52.00,-1.06,1.56,1.81,90.06,4.34
77.00,2.00,318.06,-16.75,7.06,-2.69,0.88,2.38,90.06,4.34
77.00,0.00,98.56,23.38,-146.75,-0.50,-2.56,-2.00,90.13,4.36
77.00,1.00,344.31,-3.88,-52.00,-0.81,1.25,1.75,90.13,4.36
77.00,2.00,318.00,-16.81,7.12,-2.50,1.75,2.06,90.13,4.36
77.00,0.00,98.56,23.38,-146.69,-0.44,-1.62,-1.38,90.21,4.38
77.00,1.00,344.25,-3.88,-52.00,-0.88,1.19,1.56,90.21,4.38
77.00,2.00,318.00,-16.81,7.19,-2.81,1.19,1.56,90.21,4.38
77.00,0.00,98.50,23.31,-146.69,-0.38,-1.50,-1.19,90.29,4.40
77.00,1.00,344.25,-3.88,-51.94,-0.75,1.31,1.44,90.29,4.40
77.00,2.00,317.94,-16.81,7.25,-2.62,0.44,1.56,90.29,4.40
77.00,0.00,98.50,23.25,-146.69,-0.25,-2.50,-1.62,90.33,4.42
77.00,1.00,344.19,-3.88,-51.94,-0.88,1.12,1.12,90.33,4.42
77.00,2.00,317.94,-16.81,7.25,-1.25,1.06,1.00,90.33,4.42
77.00,0.00,98.50,23.19,-146.69,0.06,-3.31,-1.75,90.34,4.44
77.00,1.00,344.19,-3.88,-51.94,-0.56,1.00,0.19,90.34,4.44
77.00,2.00,317.88,-16.88,7.31,-0.25,1.56,1.38,90.34,4.44
77.00,0.00,98.50,23.12,-146.69,0.12,-2.81,-0.94,90.36,4.46
77.00,1.00,344.19,-3.88,-51.94,-0.12,0.88,0.31,90.36,4.46
77.00,2.00,317.88,-16.88,7.31,-0.38,1.50,1.12,90.36,4.46
77.00,0.00,98.50,23.06,-146.69,0.06,-1.81,-0.69,90.39,4.48
77.00,1.00,344.12,-3.88,-51.94,0.00,0.88,0.62,90.39,4.48
77.00,2.00,317.88,-16.88,7.31,-0.75,0.31,0.25,90.39,4.48
77.00,0.00,98.50,23.06,-146.69,0.19,-1.81,-0.38,90.40,4.50
77.00,1.00,344.12,-3.88,-51.94,-0.19,0.31,0.44,90.40,4.50
77.00,2.00,317.88,-16.88,7.38,-0.06,0.50,-0.12,90.40,4.50
77.00,0.00,98.50,23.00,-146.69,0.31,-1.31,-0.25,90.40,4.52
77.00,1.00,344.12,-3.88,-51.94,0.06,0.19,0.06,90.40,4.52
77.00,2.00,317.88,-16.94,7.38,0.31,0.62,-0.19,90.40,4.52
77.00,0.00,98.50,23.00,-146.69,0.75,-0.88,-0.19,90.40,4.54
77.00,1.00,344.12,-3.88,-51.94,0.38,-0.25,-0.25,90.40,4.54
77.00,2.00,317.88,-16.94,7.38,0.69,0.62,-0.81,90.40,4.54
77.00,0.00,98.50,23.00,-146.75,0.69,0.50,0.31,90.37,4.56
77.00,1.00,344.12,-3.88,-51.94,0.44,-0.25,-0.31,90.37,4.56
77.00,2.00,317.94,-16.94,7.38,1.50,0.69,-1.44,90.37,4.56
77.00,0.00,98.50,23.06,-146.75,0.88,2.19,0.69,90.35,4.58
77.00,1.00,344.12,-3.88,-51.94,0.56,-0.38,-0.56,90.35,4.58
77.00,2.00,317.94,-16.94,7.38,1.38,0.19,-1.38,90.35,4.58
77.00,0.00,98.50,23.12,-146.75,1.12,2.94,1.00,90.35,4.60
77.00,1.00,344.12,-3.88,-51.94,0.88,-0.56,-0.25,90.35,4.60
77.00,2.00,318.00,-16.94,7.31,1.25,0.00,-1.25,90.35,4.60
77.00,0.00,98.50,23.19,-146.75,0.75,3.44,1.25,90.32,4.62
77.00,1.00,344.12,-3.88,-52.00,1.00,-0.81,-0.44,90.32,4.62
77.00,2.00,318.00,-16.94,7.31,1.62,0.00,-1.88,90.32,4.62
77.00,0.00,98.50,23.31,-146.69,0.62,5.81,1.19,90.25,4.64
77.00,1.00,344.19,-3.88,-52.00,1.06,-0.81,-0.75,90.25,4.64
77.00,2.00,318.06,-16.94,7.31,2.38,0.00,-2.38,90.25,4.64
77.00,0.00,98.44,23.44,-146.69,0.12,8.44,1.44,90.19,4.66
77.00,1.00,344.19,-3.88,-52.00,0.88,-1.12,-0.81,90.19,4.66
77.00,2.00,318.12,-16.88,7.31,1.75,0.19,-2.31,90.19,4.66
77.00,0.00,98.44,23.62,-146.62,-0.06,9.06,2.06,90.13,4.68
77.00,1.00,344.25,-3.88,-52.06,1.19,-1.31,-1.12,90.13,4.68
77.00,2.00,318.19,-16.88,7.31,1.62,0.12,-2.19,90.13,4.68
