Iteration,IMUNo,OrientationX (deg),OrientationY,OrientationZ,GyroX (20rad/sec),GyroY,GyroZ,Elbow_Pos (rad),Time (sec)
78.00,0.00,257.81,5.00,-95.94,0.00,0.56,0.06,0.00,0.00
78.00,1.00,350.69,-2.12,-51.62,0.00,0.12,0.44,0.00,0.00
78.00,2.00,335.56,-20.44,20.06,-0.06,-0.44,0.25,0.00,0.00
78.00,0.00,257.50,5.06,-95.88,0.06,0.38,0.19,0.01,1.02
78.00,1.00,350.69,-2.12,-51.62,0.06,-0.50,0.44,0.01,1.02
78.00,2.00,335.44,-20.44,19.94,-0.12,-0.38,0.38,0.01,1.02
78.00,0.00,257.50,5.06,-95.88,0.19,0.44,0.44,0.01,1.04
78.00,1.00,350.69,-2.12,-51.62,0.25,-0.38,0.69,0.01,1.04
78.00,2.00,335.44,-20.44,19.94,0.06,-0.25,0.38,0.01,1.04
78.00,0.00,257.50,5.06,-95.88,0.00,0.56,0.19,0.00,1.06
78.00,1.00,350.69,-2.12,-51.62,0.25,-0.19,0.88,0.00,1.06
78.00,2.00,335.44,-20.44,19.94,0.25,-0.25,0.31,0.00,1.06
78.00,0.00,257.50,5.06,-95.88,0.12,0.62,0.25,0.01,1.08
78.00,1.00,350.69,-2.12,-51.62,-0.06,0.00,0.25,0.01,1.08
78.00,2.00,335.44,-20.44,19.94,-0.06,-0.06,0.25,0.01,1.08
78.00,0.00,257.50,5.06,-95.88,0.00,0.50,0.06,0.00,1.10
78.00,1.00,350.69,-2.12,-51.62,0.06,-0.19,0.38,0.00,1.10
78.00,2.00,335.44,-20.44,19.94,0.31,-0.12,0.31,0.00,1.10
78.00,0.00,257.50,5.06,-95.88,0.06,0.56,0.00,0.00,1.12
78.00,1.00,350.69,-2.12,-51.62,-0.06,-0.19,0.44,0.00,1.12
78.00,2.00,335.44,-20.44,19.94,0.06,-0.12,0.25,0.00,1.12
78.00,0.00,257.50,5.06,-95.88,-0.12,0.44,0.06,0.00,1.14
78.00,1.00,350.69,-2.12,-51.62,0.06,-0.31,0.44,0.00,1.14
78.00,2.00,335.44,-20.44,19.94,0.00,-0.25,-0.06,0.00,1.14
78.00,0.00,257.50,5.06,-95.88,-0.31,0.19,0.06,-0.02,1.16
78.00,1.00,350.69,-2.12,-51.62,-0.06,-0.25,0.44,-0.02,1.16
78.00,2.00,335.44,-20.44,19.94,0.19,0.06,0.00,-0.02,1.16
78.00,0.00,257.50,5.06,-95.88,-0.12,0.00,0.19,-0.03,1.18
78.00,1.00,350.69,-2.12,-51.62,-0.25,-0.44,0.38,-0.03,1.18
78.00,2.00,335.44,-20.44,19.94,0.19,-0.12,0.06,-0.03,1.18
78.00,0.00,257.50,5.06,-95.88,-0.06,-0.38,0.12,-0.03,1.20
78.00,1.00,350.69,-2.12,-51.62,0.00,-0.44,0.19,-0.03,1.20
78.00,2.00,335.44,-20.44,19.94,0.00,0.06,0.06,-0.03,1.20
78.00,0.00,257.50,5.06,-95.88,-0.19,-0.06,-0.06,-0.04,1.22
78.00,1.00,350.69,-2.12,-51.62,0.19,-0.19,0.12,-0.04,1.22
78.00,2.00,335.44,-20.44,19.94,0.00,0.06,0.06,-0.04,1.22
78.00,0.00,257.50,5.06,-95.88,0.00,0.38,-0.12,-0.04,1.24
78.00,1.00,350.69,-2.12,-51.62,0.00,-0.50,-0.06,-0.04,1.24
78.00,2.00,335.44,-20.44,19.94,0.06,0.19,0.31,-0.04,1.24
78.00,0.00,257.50,5.06,-95.88,0.12,0.38,-0.06,-0.04,1.26
78.00,1.00,350.69,-2.12,-51.62,-0.06,-0.62,-0.06,-0.04,1.26
78.00,2.00,335.44,-20.44,19.94,0.06,0.19,0.19,-0.04,1.26
78.00,0.00,257.50,5.06,-95.88,0.00,0.38,0.19,-0.05,1.28
78.00,1.00,350.69,-2.12,-51.62,-0.12,-0.75,-0.19,-0.05,1.28
78.00,2.00,335.44,-20.44,19.94,0.12,0.00,0.12,-0.05,1.28
78.00,0.00,257.50,5.06,-95.88,0.06,0.25,0.06,-0.05,1.30
78.00,1.00,350.69,-2.12,-51.62,0.00,-0.94,-0.25,-0.05,1.30
78.00,2.00,335.44,-20.44,19.94,0.31,0.00,-0.12,-0.05,1.30
78.00,0.00,257.50,5.06,-95.88,-0.31,-0.31,0.00,-0.07,1.32
78.00,1.00,350.69,-2.12,-51.62,0.06,-0.81,-0.12,-0.07,1.32
78.00,2.00,335.44,-20.44,19.94,0.25,0.25,-0.25,-0.07,1.32
78.00,0.00,257.50,5.06,-95.88,-0.06,-0.69,0.19,-0.08,1.34
78.00,1.00,350.69,-2.06,-51.62,0.12,-0.69,-0.12,-0.08,1.34
78.00,2.00,335.44,-20.44,19.94,0.19,0.19,-0.19,-0.08,1.34
78.00,0.00,257.50,5.06,-95.88,0.00,-0.31,0.12,-0.08,1.36
78.00,1.00,350.69,-2.06,-51.62,-0.12,-0.81,0.19,-0.08,1.36
78.00,2.00,335.44,-20.44,19.94,0.06,0.25,-0.31,-0.08,1.36
78.00,0.00,257.50,5.06,-95.88,-0.19,-0.25,0.19,-0.09,1.38
78.00,1.00,350.75,-2.06,-51.62,-0.12,-0.88,0.38,-0.09,1.38
78.00,2.00,335.44,-20.44,19.94,0.06,0.00,-0.44,-0.09,1.38
78.00,0.00,257.50,5.06,-95.88,-0.31,-0.44,0.12,-0.10,1.40
78.00,1.00,350.75,-2.06,-51.62,-0.44,-0.69,0.19,-0.10,1.40
78.00,2.00,335.44,-20.44,19.94,-0.25,-0.06,-0.56,-0.10,1.40
78.00,0.00,257.50,5.06,-95.88,-0.44,-0.06,-0.12,-0.10,1.42
78.00,1.00,350.75,-2.06,-51.62,-0.31,-0.56,0.19,-0.10,1.42
78.00,2.00,335.44,-20.44,19.94,-0.31,-0.25,-0.56,-0.10,1.42
78.00,0.00,257.50,5.06,-95.88,-0.25,0.00,-0.06,-0.10,1.44
78.00,1.00,350.75,-2.06,-51.62,-0.62,-0.62,0.12,-0.10,1.44
78.00,2.00,335.44,-20.44,19.94,-0.12,-0.06,-0.31,-0.10,1.44
78.00,0.00,257.50,5.06,-95.88,-0.19,-0.19,-0.06,-0.10,1.46
78.00,1.00,350.75,-2.06,-51.62,-0.56,-0.50,0.25,-0.10,1.46
78.00,2.00,335.44,-20.44,19.94,-0.44,-0.19,-0.12,-0.10,1.46
78.00,0.00,257.50,5.06,-95.88,-0.44,0.19,-0.19,-0.10,1.48
78.00,1.00,350.75,-2.06,-51.62,-0.38,-0.50,0.50,-0.10,1.48
78.00,2.00,335.44,-20.44,19.94,-0.19,-0.19,-0.12,-0.10,1.48
78.00,0.00,257.50,5.06,-95.88,-0.19,0.56,0.06,-0.11,1.50
78.00,1.00,350.75,-2.06,-51.62,-0.38,-0.56,0.38,-0.11,1.50
78.00,2.00,335.44,-20.44,19.94,-0.12,-0.25,-0.25,-0.11,1.50
78.00,0.00,257.50,5.06,-95.88,-0.44,0.62,0.06,-0.12,1.52
78.00,1.00,350.75,-2.06,-51.62,-0.31,-0.56,0.31,-0.12,1.52
78.00,2.00,335.44,-20.44,19.94,0.06,-0.12,-0.06,-0.12,1.52
78.00,0.00,257.50,5.06,-95.88,0.00,0.75,0.38,-0.13,1.54
78.00,1.00,350.75,-2.06,-51.62,-0.06,-0.50,0.25,-0.13,1.54
78.00,2.00,335.44,-20.44,19.94,0.19,-0.19,-0.12,-0.13,1.54
78.00,0.00,257.50,5.06,-95.88,0.06,0.69,0.25,-0.13,1.56
78.00,1.00,350.75,-2.06,-51.62,-0.44,-0.88,0.38,-0.13,1.56
78.00,2.00,335.44,-20.44,19.94,0.12,-0.44,0.12,-0.13,1.56
78.00,0.00,257.50,5.06,-95.88,0.00,0.62,0.25,-0.14,1.58
78.00,1.00,350.75,-2.06,-51.62,-0.31,-0.19,0.44,-0.14,1.58
78.00,2.00,335.44,-20.44,19.94,0.25,-0.31,-0.38,-0.14,1.58
78.00,0.00,257.50,5.06,-95.88,0.12,0.56,0.12,-0.13,1.60
78.00,1.00,350.75,-2.06,-51.62,-0.62,-0.62,0.56,-0.13,1.60
78.00,2.00,335.44,-20.44,19.94,-0.19,0.00,-0.19,-0.13,1.60
78.00,0.00,257.50,5.06,-95.88,0.06,0.81,0.25,-0.10,1.62
78.00,1.00,350.75,-2.00,-51.62,-0.75,-0.31,0.50,-0.10,1.62
78.00,2.00,335.44,-20.44,19.94,-0.69,-0.38,0.25,-0.10,1.62
78.00,0.00,257.44,5.06,-95.88,0.50,0.38,0.31,-0.06,1.64
78.00,1.00,350.75,-2.00,-51.56,-0.69,-0.62,0.44,-0.06,1.64
78.00,2.00,335.44,-20.44,20.00,-0.88,-0.06,0.00,-0.06,1.64
78.00,0.00,257.44,5.06,-95.88,1.25,0.19,0.88,0.00,1.66
78.00,1.00,350.75,-2.00,-51.56,-0.75,-0.12,0.06,0.00,1.66
78.00,2.00,335.44,-20.44,20.00,-0.38,-0.50,0.19,0.00,1.66
78.00,0.00,257.44,5.06,-95.94,2.50,0.62,1.31,0.09,1.68
78.00,1.00,350.75,-2.06,-51.56,-0.44,-0.19,-0.44,0.09,1.68
78.00,2.00,335.44,-20.44,20.00,-0.12,-0.81,-0.19,0.09,1.68
78.00,0.00,257.38,5.12,-96.00,3.94,1.38,1.88,0.22,1.70
78.00,1.00,350.75,-2.06,-51.56,-1.12,-0.69,-0.44,0.22,1.70
78.00,2.00,335.44,-20.44,20.00,0.25,-0.50,0.06,0.22,1.70
78.00,0.00,257.31,5.19,-96.12,4.44,1.94,2.44,0.33,1.72
78.00,1.00,350.81,-2.06,-51.50,-0.88,-0.56,-0.56,0.33,1.72
78.00,2.00,335.44,-20.50,20.00,1.38,-0.44,0.62,0.33,1.72
78.00,0.00,257.12,5.25,-96.25,6.06,3.56,4.19,0.43,1.74
78.00,1.00,350.81,-2.12,-51.50,0.06,0.00,-0.75,0.43,1.74
78.00,2.00,335.44,-20.44,19.94,2.94,-0.62,0.81,0.43,1.74
78.00,0.00,256.94,5.31,-96.38,6.50,3.81,4.44,0.55,1.76
78.00,1.00,350.81,-2.12,-51.50,-0.06,0.31,-0.75,0.55,1.76
78.00,2.00,335.44,-20.44,19.88,3.25,-0.88,1.56,0.55,1.76
78.00,0.00,256.69,5.50,-96.56,7.44,5.56,5.69,0.73,1.78
78.00,1.00,350.81,-2.12,-51.44,-0.06,1.19,-0.44,0.73,1.78
78.00,2.00,335.38,-20.44,19.81,2.31,-1.62,2.69,0.73,1.78
78.00,0.00,256.44,5.62,-96.75,7.88,6.12,6.12,0.91,1.80
78.00,1.00,350.81,-2.19,-51.44,0.44,1.06,-0.19,0.91,1.80
78.00,2.00,335.31,-20.44,19.75,2.44,-2.50,3.75,0.91,1.80
78.00,0.00,256.06,5.81,-96.94,8.81,7.44,7.31,1.09,1.82
78.00,1.00,350.81,-2.19,-51.44,0.44,1.38,-0.31,1.09,1.82
78.00,2.00,335.25,-20.44,19.69,3.88,-2.25,3.81,1.09,1.82
78.00,0.00,255.69,6.00,-97.12,9.94,8.56,8.25,1.29,1.84
78.00,1.00,350.81,-2.25,-51.44,0.19,1.81,-0.06,1.29,1.84
78.00,2.00,335.19,-20.44,19.56,4.06,-2.62,2.94,1.29,1.84
78.00,0.00,255.25,6.25,-97.38,12.25,10.44,9.44,1.58,1.86
78.00,1.00,350.81,-2.25,-51.38,0.19,1.50,0.31,1.58,1.86
78.00,2.00,335.19,-20.38,19.50,4.00,-2.38,2.75,1.58,1.86
78.00,0.00,254.75,6.50,-97.69,14.44,12.38,10.50,1.97,1.88
78.00,1.00,350.81,-2.31,-51.38,0.12,1.25,0.38,1.97,1.88
78.00,2.00,335.06,-20.38,19.38,3.19,-2.44,3.44,1.97,1.88
78.00,0.00,254.19,6.75,-98.00,16.69,12.81,11.69,2.46,1.90
78.00,1.00,350.81,-2.31,-51.38,0.25,1.25,0.12,2.46,1.90
78.00,2.00,335.00,-20.38,19.31,2.62,-3.12,4.94,2.46,1.90
78.00,0.00,253.62,7.00,-98.38,18.81,12.75,12.25,2.99,1.92
78.00,1.00,350.81,-2.38,-51.38,0.06,0.81,0.44,2.99,1.92
78.00,2.00,334.88,-20.31,19.19,3.50,-3.94,5.25,2.99,1.92
78.00,0.00,253.12,7.19,-98.88,21.94,10.12,13.19,3.62,1.94
78.00,1.00,350.81,-2.38,-51.38,0.12,1.12,0.69,3.62,1.94
78.00,2.00,334.81,-20.25,19.06,3.69,-4.44,4.88,3.62,1.94
78.00,0.00,252.69,7.44,-99.50,24.94,6.12,13.50,4.39,1.96
78.00,1.00,350.75,-2.38,-51.38,0.19,1.56,0.56,4.39,1.96
78.00,2.00,334.75,-20.25,19.00,3.00,-4.38,4.12,4.39,1.96
78.00,0.00,252.44,7.62,-100.12,26.62,1.44,12.12,5.25,1.98
78.00,1.00,350.75,-2.38,-51.38,0.12,2.12,0.69,5.25,1.98
78.00,2.00,334.62,-20.19,18.94,1.88,-4.06,3.81,5.25,1.98
78.00,0.00,252.12,7.81,-100.81,29.75,0.50,12.31,6.21,2.00
78.00,1.00,350.75,-2.44,-51.38,-0.12,1.69,0.75,6.21,2.00
78.00,2.00,334.56,-20.12,18.88,2.12,-3.56,4.75,6.21,2.00
78.00,0.00,251.81,8.00,-101.44,31.50,0.81,12.25,7.21,2.02
78.00,1.00,350.69,-2.44,-51.38,0.75,1.81,0.19,7.21,2.02
78.00,2.00,334.44,-20.12,18.75,2.62,-0.75,6.81,7.21,2.02
78.00,0.00,251.44,8.25,-102.06,32.94,0.38,12.12,8.27,2.04
78.00,1.00,350.69,-2.50,-51.38,1.25,2.00,0.06,8.27,2.04
78.00,2.00,334.25,-20.19,18.62,2.50,-0.44,8.50,8.27,2.04
78.00,0.00,251.06,8.50,-102.81,36.62,-0.88,14.62,9.44,2.06
78.00,1.00,350.69,-2.50,-51.44,1.31,2.25,-0.38,9.44,2.06
78.00,2.00,334.19,-20.19,18.62,2.75,-0.62,8.56,9.44,2.06
78.00,0.00,250.62,8.81,-103.56,41.38,-2.50,17.12,10.73,2.08
78.00,1.00,350.69,-2.56,-51.44,1.50,2.69,-0.56,10.73,2.08
78.00,2.00,334.00,-20.25,18.38,4.31,-0.75,7.81,10.73,2.08
78.00,0.00,250.19,9.12,-104.44,42.94,-3.12,16.25,12.05,2.10
78.00,1.00,350.62,-2.56,-51.50,1.81,2.69,-0.56,12.05,2.10
78.00,2.00,333.81,-20.31,18.25,4.94,-0.44,8.19,12.05,2.10
78.00,0.00,249.81,9.38,-105.31,43.31,-3.56,15.06,13.40,2.12
78.00,1.00,350.62,-2.62,-51.50,1.62,2.81,-0.19,13.40,2.12
78.00,2.00,333.69,-20.38,18.12,4.56,-0.50,9.25,13.40,2.12
78.00,0.00,249.44,9.62,-106.12,43.06,-2.88,14.75,14.76,2.14
78.00,1.00,350.62,-2.69,-51.50,1.56,3.06,0.56,14.76,2.14
78.00,2.00,333.50,-20.38,17.94,3.94,-1.75,9.25,14.76,2.14
78.00,0.00,249.00,9.88,-107.06,45.12,-4.94,16.38,16.19,2.16
78.00,1.00,350.56,-2.69,-51.56,1.19,2.75,0.69,16.19,2.16
78.00,2.00,333.44,-20.38,17.88,4.06,-2.62,9.38,16.19,2.16
78.00,0.00,248.62,10.19,-108.00,46.12,-5.38,17.62,17.63,2.18
78.00,1.00,350.56,-2.75,-51.56,1.00,2.88,0.62,17.63,2.18
78.00,2.00,333.12,-20.38,17.62,4.62,-3.31,10.00,17.63,2.18
78.00,0.00,248.12,10.50,-108.88,45.88,-4.06,17.25,19.05,2.20
78.00,1.00,350.56,-2.81,-51.62,0.94,2.31,0.44,19.05,2.20
78.00,2.00,332.94,-20.38,17.44,5.06,-4.25,9.94,19.05,2.20
78.00,0.00,247.62,10.81,-109.81,46.44,-1.81,17.62,20.43,2.22
78.00,1.00,350.50,-2.81,-51.62,0.50,2.31,0.62,20.43,2.22
78.00,2.00,332.75,-20.38,17.25,6.62,-4.25,9.81,20.43,2.22
78.00,0.00,247.00,11.12,-110.75,47.12,-0.56,18.19,21.81,2.24
78.00,1.00,350.50,-2.88,-51.62,0.12,2.31,0.75,21.81,2.24
78.00,2.00,332.56,-20.38,17.06,7.31,-4.88,10.69,21.81,2.24
78.00,0.00,246.38,11.44,-111.69,47.31,-0.06,18.88,23.25,2.26
78.00,1.00,350.44,-2.88,-51.62,0.44,3.12,1.25,23.25,2.26
78.00,2.00,332.50,-20.31,16.94,5.94,-6.81,11.88,23.25,2.26
78.00,0.00,245.69,11.81,-112.62,47.31,0.25,19.44,24.69,2.28
78.00,1.00,350.38,-2.94,-51.62,0.31,2.50,1.56,24.69,2.28
78.00,2.00,332.12,-20.25,16.62,5.75,-6.88,12.06,24.69,2.28
78.00,0.00,245.00,12.19,-113.62,47.56,1.62,19.62,26.13,2.30
78.00,1.00,350.31,-2.94,-51.62,0.19,2.56,1.62,26.13,2.30
78.00,2.00,331.88,-20.19,16.38,6.31,-7.19,12.88,26.13,2.30
78.00,0.00,244.19,12.50,-114.56,47.06,2.38,19.06,27.54,2.32
78.00,1.00,350.31,-2.94,-51.62,0.69,2.69,1.88,27.54,2.32
78.00,2.00,331.62,-20.12,16.19,6.50,-6.81,13.06,27.54,2.32
78.00,0.00,243.44,12.88,-115.50,47.19,2.31,19.00,28.96,2.34
78.00,1.00,350.25,-2.94,-51.62,0.75,2.06,1.81,28.96,2.34
78.00,2.00,331.38,-20.06,15.94,6.31,-7.06,13.12,28.96,2.34
78.00,0.00,242.69,13.19,-116.44,47.75,2.06,20.31,30.42,2.36
78.00,1.00,350.19,-2.94,-51.62,1.00,3.19,2.62,30.42,2.36
78.00,2.00,331.25,-20.06,15.81,5.62,-7.56,12.38,30.42,2.36
78.00,0.00,241.88,13.56,-117.38,46.88,2.25,19.94,31.88,2.38
78.00,1.00,350.12,-2.94,-51.69,1.50,2.75,2.69,31.88,2.38
78.00,2.00,330.94,-19.94,15.56,5.00,-7.19,12.75,31.88,2.38
78.00,0.00,241.06,13.88,-118.25,46.25,2.06,18.38,33.31,2.40
78.00,1.00,350.00,-2.94,-51.69,1.88,2.25,3.44,33.31,2.40
78.00,2.00,330.62,-19.88,15.31,4.94,-7.12,13.31,33.31,2.40
78.00,0.00,240.19,14.25,-119.19,46.44,2.50,18.25,34.77,2.42
78.00,1.00,349.94,-2.94,-51.81,4.88,0.50,4.75,34.77,2.42
78.00,2.00,330.50,-19.81,15.25,4.38,-7.50,12.62,34.77,2.42
78.00,0.00,239.44,14.50,-120.12,45.56,2.00,17.44,36.27,2.44
78.00,1.00,349.81,-2.81,-51.81,1.69,1.56,5.12,36.27,2.44
78.00,2.00,330.12,-19.75,15.00,2.56,-7.56,12.19,36.27,2.44
78.00,0.00,238.62,14.81,-121.06,45.81,-0.19,17.62,37.78,2.46
78.00,1.00,349.75,-2.81,-51.88,1.44,1.81,3.62,37.78,2.46
78.00,2.00,330.00,-19.69,14.94,2.31,-7.56,13.31,37.78,2.46
78.00,0.00,237.81,15.12,-121.94,45.00,-0.19,17.56,39.18,2.48
78.00,1.00,349.69,-2.81,-51.94,1.75,1.50,3.56,39.18,2.48
78.00,2.00,329.62,-19.62,14.69,4.81,-5.38,14.19,39.18,2.48
78.00,0.00,237.12,15.31,-122.88,45.00,-1.00,16.44,40.60,2.50
78.00,1.00,349.56,-2.81,-51.94,1.88,2.44,3.19,40.60,2.50
78.00,2.00,329.50,-19.56,14.56,4.00,-4.94,14.50,40.60,2.50
78.00,0.00,236.50,15.50,-123.75,44.44,-2.44,15.62,42.04,2.52
78.00,1.00,349.50,-2.81,-52.00,1.88,3.06,3.19,42.04,2.52
78.00,2.00,329.19,-19.56,14.44,3.06,-5.12,14.94,42.04,2.52
78.00,0.00,235.88,15.69,-124.62,43.69,-3.31,14.56,43.47,2.54
78.00,1.00,349.44,-2.81,-52.00,1.75,3.56,3.12,43.47,2.54
78.00,2.00,328.75,-19.56,14.19,2.50,-4.38,16.38,43.47,2.54
78.00,0.00,235.12,15.94,-125.50,44.25,-2.19,15.12,44.91,2.56
78.00,1.00,349.31,-2.81,-52.06,1.81,3.94,3.38,44.91,2.56
78.00,2.00,328.56,-19.56,14.06,2.81,-4.19,16.50,44.91,2.56
78.00,0.00,234.31,16.12,-126.44,43.75,0.69,14.94,46.34,2.58
78.00,1.00,349.19,-2.81,-52.12,1.50,5.12,3.50,46.34,2.58
78.00,2.00,328.25,-19.56,13.88,2.50,-4.31,17.06,46.34,2.58
78.00,0.00,233.44,16.38,-127.25,43.50,2.62,15.00,47.82,2.60
78.00,1.00,349.12,-2.81,-52.12,1.81,5.12,4.12,47.82,2.60
78.00,2.00,327.94,-19.56,13.75,0.94,-5.25,17.06,47.82,2.60
78.00,0.00,232.44,16.69,-128.06,42.19,5.75,14.88,49.27,2.62
78.00,1.00,348.94,-2.81,-52.19,1.12,5.56,4.56,49.27,2.62
78.00,2.00,327.56,-19.50,13.56,0.69,-5.19,17.44,49.27,2.62
78.00,0.00,231.44,16.94,-128.75,40.00,7.94,13.88,50.63,2.64
78.00,1.00,348.81,-2.81,-52.19,1.44,5.44,4.50,50.63,2.64
78.00,2.00,327.19,-19.50,13.44,0.81,-5.75,18.19,50.63,2.64
78.00,0.00,230.31,17.25,-129.50,38.62,8.06,13.19,51.94,2.66
78.00,1.00,348.69,-2.81,-52.25,1.75,5.56,4.88,51.94,2.66
78.00,2.00,326.88,-19.44,13.31,0.94,-5.69,18.31,51.94,2.66
78.00,0.00,229.19,17.56,-130.25,38.31,7.25,13.69,53.17,2.68
78.00,1.00,348.56,-2.81,-52.25,0.94,5.19,5.19,53.17,2.68
78.00,2.00,326.50,-19.44,13.12,2.75,-5.81,18.38,53.17,2.68
78.00,0.00,228.12,17.81,-131.00,37.19,6.50,13.75,54.41,2.70
78.00,1.00,348.38,-2.81,-52.31,1.50,5.62,5.62,54.41,2.70
78.00,2.00,326.12,-19.44,12.94,1.62,-6.56,19.00,54.41,2.70
78.00,0.00,227.19,18.06,-131.62,35.31,6.75,13.56,55.59,2.72
78.00,1.00,348.19,-2.81,-52.31,1.94,6.81,6.44,55.59,2.72
78.00,2.00,325.75,-19.38,12.81,1.25,-7.25,18.94,55.59,2.72
78.00,0.00,226.31,18.31,-132.12,32.88,6.69,12.94,56.69,2.74
78.00,1.00,348.06,-2.81,-52.38,1.25,6.12,6.62,56.69,2.74
78.00,2.00,325.38,-19.31,12.69,1.25,-8.31,18.50,56.69,2.74
78.00,0.00,225.44,18.50,-132.69,33.06,5.25,12.94,57.76,2.76
78.00,1.00,347.88,-2.81,-52.38,0.56,6.00,6.12,57.76,2.76
78.00,2.00,325.00,-19.19,12.56,2.38,-7.56,17.69,57.76,2.76
78.00,0.00,224.38,18.75,-133.38,32.56,5.62,13.88,58.77,2.78
78.00,1.00,347.69,-2.81,-52.38,0.38,5.62,5.75,58.77,2.78
78.00,2.00,324.69,-19.12,12.38,3.31,-5.75,16.75,58.77,2.78
78.00,0.00,223.38,19.00,-134.00,32.06,5.25,13.38,59.79,2.80
78.00,1.00,347.56,-2.81,-52.44,0.25,5.69,5.56,59.79,2.80
78.00,2.00,324.38,-19.12,12.19,2.69,-5.94,16.56,59.79,2.80
78.00,0.00,222.50,19.25,-134.62,32.19,3.88,13.19,60.84,2.82
78.00,1.00,347.38,-2.75,-52.44,-0.06,5.44,6.38,60.84,2.82
78.00,2.00,324.00,-19.06,12.00,2.25,-4.94,17.00,60.84,2.82
78.00,0.00,221.56,19.44,-135.12,30.25,4.38,14.06,61.91,2.84
78.00,1.00,347.19,-2.75,-52.44,0.75,6.25,6.69,61.91,2.84
78.00,2.00,323.69,-19.06,11.88,-0.81,-7.38,18.12,61.91,2.84
78.00,0.00,220.75,19.62,-135.62,27.50,4.50,12.25,62.89,2.86
78.00,1.00,347.00,-2.75,-52.44,0.31,6.38,7.25,62.89,2.86
78.00,2.00,323.31,-18.94,11.75,-0.69,-8.31,18.56,62.89,2.86
78.00,0.00,220.12,19.75,-136.06,25.62,3.12,10.62,63.77,2.88
78.00,1.00,346.81,-2.69,-52.44,0.50,6.31,7.62,63.77,2.88
78.00,2.00,322.94,-18.88,11.62,0.44,-5.19,18.12,63.77,2.88
78.00,0.00,219.31,19.94,-136.62,24.75,1.69,10.62,64.71,2.90
78.00,1.00,346.56,-2.69,-52.50,-0.19,6.38,8.88,64.71,2.90
78.00,2.00,322.56,-18.88,11.50,-2.19,-4.94,18.12,64.71,2.90
78.00,0.00,218.50,20.12,-137.12,24.25,1.81,11.62,65.68,2.92
78.00,1.00,346.38,-2.62,-52.50,1.81,8.31,8.62,65.68,2.92
78.00,2.00,322.19,-18.88,11.44,-3.75,-5.81,18.94,65.68,2.92
78.00,0.00,217.62,20.31,-137.62,22.81,3.75,11.44,66.59,2.94
78.00,1.00,346.12,-2.62,-52.50,0.62,7.31,8.19,66.59,2.94
78.00,2.00,321.81,-18.81,11.38,-3.38,-5.44,18.75,66.59,2.94
78.00,0.00,217.19,20.38,-137.94,19.38,3.19,9.94,67.35,2.96
78.00,1.00,345.88,-2.56,-52.56,-0.31,7.00,8.19,67.35,2.96
78.00,2.00,321.44,-18.75,11.31,-2.50,-5.06,18.19,67.35,2.96
78.00,0.00,216.88,20.44,-138.19,17.06,0.38,9.38,67.97,2.98
78.00,1.00,345.69,-2.56,-52.56,0.38,7.88,6.81,67.97,2.98
78.00,2.00,321.06,-18.75,11.19,-0.81,-3.94,16.19,67.97,2.98
78.00,0.00,216.56,20.50,-138.50,18.12,-1.94,11.19,68.58,3.00
78.00,1.00,345.50,-2.56,-52.56,-0.25,6.69,6.62,68.58,3.00
78.00,2.00,320.75,-18.75,11.19,0.69,-2.12,14.81,68.58,3.00
78.00,0.00,216.44,20.50,-138.69,17.69,-2.56,10.94,69.16,3.02
78.00,1.00,345.31,-2.56,-52.56,-1.12,6.69,6.81,69.16,3.02
78.00,2.00,320.50,-18.69,11.12,0.81,-1.94,13.81,69.16,3.02
78.00,0.00,95.75,20.50,-139.06,15.38,-3.88,9.25,69.67,3.04
78.00,1.00,345.12,-2.56,-52.56,-0.50,6.75,5.62,69.67,3.04
78.00,2.00,320.25,-18.69,11.06,0.69,-2.94,13.00,69.67,3.04
78.00,0.00,95.81,20.56,-139.31,11.69,-4.06,6.19,70.04,3.06
78.00,1.00,345.00,-2.56,-52.50,-1.38,6.00,4.75,70.04,3.06
78.00,2.00,320.00,-18.69,11.00,1.06,-2.75,12.94,70.04,3.06
78.00,0.00,95.94,20.50,-139.56,11.19,-6.62,4.81,70.36,3.08
78.00,1.00,344.88,-2.56,-52.50,-1.06,5.69,4.94,70.36,3.08
78.00,2.00,319.75,-18.69,10.88,1.94,-1.12,12.06,70.36,3.08
78.00,0.00,96.00,20.50,-139.75,13.25,-7.25,6.94,70.81,3.10
78.00,1.00,344.69,-2.56,-52.50,-0.62,5.69,5.12,70.81,3.10
78.00,2.00,319.50,-18.69,10.75,0.44,-1.88,12.62,70.81,3.10
78.00,0.00,96.12,20.50,-140.06,14.56,-3.50,9.44,71.33,3.12
78.00,1.00,344.56,-2.56,-52.50,-0.44,6.31,6.31,71.33,3.12
78.00,2.00,319.25,-18.75,10.69,-0.38,-1.94,12.88,71.33,3.12
78.00,0.00,96.25,20.56,-140.44,16.06,1.69,9.50,71.97,3.14
78.00,1.00,344.38,-2.56,-52.50,-0.56,7.31,6.62,71.97,3.14
78.00,2.00,319.00,-18.69,10.62,-2.38,-3.12,12.19,71.97,3.14
78.00,0.00,96.38,20.75,-140.75,11.38,5.69,8.50,72.43,3.16
78.00,1.00,344.19,-2.56,-52.50,-0.75,5.38,5.50,72.43,3.16
78.00,2.00,318.75,-18.69,10.62,-1.94,-2.38,11.50,72.43,3.16
78.00,0.00,96.44,20.94,-140.94,6.56,7.38,5.19,72.65,3.18
78.00,1.00,344.00,-2.56,-52.50,-1.00,5.94,5.62,72.65,3.18
78.00,2.00,318.56,-18.69,10.56,0.25,-0.06,11.69,72.65,3.18
78.00,0.00,96.44,21.06,-141.06,4.81,3.19,3.00,72.86,3.20
78.00,1.00,343.88,-2.56,-52.50,-0.56,5.25,5.38,72.86,3.20
78.00,2.00,318.31,-18.75,10.50,-1.31,0.62,11.56,72.86,3.20
78.00,0.00,96.44,21.12,-141.12,4.44,1.38,2.50,73.12,3.22
78.00,1.00,343.69,-2.56,-52.50,-1.19,6.06,6.06,73.12,3.22
78.00,2.00,318.12,-18.75,10.44,-3.06,-0.06,11.69,73.12,3.22
78.00,0.00,96.50,21.12,-141.25,4.81,-4.25,1.75,73.46,3.24
78.00,1.00,343.56,-2.56,-52.44,-1.19,5.75,5.75,73.46,3.24
78.00,2.00,317.88,-18.81,10.44,-4.88,-0.50,11.88,73.46,3.24
78.00,0.00,96.50,21.12,-141.38,5.06,-5.62,2.50,73.82,3.26
78.00,1.00,343.38,-2.56,-52.44,-1.75,6.00,5.75,73.82,3.26
78.00,2.00,317.62,-18.88,10.50,-5.38,-0.25,12.31,73.82,3.26
78.00,0.00,96.56,21.06,-141.50,3.69,-3.50,2.44,74.13,3.28
78.00,1.00,343.19,-2.56,-52.44,-2.19,6.25,5.50,74.13,3.28
78.00,2.00,317.31,-18.88,10.56,-5.12,-0.25,11.75,74.13,3.28
78.00,0.00,96.62,21.00,-141.56,0.88,-2.31,1.62,74.27,3.30
78.00,1.00,343.06,-2.56,-52.38,-2.44,6.69,4.62,74.27,3.30
78.00,2.00,317.12,-18.94,10.56,-3.25,1.69,9.50,74.27,3.30
78.00,0.00,96.69,21.00,-141.62,0.19,-2.44,1.50,74.39,3.32
78.00,1.00,343.00,-2.56,-52.38,-3.31,7.12,4.75,74.39,3.32
78.00,2.00,316.94,-18.94,10.62,-3.19,2.38,8.50,74.39,3.32
78.00,0.00,96.75,21.00,-141.62,-1.38,-2.94,1.38,74.47,3.34
78.00,1.00,342.75,-2.62,-52.31,-3.31,6.69,4.00,74.47,3.34
78.00,2.00,316.75,-19.00,10.62,-3.62,1.00,8.31,74.47,3.34
78.00,0.00,96.75,20.94,-141.62,-3.56,-3.25,-0.25,74.44,3.36
78.00,1.00,342.62,-2.62,-52.25,-2.56,6.12,3.06,74.44,3.36
78.00,2.00,316.62,-19.06,10.69,-2.69,1.00,7.38,74.44,3.36
78.00,0.00,96.81,20.88,-141.56,-4.19,-3.50,-1.81,74.37,3.38
78.00,1.00,342.56,-2.69,-52.19,-3.12,5.38,2.62,74.37,3.38
78.00,2.00,316.50,-19.12,10.69,-2.25,1.50,5.81,74.37,3.38
78.00,0.00,96.81,20.81,-141.50,-0.62,-4.88,-0.06,74.45,3.40
78.00,1.00,342.44,-2.75,-52.12,-3.56,5.06,1.94,74.45,3.40
78.00,2.00,316.38,-19.12,10.69,-2.94,2.38,4.81,74.45,3.40
78.00,0.00,96.88,20.75,-141.50,0.50,-3.06,1.81,74.61,3.42
78.00,1.00,342.44,-2.75,-52.12,-3.88,4.88,1.31,74.61,3.42
78.00,2.00,316.25,-19.19,10.75,-4.00,2.00,4.75,74.61,3.42
78.00,0.00,96.94,20.81,-141.56,1.75,2.56,4.19,74.74,3.44
78.00,1.00,342.31,-2.88,-52.00,-3.31,4.62,-0.25,74.74,3.44
78.00,2.00,316.19,-19.25,10.81,-2.06,2.81,4.44,74.74,3.44
78.00,0.00,96.94,20.94,-141.56,2.31,6.25,4.38,74.94,3.46
78.00,1.00,342.31,-2.94,-52.00,-1.75,7.06,0.50,74.94,3.46
78.00,2.00,316.06,-19.31,10.81,-3.38,1.94,4.38,74.94,3.46
78.00,0.00,96.94,21.12,-141.62,4.12,9.62,3.38,75.20,3.48
78.00,1.00,342.25,-2.94,-51.94,-3.00,4.38,-0.12,75.20,3.48
78.00,2.00,316.00,-19.38,10.88,-3.38,0.94,3.94,75.20,3.48
78.00,0.00,96.94,21.31,-141.69,4.19,9.12,4.44,75.44,3.50
78.00,1.00,342.19,-3.06,-51.88,-4.81,3.69,-0.12,75.44,3.50
78.00,2.00,315.88,-19.38,10.94,-2.69,1.31,4.75,75.44,3.50
78.00,0.00,97.00,21.50,-141.81,4.75,8.62,4.88,75.70,3.52
78.00,1.00,342.19,-3.06,-51.81,-2.94,6.31,-0.69,75.70,3.52
78.00,2.00,315.81,-19.44,10.94,-2.81,0.62,4.50,75.70,3.52
78.00,0.00,96.94,21.69,-141.94,7.06,6.81,3.06,76.02,3.54
78.00,1.00,342.12,-3.19,-51.75,-2.81,3.94,-0.94,76.02,3.54
78.00,2.00,315.69,-19.44,11.00,-2.25,0.12,3.50,76.02,3.54
78.00,0.00,97.00,21.75,-142.06,5.88,2.25,2.62,76.26,3.56
78.00,1.00,342.12,-3.25,-51.69,-4.44,3.44,-0.81,76.26,3.56
78.00,2.00,315.62,-19.44,11.00,-0.88,1.75,3.62,76.26,3.56
78.00,0.00,97.00,21.81,-142.12,4.50,0.31,2.38,76.47,3.58
78.00,1.00,342.12,-3.31,-51.62,-3.44,3.88,-0.31,76.47,3.58
78.00,2.00,315.56,-19.50,11.06,-1.69,2.44,3.50,76.47,3.58
78.00,0.00,97.00,21.81,-142.25,5.88,-1.69,2.56,76.82,3.60
78.00,1.00,342.06,-3.38,-51.56,-4.12,3.56,0.75,76.82,3.60
78.00,2.00,315.44,-19.56,11.12,-4.06,2.44,3.38,76.82,3.60
78.00,0.00,97.06,21.81,-142.44,6.38,-3.69,3.56,77.19,3.62
78.00,1.00,342.06,-3.44,-51.50,-3.50,3.88,0.94,77.19,3.62
78.00,2.00,315.44,-19.62,11.12,-4.19,2.88,3.38,77.19,3.62
78.00,0.00,97.12,21.75,-142.56,2.69,-3.75,1.06,77.40,3.64
78.00,1.00,341.94,-3.50,-51.38,-4.25,3.81,1.06,77.40,3.64
78.00,2.00,315.31,-19.69,11.25,-3.50,2.94,2.69,77.40,3.64
78.00,0.00,97.12,21.69,-142.56,-0.44,-5.56,-2.56,77.49,3.66
78.00,1.00,341.94,-3.56,-51.31,-4.25,3.94,0.56,77.49,3.66
78.00,2.00,315.31,-19.75,11.31,-2.94,2.31,1.94,77.49,3.66
78.00,0.00,97.12,21.50,-142.56,0.38,-9.56,-3.19,77.55,3.68
78.00,1.00,341.94,-3.62,-51.25,-4.56,3.44,-0.12,77.55,3.68
78.00,2.00,315.25,-19.81,11.38,-1.31,3.81,1.06,77.55,3.68
78.00,0.00,97.19,21.31,-142.62,2.44,-9.69,0.31,77.71,3.70
78.00,1.00,341.88,-3.75,-51.12,-4.50,3.50,0.06,77.71,3.70
78.00,2.00,315.25,-19.88,11.44,-2.38,3.31,0.81,77.71,3.70
78.00,0.00,97.25,21.25,-142.75,1.94,-6.88,2.50,77.89,3.72
78.00,1.00,341.88,-3.75,-51.12,-4.62,3.38,0.12,77.89,3.72
78.00,2.00,315.25,-19.94,11.44,-3.06,2.81,0.94,77.89,3.72
78.00,0.00,97.31,21.19,-142.75,-1.06,-2.56,1.12,77.95,3.74
78.00,1.00,341.88,-3.88,-50.94,-4.25,3.06,-0.12,77.95,3.74
78.00,2.00,315.19,-20.00,11.56,-2.88,2.12,1.38,77.95,3.74
78.00,0.00,97.31,21.19,-142.69,-3.00,-0.94,-0.62,77.90,3.76
78.00,1.00,341.81,-3.94,-50.88,-3.94,2.69,-0.50,77.90,3.76
78.00,2.00,315.19,-20.00,11.56,-1.69,2.38,0.75,77.90,3.76
78.00,0.00,97.31,21.12,-142.62,-3.75,-0.81,-0.50,77.85,3.78
78.00,1.00,341.81,-3.94,-50.88,-4.12,2.69,-0.69,77.85,3.78
78.00,2.00,315.19,-20.06,11.62,-2.25,2.19,0.62,77.85,3.78
78.00,0.00,97.31,21.12,-142.56,-2.94,-0.44,0.06,77.82,3.80
78.00,1.00,341.81,-4.06,-50.75,-3.44,2.69,-1.12,77.82,3.80
78.00,2.00,315.19,-20.12,11.75,-1.94,1.62,-0.25,77.82,3.80
78.00,0.00,97.31,21.12,-142.50,-1.75,-0.25,0.69,77.82,3.82
78.00,1.00,341.81,-4.12,-50.69,-3.19,2.56,-1.06,77.82,3.82
78.00,2.00,315.19,-20.12,11.81,-1.94,1.44,-0.44,77.82,3.82
78.00,0.00,97.38,21.12,-142.44,-1.06,0.56,1.06,77.75,3.84
78.00,1.00,341.88,-4.25,-50.62,-2.75,1.62,-1.62,77.75,3.84
78.00,2.00,315.19,-20.19,11.81,1.12,3.50,-1.19,77.75,3.84
78.00,0.00,97.38,21.19,-142.44,-1.00,1.25,1.62,77.75,3.86
78.00,1.00,341.88,-4.31,-50.56,-2.69,1.38,-0.88,77.75,3.86
78.00,2.00,315.19,-20.19,11.81,-1.06,2.12,-0.06,77.75,3.86
78.00,0.00,97.38,21.19,-142.44,-1.25,0.94,1.38,77.82,3.88
78.00,1.00,341.88,-4.31,-50.56,-2.69,1.06,-0.38,77.82,3.88
78.00,2.00,315.19,-20.25,11.88,-3.25,0.44,0.94,77.82,3.88
78.00,0.00,97.44,21.19,-142.38,-1.50,0.19,1.00,77.85,3.90
78.00,1.00,341.88,-4.38,-50.50,-2.62,0.75,-0.25,77.85,3.90
78.00,2.00,315.19,-20.25,11.94,-2.25,0.69,0.44,77.85,3.90
78.00,0.00,97.44,21.19,-142.31,-1.44,-1.00,0.31,77.87,3.92
78.00,1.00,341.88,-4.38,-50.44,-2.50,0.44,-0.25,77.87,3.92
78.00,2.00,315.19,-20.25,11.94,-2.19,0.75,0.62,77.87,3.92
78.00,0.00,97.44,21.12,-142.31,-1.06,-1.44,0.06,77.90,3.94
78.00,1.00,341.94,-4.44,-50.38,-2.06,0.62,-0.25,77.90,3.94
78.00,2.00,315.19,-20.25,12.00,-1.75,0.94,-0.56,77.90,3.94
78.00,0.00,97.44,21.06,-142.25,-0.94,-1.56,0.19,77.92,3.96
78.00,1.00,341.94,-4.44,-50.31,-1.94,0.44,-0.31,77.92,3.96
78.00,2.00,315.19,-20.31,12.06,-1.62,2.12,-0.56,77.92,3.96
78.00,0.00,97.44,21.06,-142.25,-1.31,-2.25,0.12,77.92,3.98
78.00,1.00,341.94,-4.44,-50.31,-2.19,0.19,-0.44,77.92,3.98
78.00,2.00,315.19,-20.31,12.12,-1.38,2.00,-0.50,77.92,3.98
78.00,0.00,97.44,21.00,-142.25,-2.06,-2.81,-0.25,77.91,4.00
78.00,1.00,341.94,-4.44,-50.25,-2.62,0.31,-0.38,77.91,4.00
78.00,2.00,315.19,-20.38,12.12,-1.69,1.56,0.19,77.91,4.00
78.00,0.00,97.50,20.94,-142.19,-2.56,-3.56,-0.75,77.90,4.02
78.00,1.00,341.94,-4.50,-50.19,-2.88,0.50,-0.12,77.90,4.02
78.00,2.00,315.19,-20.38,12.19,-2.44,1.44,0.25,77.90,4.02
78.00,0.00,97.50,20.88,-142.12,-3.12,-4.38,-1.38,77.88,4.04
78.00,1.00,341.94,-4.50,-50.12,-2.88,1.00,0.00,77.88,4.04
78.00,2.00,315.19,-20.38,12.25,-2.56,2.19,0.19,77.88,4.04
78.00,0.00,97.50,20.75,-142.06,-3.62,-3.19,-1.50,77.83,4.06
78.00,1.00,341.94,-4.50,-50.06,-3.06,1.25,-0.31,77.83,4.06
78.00,2.00,315.19,-20.44,12.31,-2.19,2.50,0.19,77.83,4.06
78.00,0.00,97.50,20.75,-142.06,-2.56,-2.56,-0.38,77.84,4.08
78.00,1.00,341.88,-4.56,-50.00,-3.12,1.62,-0.31,77.84,4.08
78.00,2.00,315.19,-20.50,12.31,-2.62,2.06,0.56,77.84,4.08
78.00,0.00,97.56,20.75,-142.06,-0.94,-0.62,2.75,77.87,4.10
78.00,1.00,341.88,-4.56,-49.94,-2.69,1.75,-0.25,77.87,4.10
78.00,2.00,315.12,-20.56,12.44,-1.88,1.88,0.94,77.87,4.10
78.00,0.00,97.62,20.81,-141.94,-4.50,3.94,0.38,77.78,4.12
78.00,1.00,341.88,-4.62,-49.94,-2.19,1.88,-0.19,77.78,4.12
78.00,2.00,315.12,-20.56,12.44,-1.81,2.00,0.94,77.78,4.12
78.00,0.00,97.50,20.75,-141.81,-7.31,-3.94,-7.94,77.62,4.14
78.00,1.00,341.88,-4.62,-49.88,-2.81,1.69,0.19,77.62,4.14
78.00,2.00,315.12,-20.62,12.50,-2.75,1.50,1.38,77.62,4.14
78.00,0.00,97.56,20.56,-141.88,3.62,-8.75,4.25,77.87,4.16
78.00,1.00,341.81,-4.69,-49.81,-2.31,2.00,0.88,77.87,4.16
78.00,2.00,315.06,-20.62,12.50,-3.75,1.19,1.75,77.87,4.16
78.00,0.00,97.69,20.62,-141.88,-1.62,3.94,3.12,77.90,4.18
78.00,1.00,341.81,-4.69,-49.75,-2.88,1.75,1.00,77.90,4.18
78.00,2.00,315.00,-20.62,12.56,-2.25,2.19,2.25,77.90,4.18
78.00,0.00,97.69,20.69,-141.88,-1.12,1.38,1.06,77.96,4.20
78.00,1.00,341.75,-4.69,-49.75,-2.31,1.75,0.69,77.96,4.20
78.00,2.00,314.94,-20.75,12.62,-2.88,1.88,1.50,77.96,4.20
78.00,0.00,97.75,20.69,-141.88,0.12,-4.50,1.62,78.09,4.22
78.00,1.00,341.75,-4.75,-49.69,-2.75,2.19,1.00,78.09,4.22
78.00,2.00,314.94,-20.75,12.62,-3.62,0.94,1.62,78.09,4.22
78.00,0.00,97.81,20.62,-141.88,-0.38,-2.88,1.50,78.18,4.24
78.00,1.00,341.69,-4.75,-49.62,-2.81,1.75,1.12,78.18,4.24
78.00,2.00,314.88,-20.75,12.69,-3.19,0.88,0.44,78.18,4.24
78.00,0.00,97.81,20.62,-141.94,0.06,-1.94,1.88,78.30,4.26
78.00,1.00,341.69,-4.81,-49.62,-2.31,1.50,0.50,78.30,4.26
78.00,2.00,314.88,-20.75,12.75,-3.25,0.38,-0.12,78.30,4.26
78.00,0.00,97.88,20.62,-141.94,-0.25,0.44,1.69,78.35,4.28
78.00,1.00,341.69,-4.88,-49.56,-2.06,0.81,0.31,78.35,4.28
78.00,2.00,314.88,-20.75,12.81,-1.62,0.12,-1.06,78.35,4.28
78.00,0.00,97.88,20.69,-141.88,-1.19,1.69,0.88,78.28,4.30
78.00,1.00,341.69,-4.88,-49.50,-1.94,0.06,-0.44,78.28,4.30
78.00,2.00,314.94,-20.75,12.94,0.62,1.69,-3.38,78.28,4.30
78.00,0.00,97.88,20.69,-141.81,-1.62,0.94,0.19,78.18,4.32
78.00,1.00,341.75,-4.94,-49.44,-2.06,-0.44,-0.88,78.18,4.32
78.00,2.00,315.00,-20.75,13.00,1.31,2.69,-3.94,78.18,4.32
78.00,0.00,97.88,20.69,-141.75,-1.31,0.75,0.12,78.09,4.34
78.00,1.00,341.81,-5.00,-49.38,-1.38,-0.88,-1.62,78.09,4.34
78.00,2.00,315.06,-20.81,13.00,1.25,1.94,-3.06,78.09,4.34
78.00,0.00,97.88,20.69,-141.75,-1.25,1.38,0.94,78.02,4.36
78.00,1.00,341.88,-5.06,-49.38,-1.06,-1.06,-1.25,78.02,4.36
78.00,2.00,315.12,-20.81,13.00,0.94,1.00,-2.69,78.02,4.36
78.00,0.00,97.88,20.75,-141.69,-1.00,2.19,1.31,77.95,4.38
78.00,1.00,341.88,-5.12,-49.31,-0.75,-0.88,-1.00,77.95,4.38
78.00,2.00,315.19,-20.81,13.06,0.94,0.38,-2.81,77.95,4.38
78.00,0.00,97.88,20.75,-141.69,0.00,2.00,1.44,77.91,4.40
78.00,1.00,341.94,-5.12,-49.31,-0.50,-1.31,-0.88,77.91,4.40
78.00,2.00,315.25,-20.81,13.06,1.25,-0.06,-3.00,77.91,4.40
78.00,0.00,97.88,20.81,-141.69,0.75,1.81,1.38,77.88,4.42
78.00,1.00,342.00,-5.19,-49.25,-0.25,-1.31,-1.06,77.88,4.42
78.00,2.00,315.31,-20.81,13.06,1.44,-0.19,-2.94,77.88,4.42
78.00,0.00,97.94,20.81,-141.75,0.69,1.81,1.19,77.81,4.44
78.00,1.00,342.06,-5.19,-49.25,-0.19,-1.38,-1.44,77.81,4.44
78.00,2.00,315.38,-20.81,13.12,2.88,0.50,-3.06,77.81,4.44
78.00,0.00,97.88,20.88,-141.75,0.94,2.62,0.94,77.72,4.46
78.00,1.00,342.12,-5.25,-49.25,0.12,-1.81,-1.56,77.72,4.46
78.00,2.00,315.50,-20.81,13.06,3.31,0.69,-3.38,77.72,4.46
78.00,0.00,97.88,20.88,-141.75,1.06,1.56,0.94,77.66,4.48
78.00,1.00,342.19,-5.25,-49.25,0.31,-1.62,-1.44,77.66,4.48
78.00,2.00,315.56,-20.81,13.06,2.88,-0.44,-2.56,77.66,4.48
78.00,0.00,97.88,20.88,-141.75,1.69,1.06,0.94,77.64,4.50
78.00,1.00,342.19,-5.25,-49.25,0.88,-1.94,-1.12,77.64,4.50
78.00,2.00,315.62,-20.75,13.00,2.31,-1.06,-1.81,77.64,4.50
78.00,0.00,97.88,20.88,-141.81,2.12,1.88,0.69,77.64,4.52
78.00,1.00,342.25,-5.25,-49.25,0.88,-1.94,-0.88,77.64,4.52
78.00,2.00,315.62,-20.75,13.00,2.06,-0.75,-1.25,77.64,4.52
78.00,0.00,97.88,20.94,-141.88,3.06,3.81,1.00,77.69,4.54
78.00,1.00,342.31,-5.25,-49.25,1.12,-1.62,-0.31,77.69,4.54
78.00,2.00,315.69,-20.75,12.94,1.56,-0.62,-0.94,77.69,4.54
78.00,0.00,97.88,21.00,-141.94,2.69,1.62,2.00,77.73,4.56
78.00,1.00,342.31,-5.25,-49.25,0.75,-1.50,0.12,77.73,4.56
78.00,2.00,315.69,-20.75,12.94,1.56,-0.75,-0.38,77.73,4.56
78.00,0.00,97.88,20.94,-141.94,2.50,-1.81,1.31,77.73,4.58
78.00,1.00,342.31,-5.25,-49.25,1.31,-1.38,0.56,77.73,4.58
78.00,2.00,315.69,-20.69,12.88,2.50,-0.44,0.12,77.73,4.58
78.00,0.00,97.88,20.94,-142.06,2.06,-2.19,0.19,77.75,4.60
78.00,1.00,342.31,-5.25,-49.31,1.69,-1.19,1.38,77.75,4.60
78.00,2.00,315.69,-20.69,12.88,1.69,-1.12,1.00,77.75,4.60
78.00,0.00,97.88,20.88,-142.06,1.88,-1.00,-0.38,77.78,4.62
78.00,1.00,342.31,-5.19,-49.31,1.75,-1.06,1.81,77.78,4.62
78.00,2.00,315.69,-20.69,12.81,0.81,-1.38,1.62,77.78,4.62
78.00,0.00,97.88,20.88,-142.12,1.44,-0.25,0.44,77.82,4.64
78.00,1.00,342.25,-5.12,-49.38,1.81,-0.81,2.06,77.82,4.64
78.00,2.00,315.62,-20.69,12.81,0.38,-2.31,1.88,77.82,4.64
78.00,0.00,97.88,20.88,-142.12,1.62,0.00,0.88,77.85,4.66
78.00,1.00,342.25,-5.12,-49.44,1.69,-0.81,2.12,77.85,4.66
78.00,2.00,315.62,-20.62,12.81,0.69,-2.12,1.56,77.85,4.66
78.00,0.00,97.88,20.88,-142.19,2.94,-0.06,1.81,77.88,4.68
78.00,1.00,342.19,-5.06,-49.44,1.81,-0.94,1.62,77.88,4.68
78.00,2.00,315.56,-20.56,12.75,2.25,-1.38,0.88,77.88,4.68
78.00,0.00,97.94,20.94,-142.25,2.94,0.31,2.00,77.88,4.70
78.00,1.00,342.19,-5.06,-49.50,2.25,-1.25,1.06,77.88,4.70
78.00,2.00,315.56,-20.56,12.75,2.94,-1.06,0.19,77.88,4.70
78.00,0.00,97.94,20.94,-142.25,2.75,2.19,2.38,77.87,4.72
78.00,1.00,342.19,-5.06,-49.56,2.44,-1.56,0.94,77.87,4.72
78.00,2.00,315.56,-20.50,12.69,2.94,-1.44,-0.06,77.87,4.72
78.00,0.00,97.94,21.00,-142.31,1.75,0.56,2.12,77.83,4.74
78.00,1.00,342.25,-5.00,-49.56,2.50,-2.06,0.81,77.83,4.74
78.00,2.00,315.62,-20.50,12.62,2.88,-1.50,-1.25,77.83,4.74
78.00,0.00,97.94,21.00,-142.31,0.50,-3.88,1.44,77.77,4.76
78.00,1.00,342.25,-5.00,-49.62,2.06,-2.38,0.75,77.77,4.76
78.00,2.00,315.62,-20.44,12.62,2.38,-1.69,-1.94,77.77,4.76
78.00,0.00,98.00,20.94,-142.31,-0.19,-6.00,0.75,77.61,4.78
78.00,1.00,342.25,-5.00,-49.69,2.38,-3.44,-0.44,77.61,4.78
78.00,2.00,315.75,-20.44,12.62,4.25,-1.25,-3.69,77.61,4.78
