Iteration,IMUNo,OrientationX (deg),OrientationY,OrientationZ,GyroX (20rad/sec),GyroY,GyroZ,Elbow_Pos (rad),Time (sec)
8.00,0.00,264.69,1.88,-102.00,-0.06,0.19,-0.06,0.01,1.02
8.00,1.00,276.81,-5.19,-55.00,-0.31,0.06,0.12,0.01,1.02
8.00,2.00,289.12,-20.75,18.88,-0.31,-0.06,0.12,0.01,1.02
8.00,0.00,264.69,1.88,-102.00,-0.25,0.44,0.00,0.00,1.04
8.00,1.00,276.81,-5.19,-55.00,0.00,0.25,0.00,0.00,1.04
8.00,2.00,289.12,-20.75,18.88,0.00,0.19,-0.12,0.00,1.04
8.00,0.00,264.69,1.88,-102.00,-0.25,-0.56,0.00,-0.01,1.06
8.00,1.00,276.81,-5.19,-55.00,0.19,0.19,0.19,-0.01,1.06
8.00,2.00,289.12,-20.75,18.88,0.00,-0.12,-0.12,-0.01,1.06
8.00,0.00,264.69,1.88,-102.00,-0.19,-0.75,-0.06,-0.01,1.08
8.00,1.00,276.81,-5.19,-55.00,0.25,0.19,0.12,-0.01,1.08
8.00,2.00,289.12,-20.75,18.88,0.06,-0.06,-0.19,-0.01,1.08
8.00,0.00,264.69,1.88,-102.00,-0.12,-0.50,-0.12,-0.01,1.10
8.00,1.00,276.81,-5.19,-55.00,-0.19,0.25,0.00,-0.01,1.10
8.00,2.00,289.12,-20.75,18.88,-0.19,0.12,-0.25,-0.01,1.10
8.00,0.00,264.69,1.88,-102.00,-0.19,-0.38,-0.25,-0.01,1.12
8.00,1.00,276.81,-5.19,-55.00,-0.25,0.12,0.12,-0.01,1.12
8.00,2.00,289.12,-20.75,18.88,-0.38,-0.25,-0.19,-0.01,1.12
8.00,0.00,264.69,1.88,-102.00,-0.12,-0.25,-0.12,0.00,1.14
8.00,1.00,276.81,-5.19,-55.00,-0.38,0.00,-0.12,0.00,1.14
8.00,2.00,289.12,-20.75,18.88,-0.44,-0.06,-0.12,0.00,1.14
8.00,0.00,264.69,1.88,-102.00,0.12,-0.12,-0.06,0.00,1.16
8.00,1.00,276.81,-5.19,-55.00,-0.19,-0.06,0.06,0.00,1.16
8.00,2.00,289.12,-20.75,18.88,0.00,0.00,-0.19,0.00,1.16
8.00,0.00,264.69,1.88,-102.00,0.06,-0.31,0.12,0.00,1.18
8.00,1.00,276.81,-5.19,-55.00,0.06,-0.12,0.00,0.00,1.18
8.00,2.00,289.12,-20.75,18.88,0.12,-0.19,-0.31,0.00,1.18
8.00,0.00,264.69,1.88,-102.00,0.19,-0.50,0.06,-0.01,1.20
8.00,1.00,276.81,-5.19,-55.00,0.19,0.00,-0.12,-0.01,1.20
8.00,2.00,288.62,-20.75,18.88,0.62,0.06,-0.38,-0.01,1.20
8.00,0.00,264.69,1.88,-102.00,0.00,-0.44,-0.06,-0.02,1.22
8.00,1.00,276.81,-5.19,-55.00,0.00,-0.25,-0.06,-0.02,1.22
8.00,2.00,288.62,-20.75,18.88,0.31,-0.25,0.00,-0.02,1.22
8.00,0.00,264.69,1.88,-102.00,0.19,-0.25,-0.06,-0.01,1.24
8.00,1.00,276.81,-5.19,-55.00,-0.12,-0.12,0.06,-0.01,1.24
8.00,2.00,288.50,-20.75,18.88,0.12,0.31,-0.19,-0.01,1.24
8.00,0.00,264.69,1.88,-102.00,0.25,-0.25,-0.12,-0.01,1.26
8.00,1.00,276.81,-5.19,-55.00,0.06,0.12,-0.12,-0.01,1.26
8.00,2.00,288.50,-20.75,18.88,0.06,0.06,0.12,-0.01,1.26
8.00,0.00,264.69,1.88,-102.00,0.12,-0.12,-0.06,-0.01,1.28
8.00,1.00,276.81,-5.19,-55.00,-0.25,-0.31,0.00,-0.01,1.28
8.00,2.00,288.50,-20.75,18.88,0.19,0.06,-0.38,-0.01,1.28
8.00,0.00,264.69,1.88,-102.00,-0.12,-0.38,0.19,-0.02,1.30
8.00,1.00,276.81,-5.19,-55.06,0.62,0.31,-0.31,-0.02,1.30
8.00,2.00,288.38,-20.75,18.88,0.12,0.38,-0.50,-0.02,1.30
8.00,0.00,264.69,1.88,-102.00,-0.38,-0.38,0.06,-0.02,1.32
8.00,1.00,276.81,-5.19,-55.00,-1.06,-0.50,-0.12,-0.02,1.32
8.00,2.00,288.38,-20.75,18.88,-0.06,-0.12,-0.56,-0.02,1.32
8.00,0.00,264.69,1.88,-102.00,-0.50,-0.44,-0.06,-0.02,1.34
8.00,1.00,276.81,-5.19,-55.00,-0.38,-0.06,0.19,-0.02,1.34
8.00,2.00,288.31,-20.69,18.88,-0.56,-0.31,-0.62,-0.02,1.34
8.00,0.00,264.69,1.88,-102.00,-0.25,-0.31,0.06,-0.02,1.36
8.00,1.00,276.81,-5.19,-55.00,-0.38,0.12,0.44,-0.02,1.36
8.00,2.00,288.31,-20.69,18.88,-0.25,-0.12,-0.31,-0.02,1.36
8.00,0.00,264.69,1.88,-102.00,-0.19,-0.31,0.12,-0.03,1.38
8.00,1.00,276.81,-5.19,-55.00,-0.62,-0.38,0.06,-0.03,1.38
8.00,2.00,288.31,-20.69,18.88,0.19,-0.06,-0.12,-0.03,1.38
8.00,0.00,264.69,1.88,-102.00,-0.12,0.50,0.31,-0.04,1.40
8.00,1.00,276.81,-5.19,-55.00,-0.31,-0.31,0.06,-0.04,1.40
8.00,2.00,288.19,-20.69,18.88,0.25,-0.19,0.00,-0.04,1.40
8.00,0.00,264.69,1.88,-102.00,-0.38,0.25,0.06,-0.06,1.42
8.00,1.00,276.81,-5.19,-55.00,0.12,0.25,-0.12,-0.06,1.42
8.00,2.00,288.19,-20.69,18.88,0.44,0.06,-0.12,-0.06,1.42
8.00,0.00,264.69,1.88,-102.00,-0.50,0.12,0.00,-0.08,1.44
8.00,1.00,276.81,-5.19,-55.00,-0.25,0.19,0.06,-0.08,1.44
8.00,2.00,288.06,-20.69,18.88,0.12,0.06,-0.06,-0.08,1.44
8.00,0.00,264.69,1.88,-102.00,-0.50,0.06,-0.25,-0.07,1.46
8.00,1.00,276.81,-5.19,-55.00,-0.69,0.06,0.19,-0.07,1.46
8.00,2.00,288.06,-20.69,18.88,-0.62,-0.50,0.31,-0.07,1.46
8.00,0.00,264.69,1.88,-102.00,-0.62,0.19,-0.31,-0.07,1.48
8.00,1.00,276.81,-5.19,-55.00,-0.75,0.12,0.25,-0.07,1.48
8.00,2.00,288.06,-20.69,18.88,-0.75,-0.25,0.56,-0.07,1.48
8.00,0.00,264.69,1.88,-102.00,-0.56,0.06,-0.19,-0.06,1.50
8.00,1.00,276.81,-5.19,-55.00,-0.56,0.50,0.19,-0.06,1.50
8.00,2.00,287.81,-20.69,18.94,-0.75,0.25,0.31,-0.06,1.50
8.00,0.00,264.69,1.88,-102.00,-0.56,0.06,0.12,-0.06,1.52
8.00,1.00,276.81,-5.19,-54.94,-0.81,0.06,0.12,-0.06,1.52
8.00,2.00,287.81,-20.69,18.94,-0.62,0.19,0.19,-0.06,1.52
8.00,0.00,264.69,1.88,-102.00,-0.94,0.06,-0.12,-0.07,1.54
8.00,1.00,276.81,-5.19,-54.94,-1.12,0.06,0.12,-0.07,1.54
8.00,2.00,287.69,-20.69,18.94,-0.69,-0.12,-0.19,-0.07,1.54
8.00,0.00,264.69,1.88,-101.94,-1.06,0.25,-0.12,-0.07,1.56
8.00,1.00,276.81,-5.19,-54.94,-1.62,0.19,0.31,-0.07,1.56
8.00,2.00,287.69,-20.69,18.94,-1.19,-0.25,-0.50,-0.07,1.56
8.00,0.00,264.69,1.88,-101.94,-0.94,0.44,-0.12,-0.06,1.58
8.00,1.00,276.81,-5.19,-54.88,-1.06,0.25,0.38,-0.06,1.58
8.00,2.00,287.69,-20.69,19.00,-1.00,-0.25,0.06,-0.06,1.58
8.00,0.00,264.69,1.88,-101.94,-1.38,0.50,-0.06,-0.07,1.60
8.00,1.00,276.81,-5.19,-54.88,-1.62,0.06,0.06,-0.07,1.60
8.00,2.00,287.56,-20.75,19.00,-1.25,-0.50,0.00,-0.07,1.60
8.00,0.00,264.69,1.88,-101.88,-1.19,0.69,0.00,-0.08,1.62
8.00,1.00,276.81,-5.19,-54.81,-0.94,0.12,0.00,-0.08,1.62
8.00,2.00,287.56,-20.75,19.00,-0.50,0.00,-0.38,-0.08,1.62
8.00,0.00,264.69,1.88,-101.88,-1.00,-0.31,0.38,-0.11,1.64
8.00,1.00,276.81,-5.19,-54.81,-0.69,-0.19,-0.25,-0.11,1.64
8.00,2.00,287.56,-20.75,19.06,0.19,0.50,-0.88,-0.11,1.64
8.00,0.00,264.69,1.88,-101.88,-0.81,-0.81,0.12,-0.13,1.66
8.00,1.00,276.81,-5.19,-54.81,-1.31,-0.06,-0.12,-0.13,1.66
8.00,2.00,287.56,-20.75,19.06,-0.31,0.19,-1.00,-0.13,1.66
8.00,0.00,264.69,1.88,-101.81,-0.69,-0.38,0.00,-0.11,1.68
8.00,1.00,276.81,-5.19,-54.81,-1.31,0.06,-0.06,-0.11,1.68
8.00,2.00,287.56,-20.75,19.06,-1.25,-0.12,-0.44,-0.11,1.68
8.00,0.00,264.69,1.88,-101.81,-0.25,0.19,-0.25,-0.09,1.70
8.00,1.00,276.81,-5.19,-54.75,-0.62,0.44,-0.06,-0.09,1.70
8.00,2.00,287.62,-20.75,19.12,-1.06,0.19,0.12,-0.09,1.70
8.00,0.00,264.69,1.88,-101.81,-0.50,0.25,-0.06,-0.08,1.72
8.00,1.00,276.81,-5.19,-54.75,-0.81,0.00,-0.31,-0.08,1.72
8.00,2.00,287.62,-20.75,19.12,-0.88,0.56,0.00,-0.08,1.72
8.00,0.00,264.69,1.88,-101.81,-0.69,0.44,-0.06,-0.06,1.74
8.00,1.00,276.81,-5.19,-54.75,-0.88,-0.12,-0.44,-0.06,1.74
8.00,2.00,287.50,-20.75,19.12,-1.50,0.00,-0.12,-0.06,1.74
8.00,0.00,264.69,1.88,-101.81,-0.75,0.56,0.44,-0.04,1.76
8.00,1.00,276.81,-5.19,-54.69,-1.25,-0.19,-0.50,-0.04,1.76
8.00,2.00,287.50,-20.81,19.19,-1.62,0.00,-0.19,-0.04,1.76
8.00,0.00,264.69,1.88,-101.81,-0.50,0.56,0.12,-0.03,1.78
8.00,1.00,276.81,-5.19,-54.69,-0.94,0.44,-0.25,-0.03,1.78
8.00,2.00,287.44,-20.81,19.19,-1.12,0.00,-0.12,-0.03,1.78
8.00,0.00,264.69,1.88,-101.81,-0.38,0.88,0.31,-0.02,1.80
8.00,1.00,276.81,-5.19,-54.69,-0.06,0.94,0.69,-0.02,1.80
8.00,2.00,287.44,-20.81,19.25,-0.50,-0.19,0.06,-0.02,1.80
8.00,0.00,264.69,1.88,-101.81,-0.38,0.38,0.00,-0.02,1.82
8.00,1.00,276.81,-5.19,-54.69,0.38,1.38,0.50,-0.02,1.82
8.00,2.00,287.44,-20.81,19.25,-0.62,0.12,-0.19,-0.02,1.82
8.00,0.00,264.69,1.88,-101.81,-0.31,0.25,-0.12,0.02,1.84
8.00,1.00,276.75,-5.19,-54.62,-1.50,0.31,0.56,0.02,1.84
8.00,2.00,287.38,-20.81,19.25,-1.94,0.38,0.06,0.02,1.84
8.00,0.00,264.69,1.88,-101.81,-0.44,0.25,0.00,0.09,1.86
8.00,1.00,276.75,-5.19,-54.62,-2.38,-0.25,0.31,0.09,1.86
8.00,2.00,287.38,-20.81,19.31,-3.19,-0.50,0.25,0.09,1.86
8.00,0.00,264.69,1.88,-101.81,-0.81,-0.06,0.19,0.15,1.88
8.00,1.00,276.75,-5.19,-54.56,-2.06,1.25,0.94,0.15,1.88
8.00,2.00,287.31,-20.81,19.38,-3.25,-1.12,0.62,0.15,1.88
8.00,0.00,264.69,1.88,-101.75,-0.88,0.06,0.06,0.21,1.90
8.00,1.00,276.69,-5.19,-54.50,-3.06,1.19,1.75,0.21,1.90
8.00,2.00,287.19,-20.81,19.44,-3.31,-1.44,0.94,0.21,1.90
8.00,0.00,264.69,1.88,-101.75,-0.81,0.75,0.19,0.30,1.92
8.00,1.00,276.69,-5.19,-54.44,-2.06,0.88,1.62,0.30,1.92
8.00,2.00,287.12,-20.81,19.50,-4.62,-2.44,3.50,0.30,1.92
8.00,0.00,264.69,1.88,-101.75,-0.88,1.38,0.25,0.36,1.94
8.00,1.00,276.62,-5.19,-54.38,-1.00,0.88,1.88,0.36,1.94
8.00,2.00,287.00,-20.81,19.50,-3.44,-2.50,4.81,0.36,1.94
8.00,0.00,264.56,1.88,-101.75,-0.06,4.56,0.81,0.39,1.96
8.00,1.00,276.56,-5.12,-54.38,-1.56,0.50,1.62,0.39,1.96
8.00,2.00,286.88,-20.81,19.50,-1.31,-2.50,3.19,0.39,1.96
8.00,0.00,264.44,1.94,-101.75,1.12,6.56,1.56,0.43,1.98
8.00,1.00,276.56,-5.12,-54.38,-0.56,2.00,1.19,0.43,1.98
8.00,2.00,286.88,-20.75,19.50,-0.69,-2.19,1.38,0.43,1.98
8.00,0.00,264.25,2.00,-101.75,1.69,7.25,2.12,0.53,2.00
8.00,1.00,276.50,-5.12,-54.31,-3.19,1.62,2.00,0.53,2.00
8.00,2.00,286.75,-20.69,19.56,-2.19,-2.12,-0.69,0.53,2.00
8.00,0.00,264.00,2.06,-101.75,0.94,7.25,3.06,0.72,2.02
8.00,1.00,276.44,-5.12,-54.25,-3.00,2.69,1.81,0.72,2.02
8.00,2.00,286.75,-20.69,19.62,-7.00,-2.25,2.00,0.72,2.02
8.00,0.00,263.75,2.12,-101.75,-0.12,6.81,3.12,0.94,2.04
8.00,1.00,276.38,-5.12,-54.19,-2.81,2.62,1.06,0.94,2.04
8.00,2.00,286.56,-20.69,19.75,-9.31,-2.69,6.00,0.94,2.04
8.00,0.00,263.56,2.25,-101.75,-2.38,6.56,2.69,1.07,2.06
8.00,1.00,276.31,-5.12,-54.19,-2.44,2.31,1.38,1.07,2.06
8.00,2.00,286.38,-20.69,19.88,-7.75,-2.75,7.31,1.07,2.06
8.00,0.00,263.38,2.31,-101.69,-2.94,6.19,1.31,1.13,2.08
8.00,1.00,276.25,-5.19,-54.12,-1.69,2.38,2.06,1.13,2.08
8.00,2.00,286.25,-20.69,19.94,-5.44,-2.88,6.06,1.13,2.08
8.00,0.00,263.19,2.31,-101.62,-1.81,6.06,1.19,1.19,2.10
8.00,1.00,276.19,-5.19,-54.06,-1.19,2.75,2.31,1.19,2.10
8.00,2.00,285.94,-20.62,20.00,-4.25,-3.06,4.44,1.19,2.10
8.00,0.00,263.06,2.38,-101.62,0.81,5.88,1.75,1.27,2.12
8.00,1.00,276.12,-5.19,-54.00,-2.00,2.38,2.12,1.27,2.12
8.00,2.00,285.81,-20.62,20.06,-2.50,-3.25,3.69,1.27,2.12
8.00,0.00,262.88,2.44,-101.69,3.38,5.06,2.38,1.35,2.14
8.00,1.00,276.06,-5.19,-54.00,-1.56,3.00,1.19,1.35,2.14
8.00,2.00,285.62,-20.56,20.06,0.25,-3.50,4.19,1.35,2.14
8.00,0.00,262.69,2.56,-101.75,4.88,4.56,3.12,1.43,2.16
8.00,1.00,276.06,-5.19,-53.94,-2.44,2.44,0.62,1.43,2.16
8.00,2.00,285.50,-20.56,20.00,1.25,-3.69,5.00,1.43,2.16
8.00,0.00,262.50,2.62,-101.88,6.38,5.50,3.31,1.60,2.18
8.00,1.00,276.00,-5.25,-53.88,-3.62,1.81,0.31,1.60,2.18
8.00,2.00,285.38,-20.50,19.94,-0.31,-4.25,5.38,1.60,2.18
8.00,0.00,262.25,2.69,-102.00,7.81,8.44,3.12,1.83,2.20
8.00,1.00,276.00,-5.25,-53.81,-4.19,1.56,0.12,1.83,2.20
8.00,2.00,285.06,-20.50,19.94,-1.69,-5.00,6.12,1.83,2.20
8.00,0.00,261.88,2.81,-102.25,9.94,10.88,4.00,2.13,2.22
8.00,1.00,276.00,-5.31,-53.69,-3.12,3.06,0.19,2.13,2.22
8.00,2.00,284.94,-20.44,19.94,-2.56,-4.50,6.50,2.13,2.22
8.00,0.00,261.44,3.00,-102.50,12.31,13.25,5.75,2.50,2.24
8.00,1.00,275.94,-5.38,-53.69,-2.75,3.94,0.19,2.50,2.24
8.00,2.00,284.75,-20.44,19.94,-3.00,-3.19,6.25,2.50,2.24
8.00,0.00,260.94,3.19,-102.75,14.06,14.75,7.25,2.92,2.26
8.00,1.00,275.88,-5.38,-53.62,-3.62,3.19,0.50,2.92,2.26
8.00,2.00,284.62,-20.44,19.94,-3.19,-2.50,5.94,2.92,2.26
8.00,0.00,260.44,3.38,-103.06,15.88,14.44,7.12,3.36,2.28
8.00,1.00,275.88,-5.44,-53.56,-3.25,3.50,1.00,3.36,2.28
8.00,2.00,284.50,-20.44,19.94,-2.31,-1.94,5.44,3.36,2.28
8.00,0.00,260.00,3.56,-103.38,19.00,12.31,5.75,3.85,2.30
8.00,1.00,275.81,-5.44,-53.50,-3.62,3.25,1.00,3.85,2.30
8.00,2.00,284.31,-20.44,19.94,-1.56,-1.81,5.75,3.85,2.30
8.00,0.00,259.62,3.69,-103.75,20.25,6.88,6.19,4.40,2.32
8.00,1.00,275.75,-5.44,-53.38,-4.31,3.12,1.25,4.40,2.32
8.00,2.00,284.19,-20.44,19.94,-2.44,-2.19,7.56,4.40,2.32
8.00,0.00,259.44,3.75,-104.12,19.31,2.00,3.06,4.95,2.34
8.00,1.00,275.69,-5.44,-53.31,-4.00,4.12,1.94,4.95,2.34
8.00,2.00,284.00,-20.50,19.94,-3.19,-2.38,9.00,4.95,2.34
8.00,0.00,259.38,3.81,-104.56,19.56,0.75,2.69,5.50,2.36
8.00,1.00,275.56,-5.50,-53.25,-2.88,5.25,2.50,5.50,2.36
8.00,2.00,283.75,-20.50,19.94,-3.44,-1.44,10.31,5.50,2.36
8.00,0.00,259.25,3.88,-104.94,20.19,0.50,2.69,6.11,2.38
8.00,1.00,275.44,-5.50,-53.19,-3.50,5.38,2.25,6.11,2.38
8.00,2.00,283.56,-20.56,19.94,-5.12,-0.81,10.56,6.11,2.38
8.00,0.00,259.12,3.94,-105.31,20.69,1.38,3.81,6.75,2.40
8.00,1.00,275.38,-5.56,-53.12,-4.81,4.44,1.75,6.75,2.40
8.00,2.00,283.25,-20.62,19.94,-5.81,-1.06,10.75,6.75,2.40
8.00,0.00,258.88,4.06,-105.75,21.19,5.19,4.94,7.39,2.42
8.00,1.00,275.31,-5.56,-53.06,-4.69,4.31,1.06,7.39,2.42
8.00,2.00,283.00,-20.69,20.00,-5.19,-1.62,11.25,7.39,2.42
8.00,0.00,258.50,4.25,-106.19,23.44,7.19,7.88,8.05,2.44
8.00,1.00,275.25,-5.62,-53.00,-3.62,5.81,1.31,8.05,2.44
8.00,2.00,282.75,-20.75,20.00,-3.75,-1.06,11.25,8.05,2.44
8.00,0.00,258.06,4.50,-106.62,25.56,8.06,10.81,8.79,2.46
8.00,1.00,275.12,-5.69,-52.94,-2.94,6.62,2.25,8.79,2.46
8.00,2.00,282.56,-20.81,20.00,-5.00,-0.88,10.81,8.79,2.46
8.00,0.00,257.56,4.75,-107.12,25.69,8.56,11.19,9.56,2.48
8.00,1.00,275.00,-5.69,-52.88,-2.88,7.12,2.50,9.56,2.48
8.00,2.00,282.31,-20.81,20.06,-6.38,-1.88,10.81,9.56,2.48
8.00,0.00,257.00,5.00,-107.62,27.31,8.38,12.06,10.38,2.50
8.00,1.00,274.94,-5.75,-52.88,-3.25,7.19,2.38,10.38,2.50
8.00,2.00,282.12,-20.88,20.06,-6.38,-3.69,11.12,10.38,2.50
8.00,0.00,256.44,5.31,-108.19,29.50,9.25,13.44,11.20,2.52
8.00,1.00,274.81,-5.81,-52.75,-4.44,5.12,1.44,11.20,2.52
8.00,2.00,281.88,-20.88,20.06,-4.50,-3.75,11.31,11.20,2.52
8.00,0.00,255.81,5.62,-108.81,31.19,9.69,14.25,12.01,2.54
8.00,1.00,274.75,-5.88,-52.69,-4.88,4.75,1.25,12.01,2.54
8.00,2.00,281.50,-20.88,20.06,-2.44,-3.56,10.62,12.01,2.54
8.00,0.00,255.19,6.00,-109.38,31.69,9.88,15.19,12.83,2.56
8.00,1.00,274.69,-5.88,-52.62,-5.12,3.75,1.81,12.83,2.56
8.00,2.00,281.25,-20.88,20.00,-2.12,-4.94,10.81,12.83,2.56
8.00,0.00,254.50,6.31,-110.00,32.06,8.50,16.25,13.65,2.58
8.00,1.00,274.56,-5.88,-52.50,-4.50,5.62,2.56,13.65,2.58
8.00,2.00,281.06,-20.81,19.94,-1.94,-5.44,10.56,13.65,2.58
8.00,0.00,253.88,6.69,-110.62,32.69,6.31,17.19,14.49,2.60
8.00,1.00,274.50,-5.94,-52.44,-3.88,5.88,2.94,14.49,2.60
8.00,2.00,280.81,-20.81,19.94,-1.94,-4.75,11.44,14.49,2.60
8.00,0.00,253.31,7.00,-111.25,33.25,5.19,17.06,15.33,2.62
8.00,1.00,274.31,-5.94,-52.38,-3.69,6.69,3.12,15.33,2.62
8.00,2.00,280.56,-20.81,19.88,-1.50,-5.00,13.06,15.33,2.62
8.00,0.00,252.75,7.38,-111.94,33.12,4.31,16.38,16.18,2.64
8.00,1.00,274.25,-5.94,-52.31,-4.75,6.44,3.50,16.18,2.64
8.00,2.00,280.25,-20.81,19.75,-2.12,-4.94,14.31,16.18,2.64
8.00,0.00,252.19,7.69,-112.62,34.38,2.44,17.62,17.09,2.66
8.00,1.00,274.12,-6.00,-52.25,-4.62,6.50,3.88,17.09,2.66
8.00,2.00,279.94,-20.81,19.69,-3.06,-6.12,15.12,17.09,2.66
8.00,0.00,251.69,8.00,-113.31,35.44,1.25,18.31,18.01,2.68
8.00,1.00,273.88,-6.00,-52.12,-4.06,7.44,4.06,18.01,2.68
8.00,2.00,279.62,-20.81,19.62,-2.56,-7.00,15.69,18.01,2.68
8.00,0.00,251.12,8.31,-114.00,35.94,0.12,18.12,18.93,2.70
8.00,1.00,273.81,-6.06,-52.12,-3.12,7.44,3.94,18.93,2.70
8.00,2.00,279.00,-20.75,19.56,-2.12,-7.06,15.50,18.93,2.70
8.00,0.00,250.62,8.62,-114.69,36.44,-0.69,17.88,19.84,2.72
8.00,1.00,273.62,-6.06,-52.06,-3.31,8.56,3.75,19.84,2.72
8.00,2.00,278.75,-20.75,19.50,-1.25,-5.25,14.31,19.84,2.72
8.00,0.00,250.12,8.88,-115.44,36.12,-0.75,17.31,20.72,2.74
8.00,1.00,273.50,-6.12,-52.00,-4.00,8.44,3.19,20.72,2.74
8.00,2.00,278.44,-20.75,19.38,-0.44,-4.75,13.81,20.72,2.74
8.00,0.00,249.62,9.19,-116.12,35.75,-0.50,17.38,21.61,2.76
8.00,1.00,273.38,-6.19,-51.94,-4.88,7.94,3.31,21.61,2.76
8.00,2.00,278.12,-20.75,19.31,-1.00,-4.88,15.25,21.61,2.76
8.00,0.00,249.12,9.50,-116.88,36.31,0.56,18.06,22.54,2.78
8.00,1.00,273.19,-6.19,-51.88,-3.56,8.81,3.81,22.54,2.78
8.00,2.00,277.81,-20.75,19.19,-1.88,-5.75,16.06,22.54,2.78
8.00,0.00,248.56,9.81,-117.56,35.75,1.38,17.88,23.45,2.80
8.00,1.00,273.06,-6.25,-51.81,-3.19,8.75,4.12,23.45,2.80
8.00,2.00,277.19,-20.75,19.12,-2.12,-7.50,16.75,23.45,2.80
8.00,0.00,248.00,10.06,-118.25,35.00,1.38,17.25,24.33,2.82
8.00,1.00,272.88,-6.31,-51.75,-3.50,10.12,4.19,24.33,2.82
8.00,2.00,276.81,-20.75,19.00,-1.38,-6.12,17.00,24.33,2.82
8.00,0.00,247.44,10.38,-118.88,33.69,2.38,16.06,25.22,2.84
8.00,1.00,272.69,-6.38,-51.75,-4.06,9.44,3.69,25.22,2.84
8.00,2.00,276.44,-20.75,18.94,-3.12,-5.12,16.56,25.22,2.84
8.00,0.00,246.88,10.62,-119.50,33.56,1.88,15.69,26.13,2.86
8.00,1.00,272.56,-6.44,-51.62,-4.00,9.44,3.62,26.13,2.86
8.00,2.00,276.12,-20.75,18.88,-4.06,-5.81,17.56,26.13,2.86
8.00,0.00,246.25,10.94,-120.12,33.38,2.81,15.31,27.02,2.88
8.00,1.00,272.38,-6.50,-51.56,-2.62,10.44,3.19,27.02,2.88
8.00,2.00,275.69,-20.75,18.81,-3.19,-6.06,18.06,27.02,2.88
8.00,0.00,245.69,11.19,-120.75,33.06,3.25,14.94,27.87,2.90
8.00,1.00,272.19,-6.56,-51.56,-2.06,11.12,3.31,27.87,2.90
8.00,2.00,275.25,-20.75,18.75,-2.38,-5.75,16.94,27.87,2.90
8.00,0.00,245.12,11.38,-121.31,32.12,3.94,13.81,28.70,2.92
8.00,1.00,272.06,-6.69,-51.50,-5.75,6.81,3.00,28.70,2.92
8.00,2.00,274.94,-20.75,18.69,-2.00,-5.69,15.94,28.70,2.92
8.00,0.00,244.56,11.62,-121.88,30.88,3.94,13.50,29.46,2.94
8.00,1.00,271.94,-6.69,-51.38,-4.00,8.94,2.81,29.46,2.94
8.00,2.00,274.62,-20.75,18.62,-0.75,-5.00,14.94,29.46,2.94
8.00,0.00,244.06,11.81,-122.38,30.25,3.69,12.25,30.20,2.96
8.00,1.00,271.81,-6.81,-51.38,-2.94,10.00,2.31,30.20,2.96
8.00,2.00,274.31,-20.75,18.50,-0.31,-3.44,14.31,30.20,2.96
8.00,0.00,243.69,11.94,-122.94,30.56,0.44,12.69,30.97,2.98
8.00,1.00,271.69,-6.88,-51.31,-6.00,7.88,2.44,30.97,2.98
8.00,2.00,274.00,-20.81,18.44,-1.06,-3.25,15.06,30.97,2.98
8.00,0.00,243.31,12.06,-123.50,29.62,-1.94,13.31,31.76,3.00
8.00,1.00,271.56,-6.94,-51.19,-6.19,8.75,2.56,31.76,3.00
8.00,2.00,273.69,-20.81,18.38,-3.25,-3.50,15.94,31.76,3.00
8.00,0.00,242.88,12.25,-124.12,28.06,-2.69,12.25,32.55,3.02
8.00,1.00,271.38,-7.00,-51.12,-4.81,10.88,2.19,32.55,3.02
8.00,2.00,273.38,-20.81,18.31,-4.69,-5.50,16.50,32.55,3.02
8.00,0.00,242.56,12.44,-124.69,26.81,-2.88,10.56,33.28,3.04
8.00,1.00,271.25,-7.12,-51.06,-5.12,10.31,2.44,33.28,3.04
8.00,2.00,273.00,-20.81,18.25,-3.12,-5.19,15.62,33.28,3.04
8.00,0.00,242.19,12.56,-125.19,26.69,-4.12,10.69,33.98,3.06
8.00,1.00,271.12,-7.19,-50.94,-7.44,8.75,3.19,33.98,3.06
8.00,2.00,272.75,-20.81,18.19,-2.38,-3.69,14.62,33.98,3.06
8.00,0.00,241.88,12.69,-125.75,26.44,-3.62,11.75,34.72,3.08
8.00,1.00,270.94,-7.25,-50.81,-7.06,9.31,4.12,34.72,3.08
8.00,2.00,272.38,-20.88,18.12,-4.19,-4.88,15.25,34.72,3.08
8.00,0.00,241.44,12.81,-126.31,25.19,-0.81,11.19,35.40,3.10
8.00,1.00,270.75,-7.31,-50.69,-6.00,10.25,4.00,35.40,3.10
8.00,2.00,272.06,-20.81,18.12,-3.06,-5.44,16.25,35.40,3.10
8.00,0.00,241.00,13.00,-126.81,24.94,0.12,11.81,36.04,3.12
8.00,1.00,270.56,-7.38,-50.62,-5.81,11.06,4.38,36.04,3.12
8.00,2.00,271.75,-20.88,18.00,-1.25,-4.62,15.94,36.04,3.12
8.00,0.00,240.44,13.19,-127.25,23.25,1.00,12.75,36.59,3.14
8.00,1.00,270.38,-7.44,-50.50,-6.62,11.19,5.12,36.59,3.14
8.00,2.00,271.38,-20.88,17.88,0.31,-4.88,16.56,36.59,3.14
8.00,0.00,239.88,13.44,-127.69,20.56,3.06,12.19,37.14,3.16
8.00,1.00,270.12,-7.50,-50.44,-7.38,12.56,5.44,37.14,3.16
8.00,2.00,271.06,-20.88,17.75,-2.25,-6.06,18.19,37.14,3.16
8.00,0.00,239.31,13.62,-128.06,17.88,4.44,10.38,37.70,3.18
8.00,1.00,269.88,-7.62,-50.31,-7.44,13.69,5.94,37.70,3.18
8.00,2.00,270.62,-20.81,17.69,-5.25,-8.56,19.44,37.70,3.18
8.00,0.00,238.81,13.88,-128.38,17.06,4.25,10.25,38.19,3.20
8.00,1.00,269.62,-7.69,-50.19,-7.62,13.25,5.88,38.19,3.20
8.00,2.00,270.19,-20.81,17.62,-3.12,-7.50,20.06,38.19,3.20
8.00,0.00,238.25,14.06,-128.75,18.19,3.50,11.25,38.66,3.22
8.00,1.00,269.38,-7.75,-50.06,-9.00,12.62,5.12,38.66,3.22
8.00,2.00,269.81,-20.81,17.50,-1.06,-5.56,19.00,38.66,3.22
8.00,0.00,237.62,14.25,-129.12,19.62,4.00,11.50,39.17,3.24
8.00,1.00,269.19,-7.88,-49.94,-6.50,13.81,3.75,39.17,3.24
8.00,2.00,269.44,-20.81,17.38,-1.50,-6.00,19.38,39.17,3.24
8.00,0.00,236.94,14.50,-129.50,19.06,6.88,10.19,39.66,3.26
8.00,1.00,268.94,-8.00,-49.94,-3.12,15.94,3.69,39.66,3.26
8.00,2.00,269.00,-20.81,17.31,-1.38,-4.56,19.19,39.66,3.26
8.00,0.00,236.25,14.75,-129.88,18.38,6.81,9.50,40.13,3.28
8.00,1.00,268.75,-8.12,-49.88,-4.94,14.12,5.56,40.13,3.28
8.00,2.00,268.69,-20.81,17.25,-0.88,-4.19,17.25,40.13,3.28
8.00,0.00,235.69,14.94,-130.12,16.75,6.31,10.31,40.56,3.30
8.00,1.00,268.50,-8.19,-49.75,-8.69,10.69,7.44,40.56,3.30
8.00,2.00,268.31,-20.88,17.12,-1.00,-3.94,17.75,40.56,3.30
8.00,0.00,235.12,15.12,-130.38,14.06,6.38,8.75,40.97,3.32
8.00,1.00,268.25,-8.19,-49.62,-7.12,12.38,7.19,40.97,3.32
8.00,2.00,267.94,-20.94,17.00,-3.25,-2.88,19.06,40.97,3.32
8.00,0.00,234.88,15.25,-130.50,13.62,4.50,6.62,41.47,3.34
8.00,1.00,267.94,-8.25,-49.56,-7.56,13.38,8.81,41.47,3.34
8.00,2.00,267.56,-20.94,17.00,-6.88,-4.75,18.44,41.47,3.34
8.00,0.00,234.38,15.38,-130.81,13.56,3.50,6.56,41.99,3.36
8.00,1.00,267.62,-8.31,-49.44,-8.06,13.25,9.12,41.99,3.36
8.00,2.00,267.12,-20.94,17.00,-8.06,-5.62,18.19,41.99,3.36
8.00,0.00,233.94,15.50,-131.06,11.25,4.19,5.44,42.44,3.38
8.00,1.00,267.38,-8.38,-49.38,-6.19,13.88,7.19,42.44,3.38
8.00,2.00,266.75,-20.94,17.00,-7.31,-6.06,16.81,42.44,3.38
8.00,0.00,233.56,15.62,-131.19,10.06,4.81,4.38,42.84,3.40
8.00,1.00,267.06,-8.50,-49.38,-6.62,15.75,5.81,42.84,3.40
8.00,2.00,266.44,-20.94,17.06,-6.25,-3.31,12.81,42.84,3.40
8.00,0.00,233.19,15.75,-131.38,11.25,4.31,5.50,43.30,3.42
8.00,1.00,266.81,-8.62,-49.25,-9.12,14.75,4.44,43.30,3.42
8.00,2.00,266.19,-20.94,17.12,-7.94,-1.06,10.94,43.30,3.42
8.00,0.00,232.69,15.88,-131.62,12.06,3.75,7.81,43.87,3.44
8.00,1.00,266.62,-8.69,-49.12,-10.88,11.25,1.75,43.87,3.44
8.00,2.00,265.88,-21.00,17.19,-11.31,-1.94,14.19,43.87,3.44
8.00,0.00,232.25,16.06,-131.88,9.38,5.62,6.81,44.37,3.46
8.00,1.00,266.50,-8.88,-49.00,-5.19,13.88,-0.19,44.37,3.46
8.00,2.00,265.56,-21.06,17.31,-11.31,-3.50,15.81,44.37,3.46
8.00,0.00,231.75,16.25,-132.00,6.44,8.12,3.94,44.70,3.48
8.00,1.00,266.38,-9.12,-49.00,-1.75,17.88,-1.56,44.70,3.48
8.00,2.00,265.19,-21.06,17.38,-7.50,-1.94,14.69,44.70,3.48
8.00,0.00,231.25,16.38,-132.12,5.00,8.06,3.25,44.93,3.50
8.00,1.00,266.25,-9.31,-49.00,-1.44,14.25,-0.75,44.93,3.50
8.00,2.00,264.94,-21.19,17.38,-4.25,1.38,12.12,44.93,3.50
8.00,0.00,230.81,16.56,-132.12,2.62,7.25,1.88,45.10,3.52
8.00,1.00,266.12,-9.44,-48.81,-11.44,5.50,2.44,45.10,3.52
8.00,2.00,264.69,-21.25,17.38,-4.62,1.12,12.69,45.10,3.52
8.00,0.00,230.50,16.69,-132.19,2.62,5.88,2.19,45.34,3.54
8.00,1.00,266.00,-9.44,-48.69,-5.88,9.50,2.56,45.34,3.54
8.00,2.00,264.44,-21.31,17.38,-7.06,-0.44,12.31,45.34,3.54
8.00,0.00,230.19,16.75,-132.19,3.94,4.19,2.81,45.62,3.56
8.00,1.00,265.88,-9.56,-48.62,-6.06,10.81,1.56,45.62,3.56
8.00,2.00,264.12,-21.38,17.44,-7.94,-1.94,13.69,45.62,3.56
8.00,0.00,229.81,16.88,-132.31,7.00,6.31,5.88,45.98,3.58
8.00,1.00,265.75,-9.69,-48.50,-8.50,8.38,3.00,45.98,3.58
8.00,2.00,263.88,-21.44,17.50,-7.56,-1.25,12.19,45.98,3.58
8.00,0.00,229.31,17.06,-132.44,6.44,7.31,5.88,46.33,3.60
8.00,1.00,265.56,-9.75,-48.38,-6.50,12.38,1.62,46.33,3.60
8.00,2.00,263.62,-21.44,17.62,-8.06,0.44,10.31,46.33,3.60
8.00,0.00,228.81,17.25,-132.56,7.38,7.94,6.38,46.71,3.62
8.00,1.00,265.44,-9.94,-48.31,-8.06,9.88,1.12,46.71,3.62
8.00,2.00,263.44,-21.50,17.75,-8.38,0.19,8.44,46.71,3.62
8.00,0.00,228.38,17.44,-132.62,5.81,6.81,6.50,47.00,3.64
8.00,1.00,265.38,-10.00,-48.12,-8.69,8.25,-0.06,47.00,3.64
8.00,2.00,263.31,-21.56,17.88,-6.44,1.75,7.31,47.00,3.64
8.00,0.00,228.00,17.56,-132.62,4.38,6.00,5.62,47.28,3.66
8.00,1.00,265.31,-10.12,-48.00,-8.44,8.19,-1.44,47.28,3.66
8.00,2.00,263.12,-21.62,18.00,-7.06,1.69,6.75,47.28,3.66
8.00,0.00,227.75,17.69,-132.62,1.44,4.19,2.62,47.51,3.68
8.00,1.00,265.25,-10.31,-47.81,-9.31,6.12,-1.81,47.51,3.68
8.00,2.00,263.00,-21.69,18.12,-8.06,0.88,6.50,47.51,3.68
8.00,0.00,227.69,17.69,-132.62,-0.25,1.00,1.50,47.69,3.70
8.00,1.00,265.25,-10.38,-47.62,-7.75,4.44,-1.94,47.69,3.70
8.00,2.00,262.81,-21.69,18.19,-7.50,-0.25,6.88,47.69,3.70
8.00,0.00,227.69,17.75,-132.69,0.88,-2.31,2.31,47.82,3.72
8.00,1.00,265.25,-10.50,-47.50,-7.94,4.94,-2.69,47.82,3.72
8.00,2.00,262.69,-21.75,18.25,-4.81,1.38,6.56,47.82,3.72
8.00,0.00,227.69,17.75,-132.75,3.50,-4.00,4.56,48.03,3.74
8.00,1.00,265.25,-10.62,-47.31,-6.81,5.81,-2.50,48.03,3.74
8.00,2.00,262.56,-21.81,18.31,-5.12,2.50,6.75,48.03,3.74
8.00,0.00,227.56,17.81,-132.88,5.81,-0.44,5.88,48.36,3.76
8.00,1.00,265.19,-10.81,-47.25,0.12,12.75,-3.81,48.36,3.76
8.00,2.00,262.38,-21.88,18.50,-7.88,0.69,7.69,48.36,3.76
8.00,0.00,227.25,17.94,-133.00,5.38,4.81,5.38,48.66,3.78
8.00,1.00,265.19,-11.06,-47.19,-2.31,12.56,-4.88,48.66,3.78
8.00,2.00,262.25,-21.94,18.62,-6.88,1.38,7.44,48.66,3.78
8.00,0.00,226.81,18.06,-133.06,3.50,7.19,4.81,48.86,3.80
8.00,1.00,265.19,-11.25,-47.19,-1.38,10.06,-4.75,48.86,3.80
8.00,2.00,262.12,-21.94,18.75,-4.81,1.62,6.44,48.86,3.80
8.00,0.00,226.44,18.25,-133.12,2.75,5.69,4.62,48.99,3.82
8.00,1.00,265.19,-11.38,-47.12,-6.50,5.31,-4.06,48.99,3.82
8.00,2.00,262.00,-22.06,18.81,-2.56,2.75,6.38,48.99,3.82
8.00,0.00,226.12,18.38,-133.19,4.19,2.00,6.00,49.15,3.84
8.00,1.00,265.19,-11.50,-47.00,-3.62,7.69,-3.50,49.15,3.84
8.00,2.00,261.88,-22.12,18.88,-2.38,2.50,5.69,49.15,3.84
8.00,0.00,226.00,18.38,-133.38,7.00,-2.31,7.38,49.40,3.86
8.00,1.00,265.19,-11.69,-46.94,-4.06,7.38,-3.38,49.40,3.86
8.00,2.00,261.75,-22.19,18.94,-3.50,1.19,5.50,49.40,3.86
8.00,0.00,225.88,18.44,-133.50,6.44,-2.44,6.69,49.64,3.88
8.00,1.00,265.19,-11.81,-46.81,-5.81,5.50,-1.75,49.64,3.88
8.00,2.00,261.62,-22.25,19.00,-3.50,0.62,4.69,49.64,3.88
8.00,0.00,225.75,18.50,-133.62,4.69,-1.25,5.00,49.83,3.90
8.00,1.00,265.19,-11.94,-46.69,-5.56,5.12,-2.25,49.83,3.90
8.00,2.00,261.56,-22.25,19.06,-3.19,-0.06,4.62,49.83,3.90
8.00,0.00,225.62,18.56,-133.69,2.38,0.94,3.00,49.91,3.92
8.00,1.00,265.19,-12.06,-46.56,-4.81,3.38,-2.75,49.91,3.92
8.00,2.00,261.44,-22.25,19.12,-1.06,0.19,5.44,49.91,3.92
8.00,0.00,225.50,18.62,-133.75,3.19,1.50,2.31,50.01,3.94
8.00,1.00,265.19,-12.19,-46.44,-3.25,5.12,-1.75,50.01,3.94
8.00,2.00,261.38,-22.31,19.12,-0.56,0.19,5.12,50.01,3.94
8.00,0.00,225.25,18.69,-133.81,5.94,0.56,4.94,50.18,3.96
8.00,1.00,265.19,-12.25,-46.38,-3.38,4.88,-0.19,50.18,3.96
8.00,2.00,261.25,-22.31,19.06,-1.50,-0.25,5.69,50.18,3.96
8.00,0.00,224.94,18.81,-134.00,7.31,2.25,6.81,50.44,3.98
8.00,1.00,265.12,-12.38,-46.38,-1.81,6.69,-0.06,50.44,3.98
8.00,2.00,261.12,-22.31,19.12,-3.25,-2.00,6.31,50.44,3.98
8.00,0.00,224.56,18.94,-134.06,6.06,5.75,6.00,50.64,4.00
8.00,1.00,265.06,-12.44,-46.31,-2.44,5.44,-0.62,50.64,4.00
8.00,2.00,261.06,-22.31,19.12,-2.19,-1.44,5.25,50.64,4.00
8.00,0.00,224.12,19.12,-134.12,5.06,7.06,4.19,50.78,4.02
8.00,1.00,265.06,-12.50,-46.25,-3.25,4.25,-0.88,50.78,4.02
8.00,2.00,260.94,-22.31,19.19,-0.88,0.56,4.12,50.78,4.02
8.00,0.00,223.69,19.25,-134.25,6.56,5.69,4.19,50.96,4.04
8.00,1.00,265.00,-12.62,-46.25,-1.06,7.69,-1.69,50.96,4.04
8.00,2.00,260.88,-22.31,19.19,-0.56,0.50,3.81,50.96,4.04
8.00,0.00,223.25,19.38,-134.31,8.31,6.00,5.56,51.18,4.06
8.00,1.00,265.00,-12.75,-46.19,-1.69,5.62,-1.38,51.18,4.06
8.00,2.00,260.81,-22.31,19.19,-0.94,-0.94,3.88,51.18,4.06
8.00,0.00,222.81,19.56,-134.44,5.50,6.81,3.69,51.35,4.08
8.00,1.00,265.00,-12.81,-46.12,-4.56,3.19,-0.25,51.35,4.08
8.00,2.00,260.69,-22.31,19.25,-1.62,-0.81,3.88,51.35,4.08
8.00,0.00,222.44,19.69,-134.44,0.75,8.62,0.38,51.39,4.10
8.00,1.00,264.94,-12.88,-46.06,-2.44,4.50,-0.81,51.39,4.10
8.00,2.00,260.69,-22.38,19.25,-0.81,-0.50,4.31,51.39,4.10
8.00,0.00,222.12,19.75,-134.44,0.62,7.06,-0.69,51.41,4.12
8.00,1.00,264.94,-13.00,-46.00,-2.38,4.12,-0.81,51.41,4.12
8.00,2.00,260.56,-22.38,19.25,-0.25,1.00,4.19,51.41,4.12
8.00,0.00,221.88,19.81,-134.50,4.81,3.56,1.56,51.57,4.14
8.00,1.00,264.88,-13.06,-46.00,-1.62,5.56,0.12,51.57,4.14
8.00,2.00,260.50,-22.44,19.25,-1.81,1.44,4.56,51.57,4.14
8.00,0.00,221.56,19.94,-134.62,6.69,3.25,3.25,51.83,4.16
8.00,1.00,264.88,-13.12,-45.94,-1.62,5.44,0.00,51.83,4.16
8.00,2.00,260.38,-22.50,19.31,-4.06,0.19,4.81,51.83,4.16
8.00,0.00,221.25,20.00,-134.69,4.19,5.44,1.75,52.00,4.18
8.00,1.00,264.81,-13.19,-45.88,-3.88,2.81,0.00,52.00,4.18
8.00,2.00,260.31,-22.50,19.38,-2.69,1.69,4.06,52.00,4.18
8.00,0.00,221.00,20.12,-134.69,1.56,5.31,0.06,52.06,4.20
8.00,1.00,264.81,-13.25,-45.81,-1.75,3.69,-1.00,52.06,4.20
8.00,2.00,260.25,-22.50,19.38,-1.00,2.94,3.19,52.06,4.20
8.00,0.00,220.81,20.19,-134.69,0.62,2.88,-0.50,52.11,4.22
8.00,1.00,264.81,-13.31,-45.81,-1.81,2.19,-1.19,52.11,4.22
8.00,2.00,260.19,-22.62,19.44,-1.62,2.25,2.88,52.11,4.22
8.00,0.00,220.81,20.12,-134.75,1.88,-1.19,0.12,52.23,4.24
8.00,1.00,264.81,-13.38,-45.75,-2.00,1.75,-0.50,52.23,4.24
8.00,2.00,260.12,-22.69,19.44,-2.88,1.81,2.94,52.23,4.24
8.00,0.00,220.88,20.12,-134.75,2.38,-3.31,0.25,52.37,4.26
8.00,1.00,264.81,-13.44,-45.75,-0.75,3.25,-0.88,52.37,4.26
8.00,2.00,260.06,-22.75,19.50,-3.69,1.56,3.06,52.37,4.26
8.00,0.00,221.00,20.06,-134.81,1.62,-2.19,-0.38,52.50,4.28
8.00,1.00,264.81,-13.50,-45.75,-1.81,1.81,-1.31,52.50,4.28
8.00,2.00,260.00,-22.81,19.62,-3.38,2.75,2.31,52.50,4.28
8.00,0.00,221.06,20.06,-134.81,0.75,-0.94,-0.50,52.55,4.30
8.00,1.00,264.81,-13.50,-45.62,-2.81,1.38,-1.50,52.55,4.30
8.00,2.00,260.00,-22.81,19.62,-1.62,1.38,2.81,52.55,4.30
8.00,0.00,221.12,20.00,-134.75,0.12,-0.81,-0.62,52.43,4.32
8.00,1.00,264.88,-13.62,-45.62,-1.62,1.75,-2.88,52.43,4.32
8.00,2.00,259.88,-22.88,19.56,5.31,-0.50,5.50,52.43,4.32
8.00,0.00,221.19,20.00,-134.75,-0.44,-2.12,-1.06,52.08,4.34
8.00,1.00,264.88,-13.69,-45.56,0.06,0.75,-2.75,52.08,4.34
8.00,2.00,259.75,-22.94,19.25,13.75,0.69,8.00,52.08,4.34
8.00,0.00,221.38,19.94,-134.75,-2.81,-3.38,-1.44,51.94,4.36
8.00,1.00,264.94,-13.69,-45.56,0.94,-1.69,-2.69,51.94,4.36
8.00,2.00,259.62,-22.94,19.06,3.19,-2.62,7.19,51.94,4.36
8.00,0.00,221.62,19.88,-134.69,-4.31,-2.94,-1.06,51.98,4.38
8.00,1.00,265.06,-13.75,-45.50,-2.50,-3.19,-6.00,51.98,4.38
8.00,2.00,259.50,-22.88,19.06,-6.00,-7.19,6.69,51.98,4.38
8.00,0.00,221.75,19.81,-134.62,-1.94,-1.81,-1.31,51.93,4.40
8.00,1.00,265.25,-13.75,-45.44,-0.75,-1.88,-5.94,51.93,4.40
8.00,2.00,259.38,-22.88,19.06,0.25,-1.56,5.38,51.93,4.40
8.00,0.00,221.81,19.81,-134.62,0.69,1.12,-3.19,51.93,4.42
8.00,1.00,265.31,-13.81,-45.44,-0.06,-1.06,-1.94,51.93,4.42
8.00,2.00,259.31,-22.94,19.00,0.56,2.00,3.06,51.93,4.42
8.00,0.00,221.69,19.81,-134.56,0.69,4.62,-3.69,52.11,4.44
8.00,1.00,265.31,-13.81,-45.44,-2.06,-1.00,1.25,52.11,4.44
8.00,2.00,259.19,-22.94,19.06,-6.88,-1.12,5.19,52.11,4.44
8.00,0.00,221.44,19.88,-134.56,-0.12,9.31,-2.19,52.33,4.46
8.00,1.00,265.19,-13.75,-45.38,-1.62,2.31,4.19,52.33,4.46
8.00,2.00,259.00,-22.94,19.19,-9.06,-2.44,5.75,52.33,4.46
8.00,0.00,221.06,20.00,-134.44,0.31,10.81,-1.19,52.39,4.48
8.00,1.00,265.06,-13.75,-45.38,0.00,4.69,5.00,52.39,4.48
8.00,2.00,258.94,-23.00,19.25,-2.25,2.69,3.94,52.39,4.48
8.00,0.00,220.75,20.06,-134.44,1.81,6.88,-0.81,52.48,4.50
8.00,1.00,264.94,-13.75,-45.44,1.38,7.56,3.44,52.48,4.50
8.00,2.00,258.88,-23.06,19.31,-1.81,4.44,2.31,52.48,4.50
8.00,0.00,220.62,20.12,-134.44,1.69,2.00,-0.88,52.64,4.52
8.00,1.00,264.81,-13.81,-45.50,-1.69,4.56,3.19,52.64,4.52
8.00,2.00,258.88,-23.12,19.38,-5.06,3.56,0.75,52.64,4.52
8.00,0.00,220.69,20.06,-134.50,1.69,-5.00,-1.25,52.79,4.54
8.00,1.00,264.75,-13.81,-45.44,-3.81,1.00,3.25,52.79,4.54
8.00,2.00,258.88,-23.25,19.50,-4.56,4.31,-1.38,52.79,4.54
8.00,0.00,220.94,20.00,-134.56,0.88,-5.44,-1.06,52.86,4.56
8.00,1.00,264.69,-13.81,-45.38,-2.44,0.38,1.56,52.86,4.56
8.00,2.00,258.94,-23.31,19.56,-2.06,5.69,-2.81,52.86,4.56
8.00,0.00,221.12,19.88,-134.56,-0.31,-5.12,-1.94,52.92,4.58
8.00,1.00,264.69,-13.81,-45.25,-3.75,-0.62,1.00,52.92,4.58
8.00,2.00,259.00,-23.38,19.69,-2.56,4.56,-3.19,52.92,4.58
8.00,0.00,221.44,19.75,-134.62,1.38,-7.12,-1.38,53.00,4.60
8.00,1.00,264.69,-13.81,-45.19,-2.50,0.94,-0.62,53.00,4.60
8.00,2.00,259.06,-23.44,19.75,-1.81,3.56,-1.94,53.00,4.60
8.00,0.00,221.62,19.69,-134.69,2.62,-5.94,-0.69,53.04,4.62
8.00,1.00,264.69,-13.94,-45.12,0.44,3.06,-2.12,53.04,4.62
8.00,2.00,259.12,-23.44,19.88,0.75,4.12,-2.62,53.04,4.62
8.00,0.00,221.75,19.62,-134.75,2.25,-2.62,-0.50,53.02,4.64
8.00,1.00,264.75,-14.00,-45.19,0.69,2.75,-2.62,53.02,4.64
8.00,2.00,259.19,-23.50,19.88,3.06,4.31,-2.75,53.02,4.64
8.00,0.00,221.75,19.62,-134.81,2.06,-1.75,1.25,53.06,4.66
8.00,1.00,264.75,-14.06,-45.19,-0.31,2.75,-2.12,53.06,4.66
8.00,2.00,259.25,-23.56,19.88,0.56,2.00,-2.00,53.06,4.66
8.00,0.00,221.75,19.62,-134.81,1.94,-1.69,1.69,53.11,4.68
8.00,1.00,264.81,-14.12,-45.12,-0.75,2.44,-1.50,53.11,4.68
8.00,2.00,259.31,-23.56,19.88,-0.12,0.50,-1.19,53.11,4.68
8.00,0.00,221.75,19.62,-134.88,2.81,-1.31,1.56,53.16,4.70
8.00,1.00,264.81,-14.19,-45.12,-0.50,2.38,-1.31,53.16,4.70
8.00,2.00,259.31,-23.56,19.94,0.56,1.81,-1.81,53.16,4.70
8.00,0.00,221.69,19.62,-135.00,3.44,-1.06,1.50,53.22,4.72
8.00,1.00,264.81,-14.25,-45.12,1.00,3.00,-1.94,53.22,4.72
8.00,2.00,259.38,-23.56,19.94,1.19,1.50,-0.94,53.22,4.72
8.00,0.00,221.62,19.62,-135.06,3.75,-1.12,0.88,53.25,4.74
8.00,1.00,264.88,-14.31,-45.12,1.75,2.69,-1.94,53.25,4.74
8.00,2.00,259.44,-23.62,20.00,2.25,1.62,-2.00,53.25,4.74
8.00,0.00,221.62,19.56,-135.12,3.25,-0.69,0.56,53.27,4.76
8.00,1.00,264.88,-14.44,-45.12,2.19,3.12,-1.38,53.27,4.76
8.00,2.00,259.50,-23.62,20.00,2.44,1.25,-2.69,53.27,4.76
8.00,0.00,221.56,19.56,-135.19,1.81,-0.44,0.75,53.27,4.78
8.00,1.00,264.94,-14.50,-45.19,2.00,0.62,-0.31,53.27,4.78
8.00,2.00,259.56,-23.62,19.94,2.12,0.31,-1.94,53.27,4.78
8.00,0.00,221.56,19.62,-135.19,0.94,-0.75,1.38,53.24,4.80
8.00,1.00,264.94,-14.50,-45.19,0.94,0.06,-0.06,53.24,4.80
8.00,2.00,259.56,-23.56,19.94,1.94,-0.44,-1.31,53.24,4.80
8.00,0.00,221.50,19.62,-135.19,1.62,-0.31,1.56,53.28,4.82
8.00,1.00,264.94,-14.50,-45.25,0.38,-0.56,0.44,53.28,4.82
8.00,2.00,259.56,-23.56,19.94,0.19,-2.94,-0.56,53.28,4.82
