Iteration,IMUNo,OrientationX (deg),OrientationY,OrientationZ,GyroX (20rad/sec),GyroY,GyroZ,Elbow_Pos (rad),Time (sec)
41.00,0.00,256.38,4.62,-99.94,0.56,-0.56,-0.62,0.02,1.02
41.00,1.00,286.81,-6.31,-45.75,0.19,0.75,-1.38,0.02,1.02
41.00,2.00,260.56,-14.75,23.00,-0.12,0.88,0.25,0.02,1.02
41.00,0.00,256.38,4.62,-99.94,0.38,-1.25,-0.44,0.04,1.04
41.00,1.00,286.81,-6.31,-45.75,0.06,0.75,-1.62,0.04,1.04
41.00,2.00,260.56,-14.75,23.00,-0.31,0.88,0.00,0.04,1.04
41.00,0.00,256.44,4.56,-99.94,0.38,-1.25,-0.62,0.05,1.06
41.00,1.00,286.81,-6.31,-45.75,0.19,0.62,-1.62,0.05,1.06
41.00,2.00,260.56,-14.81,23.00,0.06,1.06,0.00,0.05,1.06
41.00,0.00,256.44,4.56,-99.94,0.31,-0.88,-0.69,0.07,1.08
41.00,1.00,286.88,-6.38,-45.75,0.31,0.62,-1.56,0.07,1.08
41.00,2.00,260.56,-14.81,23.00,-0.31,0.81,0.25,0.07,1.08
41.00,0.00,256.50,4.56,-99.94,0.31,-0.44,-0.50,0.09,1.10
41.00,1.00,286.88,-6.38,-45.75,0.31,0.56,-1.62,0.09,1.10
41.00,2.00,260.56,-14.81,23.00,-0.19,0.88,0.12,0.09,1.10
41.00,0.00,256.50,4.56,-99.94,0.88,-0.38,-0.50,0.09,1.12
41.00,1.00,286.94,-6.44,-45.75,0.25,0.31,-2.00,0.09,1.12
41.00,2.00,260.56,-14.88,23.00,0.62,1.00,-0.56,0.09,1.12
41.00,0.00,256.50,4.56,-99.94,0.56,-0.56,-0.69,0.10,1.14
41.00,1.00,286.94,-6.44,-45.75,0.56,0.31,-1.75,0.10,1.14
41.00,2.00,260.56,-14.88,23.00,0.50,1.12,-0.44,0.10,1.14
41.00,0.00,256.50,4.50,-99.94,0.38,-0.75,-0.44,0.11,1.16
41.00,1.00,287.00,-6.50,-45.75,0.25,0.38,-1.50,0.11,1.16
41.00,2.00,260.56,-14.94,23.00,0.00,1.12,-0.56,0.11,1.16
41.00,0.00,256.56,4.50,-99.94,0.19,-0.75,-0.38,0.12,1.18
41.00,1.00,287.00,-6.50,-45.69,-0.44,0.44,-1.69,0.12,1.18
41.00,2.00,260.56,-14.94,23.00,-0.31,0.19,-0.12,0.12,1.18
41.00,0.00,256.56,4.50,-99.94,0.12,-0.44,-0.19,0.14,1.20
41.00,1.00,287.06,-6.50,-45.69,-0.38,0.50,-1.25,0.14,1.20
41.00,2.00,260.56,-14.94,23.06,-0.38,-0.44,-0.38,0.14,1.20
41.00,0.00,256.56,4.50,-99.94,0.06,0.25,0.12,0.14,1.22
41.00,1.00,287.06,-6.56,-45.69,-0.19,0.31,-1.00,0.14,1.22
41.00,2.00,260.56,-15.00,23.06,0.00,-0.06,-0.12,0.14,1.22
41.00,0.00,256.56,4.50,-99.94,0.19,0.50,0.25,0.15,1.24
41.00,1.00,287.06,-6.56,-45.69,-0.06,-0.06,-1.06,0.15,1.24
41.00,2.00,260.56,-15.00,23.06,-0.12,0.06,-0.06,0.15,1.24
41.00,0.00,256.56,4.50,-99.94,0.31,0.38,0.12,0.15,1.26
41.00,1.00,287.12,-6.56,-45.69,0.00,-0.06,-1.06,0.15,1.26
41.00,2.00,260.56,-15.00,23.06,0.19,0.50,0.12,0.15,1.26
41.00,0.00,256.56,4.50,-99.94,0.38,0.44,0.12,0.15,1.28
41.00,1.00,287.12,-6.56,-45.69,0.12,0.56,-0.69,0.15,1.28
41.00,2.00,260.56,-15.00,23.06,0.50,0.12,0.50,0.15,1.28
41.00,0.00,256.56,4.50,-99.94,0.44,0.38,0.38,0.15,1.30
41.00,1.00,287.12,-6.56,-45.69,0.12,0.69,-0.44,0.15,1.30
41.00,2.00,260.56,-15.00,23.06,0.38,-0.25,0.56,0.15,1.30
41.00,0.00,256.56,4.50,-99.94,0.25,-0.69,0.62,0.16,1.32
41.00,1.00,287.12,-6.56,-45.69,0.19,0.56,-0.56,0.16,1.32
41.00,2.00,260.56,-15.00,23.06,-0.06,-0.44,0.38,0.16,1.32
41.00,0.00,256.56,4.56,-100.00,0.44,-2.06,1.69,0.19,1.34
41.00,1.00,287.12,-6.62,-45.69,-0.56,1.06,-0.06,0.19,1.34
41.00,2.00,260.56,-15.00,23.06,-0.50,-0.75,-0.31,0.19,1.34
41.00,0.00,256.56,4.56,-100.00,1.38,-2.75,2.62,0.21,1.36
41.00,1.00,287.12,-6.62,-45.69,-1.31,1.50,0.00,0.21,1.36
41.00,2.00,260.56,-15.00,23.06,0.62,-2.31,-1.44,0.21,1.36
41.00,0.00,256.56,4.62,-100.06,3.25,-2.38,4.50,0.30,1.38
41.00,1.00,287.06,-6.62,-45.69,-2.06,2.25,-0.31,0.30,1.38
41.00,2.00,260.56,-14.94,23.06,0.44,-1.62,0.12,0.30,1.38
41.00,0.00,256.44,4.75,-100.19,6.56,-0.69,7.94,0.60,1.40
41.00,1.00,287.06,-6.69,-45.62,-2.81,2.75,-0.06,0.60,1.40
41.00,2.00,260.50,-15.00,23.06,-3.00,-1.00,2.56,0.60,1.40
41.00,0.00,256.19,5.00,-100.38,10.38,0.44,13.19,1.07,1.42
41.00,1.00,287.06,-6.75,-45.56,-3.75,3.19,0.50,1.07,1.42
41.00,2.00,260.44,-15.00,23.19,-5.12,-1.88,2.81,1.07,1.42
41.00,0.00,255.81,5.31,-100.62,14.00,-0.44,18.81,1.64,1.44
41.00,1.00,287.00,-6.75,-45.50,-3.81,3.12,0.44,1.64,1.44
41.00,2.00,260.38,-15.00,23.25,-4.25,-2.31,2.81,1.64,1.44
41.00,0.00,255.44,5.75,-100.94,17.69,-2.88,22.62,2.26,1.46
41.00,1.00,286.94,-6.81,-45.38,-4.38,3.69,-0.38,2.26,1.46
41.00,2.00,260.31,-15.00,23.25,-2.69,-0.88,2.31,2.26,1.46
41.00,0.00,255.00,6.19,-101.44,23.19,-6.38,24.19,3.05,1.48
41.00,1.00,286.94,-6.88,-45.31,-5.31,3.44,-1.19,3.05,1.48
41.00,2.00,260.25,-15.00,23.31,-2.38,-0.56,2.38,3.05,1.48
41.00,0.00,254.75,6.62,-102.00,30.88,-13.44,25.81,4.05,1.50
41.00,1.00,286.94,-6.94,-45.19,-4.69,2.44,-2.00,4.05,1.50
41.00,2.00,260.19,-15.00,23.31,-1.50,-2.31,3.00,4.05,1.50
41.00,0.00,254.75,7.06,-102.75,38.50,-21.19,28.44,5.25,1.52
41.00,1.00,286.94,-7.00,-45.12,-3.94,1.81,-2.50,5.25,1.52
41.00,2.00,260.12,-14.94,23.31,-0.38,-2.88,2.06,5.25,1.52
41.00,0.00,254.62,7.50,-103.69,43.81,-25.12,28.44,6.60,1.54
41.00,1.00,287.00,-7.00,-45.06,-3.50,1.06,-2.62,6.60,1.54
41.00,2.00,260.06,-14.94,23.31,0.06,-3.12,1.38,6.60,1.54
41.00,0.00,254.56,7.88,-104.69,49.00,-25.19,27.69,8.07,1.56
41.00,1.00,287.06,-7.06,-45.00,-2.81,0.44,-2.50,8.07,1.56
41.00,2.00,260.06,-14.88,23.31,1.38,-4.12,1.94,8.07,1.56
41.00,0.00,254.44,8.31,-105.81,54.19,-24.00,27.88,9.70,1.58
41.00,1.00,287.06,-7.06,-44.94,-2.19,0.75,-2.00,9.70,1.58
41.00,2.00,260.00,-14.81,23.25,1.38,-4.69,3.12,9.70,1.58
41.00,0.00,254.31,8.69,-107.00,58.38,-23.12,28.12,11.50,1.60
41.00,1.00,287.06,-7.06,-44.88,-2.00,1.31,-1.19,11.50,1.60
41.00,2.00,259.88,-14.81,23.19,0.06,-5.06,4.00,11.50,1.60
41.00,0.00,254.19,9.06,-108.25,62.00,-24.44,29.69,13.42,1.62
41.00,1.00,287.06,-7.12,-44.88,-2.44,1.69,-0.81,13.42,1.62
41.00,2.00,259.75,-14.75,23.19,-0.38,-5.50,4.31,13.42,1.62
41.00,0.00,253.94,9.50,-109.62,64.50,-24.75,30.50,15.38,1.64
41.00,1.00,287.06,-7.12,-44.81,-2.62,2.12,-0.88,15.38,1.64
41.00,2.00,259.69,-14.69,23.12,1.00,-4.19,4.56,15.38,1.64
41.00,0.00,253.69,9.88,-111.00,65.38,-22.38,29.88,17.34,1.66
41.00,1.00,287.06,-7.12,-44.75,-2.94,2.62,-0.69,17.34,1.66
41.00,2.00,259.56,-14.62,23.06,1.62,-4.44,5.50,17.34,1.66
41.00,0.00,253.62,10.25,-112.38,67.19,-17.25,30.31,19.36,1.68
41.00,1.00,287.00,-7.19,-44.69,-2.88,2.69,-1.19,19.36,1.68
41.00,2.00,259.44,-14.56,23.00,1.75,-7.88,5.62,19.36,1.68
41.00,0.00,253.06,10.69,-113.75,66.81,-12.88,28.44,21.41,1.70
41.00,1.00,287.00,-7.25,-44.62,-2.81,2.75,-0.75,21.41,1.70
41.00,2.00,259.25,-14.44,22.94,0.31,-11.69,5.38,21.41,1.70
41.00,0.00,252.69,11.12,-115.12,67.75,-9.31,28.88,23.57,1.72
41.00,1.00,287.00,-7.25,-44.62,-2.62,2.88,-0.31,23.57,1.72
41.00,2.00,259.12,-14.25,22.94,-2.19,-13.94,4.75,23.57,1.72
41.00,0.00,251.81,11.62,-116.50,69.12,-4.50,31.62,25.79,1.74
41.00,1.00,286.94,-7.25,-44.56,-2.62,2.38,-0.44,25.79,1.74
41.00,2.00,259.00,-14.00,22.94,-2.94,-16.56,2.94,25.79,1.74
41.00,0.00,250.81,12.12,-117.88,68.69,-1.88,31.25,27.98,1.76
41.00,1.00,286.94,-7.31,-44.50,-1.25,1.19,-0.81,27.98,1.76
41.00,2.00,258.88,-13.69,22.94,-2.44,-15.75,1.69,27.98,1.76
41.00,0.00,250.69,12.31,-118.56,68.06,-1.25,29.94,30.16,1.78
41.00,1.00,286.94,-7.31,-44.50,-1.94,1.25,-1.38,30.16,1.78
41.00,2.00,258.81,-13.44,23.00,-2.62,-13.38,0.12,30.16,1.78
41.00,0.00,249.06,13.06,-120.62,67.44,-1.50,28.31,32.31,1.80
41.00,1.00,287.00,-7.38,-44.44,-2.44,0.12,-1.56,32.31,1.80
41.00,2.00,258.75,-13.25,23.00,-2.19,-13.19,-1.50,32.31,1.80
41.00,0.00,248.56,13.25,-121.31,65.12,-1.50,25.38,34.34,1.82
41.00,1.00,287.00,-7.38,-44.38,-1.75,-0.25,-1.69,34.34,1.82
41.00,2.00,258.75,-13.00,23.00,-0.56,-14.88,-1.62,34.34,1.82
41.00,0.00,247.25,13.81,-123.25,61.69,-3.75,21.12,36.26,1.84
41.00,1.00,287.06,-7.38,-44.38,-0.62,-1.88,-2.25,36.26,1.84
41.00,2.00,258.69,-12.75,23.06,-0.75,-15.06,-0.62,36.26,1.84
41.00,0.00,246.94,13.88,-123.69,56.38,-3.12,20.12,38.01,1.86
41.00,1.00,287.12,-7.38,-44.31,-0.88,-2.69,-2.75,38.01,1.86
41.00,2.00,258.62,-12.50,23.06,-0.38,-15.38,-1.00,38.01,1.86
41.00,0.00,246.31,14.19,-124.81,50.38,-1.19,19.00,39.57,1.88
41.00,1.00,287.19,-7.38,-44.31,-1.50,-2.50,-2.81,39.57,1.88
41.00,2.00,258.62,-12.25,23.06,-0.12,-12.25,-2.19,39.57,1.88
41.00,0.00,245.50,14.44,-125.88,46.50,-1.31,19.69,41.02,1.90
41.00,1.00,287.25,-7.38,-44.25,-2.06,-1.38,-2.38,41.02,1.90
41.00,2.00,258.62,-12.06,23.00,-0.56,-10.50,-1.25,41.02,1.90
41.00,0.00,244.56,14.75,-126.81,41.69,1.44,19.56,42.34,1.92
41.00,1.00,287.31,-7.44,-44.19,-1.94,-0.56,-2.31,42.34,1.92
41.00,2.00,258.62,-11.88,23.00,-1.06,-10.19,-0.75,42.34,1.92
41.00,0.00,244.12,15.06,-127.62,37.25,3.19,19.38,43.53,1.94
41.00,1.00,287.31,-7.44,-44.12,-3.62,0.44,-1.75,43.53,1.94
41.00,2.00,258.56,-11.75,23.06,-1.38,-8.62,-1.75,43.53,1.94
41.00,0.00,243.12,15.44,-128.38,34.06,3.94,17.94,44.71,1.96
41.00,1.00,287.31,-7.44,-44.06,-4.94,1.62,-1.44,44.71,1.96
41.00,2.00,258.56,-11.56,23.06,-4.00,-9.56,-3.00,44.71,1.96
41.00,0.00,242.25,15.75,-129.06,33.38,4.94,17.88,45.96,1.98
41.00,1.00,287.31,-7.50,-43.94,-5.69,2.19,-1.75,45.96,1.98
41.00,2.00,258.62,-11.38,23.19,-7.19,-9.94,-3.69,45.96,1.98
41.00,0.00,241.25,16.06,-129.75,33.44,3.50,17.50,47.30,2.00
41.00,1.00,287.38,-7.56,-43.81,-6.81,2.88,-2.50,47.30,2.00
41.00,2.00,258.62,-11.19,23.38,-10.00,-10.06,-5.25,47.30,2.00
41.00,0.00,240.31,16.38,-130.50,34.69,1.50,18.19,48.63,2.02
41.00,1.00,287.38,-7.62,-43.69,-7.25,1.06,-3.94,48.63,2.02
41.00,2.00,258.69,-10.94,23.56,-8.44,-10.06,-5.88,48.63,2.02
41.00,0.00,239.88,16.62,-131.25,39.62,-4.75,19.12,49.95,2.04
41.00,1.00,287.50,-7.69,-43.56,-5.81,-0.56,-5.81,49.95,2.04
41.00,2.00,258.81,-10.75,23.69,-3.38,-7.31,-7.81,49.95,2.04
41.00,0.00,239.06,16.81,-132.12,44.69,-10.44,19.19,51.37,2.06
41.00,1.00,287.62,-7.75,-43.44,-4.44,-1.00,-6.06,51.37,2.06
41.00,2.00,258.94,-10.56,23.75,-1.44,-7.19,-7.81,51.37,2.06
41.00,0.00,238.81,16.94,-133.19,47.81,-14.00,18.62,52.86,2.08
41.00,1.00,287.75,-7.81,-43.31,-3.81,-2.50,-6.12,52.86,2.08
41.00,2.00,259.00,-10.31,23.75,-0.31,-10.06,-7.94,52.86,2.08
41.00,0.00,238.31,16.94,-134.31,52.31,-20.75,15.12,54.44,2.10
41.00,1.00,287.88,-7.88,-43.25,-2.12,-4.19,-6.50,54.44,2.10
41.00,2.00,259.12,-10.06,23.81,0.88,-11.81,-8.75,54.44,2.10
41.00,0.00,238.00,16.81,-135.50,53.06,-22.12,13.12,56.03,2.12
41.00,1.00,288.06,-7.88,-43.19,-1.62,-5.44,-6.50,56.03,2.12
41.00,2.00,259.25,-9.81,23.81,1.69,-12.88,-8.94,56.03,2.12
41.00,0.00,238.06,16.62,-136.69,55.50,-23.94,12.12,57.62,2.14
41.00,1.00,288.25,-7.88,-43.12,-1.00,-5.75,-6.81,57.62,2.14
41.00,2.00,259.38,-9.56,23.81,4.00,-12.62,-8.25,57.62,2.14
41.00,0.00,105.50,16.50,-137.88,55.69,-22.38,12.69,59.17,2.16
41.00,1.00,288.38,-7.88,-43.06,-0.25,-6.56,-6.81,59.17,2.16
41.00,2.00,259.50,-9.25,23.69,5.19,-14.25,-8.62,59.17,2.16
41.00,0.00,106.12,16.31,-139.06,54.62,-20.75,12.12,60.66,2.18
41.00,1.00,288.62,-7.88,-43.06,-0.44,-7.56,-6.81,60.66,2.18
41.00,2.00,259.62,-8.94,23.62,6.56,-15.88,-8.88,60.66,2.18
41.00,0.00,106.38,16.25,-140.31,55.56,-16.56,13.56,62.17,2.20
41.00,1.00,288.81,-7.81,-43.00,0.00,-8.00,-6.56,62.17,2.20
41.00,2.00,259.75,-8.62,23.50,6.38,-14.81,-8.38,62.17,2.20
41.00,0.00,106.50,16.25,-141.44,53.00,-9.75,13.19,63.61,2.22
41.00,1.00,289.00,-7.75,-42.94,0.44,-8.44,-6.31,63.61,2.22
41.00,2.00,259.81,-8.31,23.44,6.56,-16.06,-7.00,63.61,2.22
41.00,0.00,107.06,16.31,-142.50,50.56,-4.56,12.19,64.94,2.24
41.00,1.00,289.12,-7.75,-42.94,1.62,-8.50,-5.94,64.94,2.24
41.00,2.00,259.81,-8.00,23.25,7.19,-18.56,-4.44,64.94,2.24
41.00,0.00,107.19,16.44,-143.44,46.69,2.06,11.06,66.12,2.26
41.00,1.00,289.31,-7.69,-42.94,2.56,-8.25,-5.06,66.12,2.26
41.00,2.00,259.81,-7.69,23.12,8.56,-19.31,-3.25,66.12,2.26
41.00,0.00,107.38,16.69,-144.31,42.19,8.94,9.50,67.15,2.28
41.00,1.00,289.38,-7.62,-42.94,3.38,-7.94,-3.44,67.15,2.28
41.00,2.00,259.81,-7.31,22.94,8.75,-19.06,-2.19,67.15,2.28
41.00,0.00,107.31,16.94,-145.06,38.19,12.50,8.38,68.11,2.30
41.00,1.00,289.56,-7.50,-43.00,2.75,-6.44,-2.00,68.11,2.30
41.00,2.00,259.75,-6.94,22.75,6.94,-18.31,-0.81,68.11,2.30
41.00,0.00,107.31,17.31,-145.75,33.50,15.75,9.06,69.01,2.32
41.00,1.00,289.56,-7.44,-43.00,1.81,-5.69,-0.56,69.01,2.32
41.00,2.00,259.69,-6.62,22.69,4.31,-17.62,0.94,69.01,2.32
41.00,0.00,107.56,17.69,-146.25,26.94,18.50,6.88,69.72,2.34
41.00,1.00,289.62,-7.31,-43.06,1.69,-4.50,-0.19,69.72,2.34
41.00,2.00,259.62,-6.44,22.56,4.12,-12.06,1.00,69.72,2.34
41.00,0.00,107.44,17.94,-146.44,17.75,18.62,2.19,70.12,2.36
41.00,1.00,289.62,-7.25,-43.06,1.75,-3.31,0.62,70.12,2.36
41.00,2.00,259.56,-6.25,22.44,4.81,-8.88,0.81,70.12,2.36
41.00,0.00,107.44,18.00,-146.25,7.62,16.62,-3.62,70.26,2.38
41.00,1.00,289.62,-7.19,-43.06,0.12,-2.12,0.94,70.26,2.38
41.00,2.00,259.50,-6.12,22.38,3.12,-7.81,2.00,70.26,2.38
41.00,0.00,107.19,18.19,-146.12,-1.38,15.69,-8.00,70.21,2.40
41.00,1.00,289.62,-7.12,-43.06,-0.69,-0.69,1.75,70.21,2.40
41.00,2.00,259.44,-6.06,22.38,0.06,-4.62,5.69,70.21,2.40
41.00,0.00,106.94,18.31,-145.94,-8.94,15.81,-10.12,69.99,2.42
41.00,1.00,289.56,-7.06,-43.06,-1.56,2.19,3.00,69.99,2.42
41.00,2.00,259.25,-6.06,22.38,-1.81,-0.25,8.56,69.99,2.42
41.00,0.00,107.00,18.44,-145.50,-16.81,14.56,-13.00,69.59,2.44
41.00,1.00,289.38,-7.00,-43.12,-3.06,5.19,4.38,69.59,2.44
41.00,2.00,259.06,-6.19,22.31,-3.94,2.44,10.31,69.59,2.44
41.00,0.00,106.75,18.50,-145.00,-19.62,12.88,-12.31,69.25,2.46
41.00,1.00,289.19,-6.94,-43.06,-4.88,7.94,5.75,69.25,2.46
41.00,2.00,258.88,-6.31,22.31,-8.31,4.94,10.44,69.25,2.46
41.00,0.00,106.62,18.56,-144.50,-21.50,13.19,-11.19,68.93,2.48
41.00,1.00,289.06,-6.94,-43.06,-6.56,9.25,6.44,68.93,2.48
41.00,2.00,258.69,-6.50,22.50,-11.12,8.06,11.44,68.93,2.48
41.00,0.00,106.38,18.62,-143.88,-24.75,12.50,-14.56,68.52,2.50
41.00,1.00,288.75,-7.00,-42.94,-6.69,10.75,5.69,68.52,2.50
41.00,2.00,258.44,-6.81,22.69,-11.44,11.00,11.94,68.52,2.50
41.00,0.00,106.06,18.56,-143.25,-26.81,9.19,-16.94,68.02,2.52
41.00,1.00,288.62,-7.00,-42.94,-6.06,10.56,4.94,68.02,2.52
41.00,2.00,258.25,-7.06,22.88,-10.75,11.44,11.06,68.02,2.52
41.00,0.00,105.75,18.44,-142.62,-28.12,5.75,-18.88,67.48,2.54
41.00,1.00,288.38,-7.12,-42.81,-5.94,10.38,4.31,67.48,2.54
41.00,2.00,258.12,-7.38,23.06,-10.69,11.25,9.50,67.48,2.54
41.00,0.00,105.50,18.31,-142.00,-25.00,1.19,-16.62,67.05,2.56
41.00,1.00,288.25,-7.19,-42.81,-6.56,10.06,4.00,67.05,2.56
41.00,2.00,257.94,-7.62,23.25,-11.12,10.62,8.38,67.05,2.56
41.00,0.00,105.31,18.12,-141.50,-18.94,0.69,-11.44,66.80,2.58
41.00,1.00,288.12,-7.25,-42.69,-6.69,8.69,3.25,66.80,2.58
41.00,2.00,257.81,-7.88,23.50,-10.69,8.69,8.00,66.80,2.58
41.00,0.00,105.19,18.00,-141.12,-17.81,1.69,-11.31,66.49,2.60
41.00,1.00,288.00,-7.31,-42.56,-5.81,6.81,1.94,66.49,2.60
41.00,2.00,257.69,-8.00,23.62,-7.88,5.75,6.75,66.49,2.60
41.00,0.00,105.00,17.94,-140.75,-16.56,2.88,-11.31,66.16,2.62
41.00,1.00,287.88,-7.38,-42.50,-4.25,5.75,1.19,66.16,2.62
41.00,2.00,257.62,-8.12,23.75,-5.88,5.12,5.31,66.16,2.62
41.00,0.00,104.81,17.88,-140.38,-15.06,3.25,-10.81,65.84,2.64
41.00,1.00,287.81,-7.44,-42.44,-4.31,4.50,0.88,65.84,2.64
41.00,2.00,257.50,-8.31,23.81,-4.62,4.62,4.62,65.84,2.64
41.00,0.00,104.69,17.81,-140.12,-8.62,2.19,-6.31,65.70,2.66
41.00,1.00,287.75,-7.50,-42.38,-4.19,4.12,1.19,65.70,2.66
41.00,2.00,257.44,-8.38,23.94,-4.19,3.62,4.00,65.70,2.66
41.00,0.00,104.69,17.81,-140.00,-4.38,3.94,-1.94,65.75,2.68
41.00,1.00,287.69,-7.56,-42.31,-4.38,4.12,1.44,65.75,2.68
41.00,2.00,257.38,-8.44,24.00,-5.94,1.75,3.31,65.75,2.68
41.00,0.00,104.62,17.88,-139.88,-4.94,6.25,-2.44,65.74,2.70
41.00,1.00,287.62,-7.56,-42.19,-4.62,2.75,0.56,65.74,2.70
41.00,2.00,257.31,-8.50,24.12,-4.38,2.62,2.25,65.74,2.70
41.00,0.00,104.50,17.88,-139.69,-7.25,5.56,-5.56,65.62,2.72
41.00,1.00,287.62,-7.62,-42.12,-4.62,2.56,0.31,65.62,2.72
41.00,2.00,257.31,-8.56,24.19,-3.50,2.25,2.25,65.62,2.72
41.00,0.00,104.38,17.88,-139.50,-6.00,5.31,-4.44,65.54,2.74
41.00,1.00,287.56,-7.62,-42.00,-5.00,2.69,0.31,65.54,2.74
41.00,2.00,257.25,-8.62,24.25,-3.44,0.38,2.06,65.54,2.74
41.00,0.00,104.31,17.94,-139.38,-4.62,7.19,-3.00,65.54,2.76
41.00,1.00,287.56,-7.62,-41.94,-5.12,3.00,0.94,65.54,2.76
41.00,2.00,257.19,-8.62,24.31,-4.62,-1.19,2.88,65.54,2.76
41.00,0.00,104.25,18.00,-139.25,-4.69,7.56,-3.12,65.56,2.78
41.00,1.00,287.50,-7.69,-41.81,-5.38,3.44,1.31,65.56,2.78
41.00,2.00,257.12,-8.62,24.38,-5.31,-1.75,3.56,65.56,2.78
41.00,0.00,104.12,18.00,-139.12,-4.81,6.25,-4.06,65.57,2.80
41.00,1.00,287.44,-7.69,-41.75,-5.69,3.50,1.50,65.57,2.80
41.00,2.00,257.00,-8.62,24.50,-5.25,-0.69,3.88,65.57,2.80
41.00,0.00,104.00,18.00,-139.00,-4.31,5.06,-5.19,65.59,2.82
41.00,1.00,287.38,-7.69,-41.62,-5.94,3.81,1.38,65.59,2.82
41.00,2.00,256.94,-8.69,24.56,-4.81,-0.44,4.38,65.59,2.82
41.00,0.00,104.12,17.94,-138.88,-4.12,4.12,-6.69,65.62,2.84
41.00,1.00,287.31,-7.75,-41.50,-5.69,3.94,1.12,65.62,2.84
41.00,2.00,256.81,-8.69,24.69,-5.25,-1.62,4.44,65.62,2.84
41.00,0.00,103.94,17.88,-138.75,-4.25,3.50,-7.56,65.66,2.86
41.00,1.00,287.19,-7.75,-41.38,-5.56,3.94,1.31,65.66,2.86
41.00,2.00,256.75,-8.75,24.81,-5.38,-1.25,4.75,65.66,2.86
41.00,0.00,103.75,17.81,-138.62,-4.56,3.81,-7.25,65.69,2.88
41.00,1.00,287.19,-7.81,-41.25,-5.62,4.06,1.19,65.69,2.88
41.00,2.00,256.62,-8.75,24.94,-5.62,-0.69,4.75,65.69,2.88
41.00,0.00,103.62,17.75,-138.44,-4.69,4.19,-7.44,65.74,2.90
41.00,1.00,287.12,-7.88,-41.12,-5.81,3.75,0.81,65.74,2.90
41.00,2.00,256.50,-8.81,25.06,-6.38,-0.25,4.12,65.74,2.90
41.00,0.00,103.44,17.69,-138.31,-4.06,4.56,-7.75,65.81,2.92
41.00,1.00,287.06,-7.94,-41.00,-5.81,3.38,0.25,65.81,2.92
41.00,2.00,256.44,-8.88,25.19,-6.31,0.50,3.94,65.81,2.92
41.00,0.00,103.25,17.62,-138.19,-3.56,4.62,-7.88,65.86,2.94
41.00,1.00,287.06,-7.94,-40.88,-4.81,3.12,-0.38,65.86,2.94
41.00,2.00,256.31,-8.94,25.31,-4.94,0.50,3.50,65.86,2.94
41.00,0.00,103.06,17.56,-138.06,-3.56,4.38,-6.81,65.90,2.96
41.00,1.00,287.00,-8.00,-40.81,-4.25,2.94,-0.31,65.90,2.96
41.00,2.00,256.25,-9.00,25.44,-5.00,0.75,2.81,65.90,2.96
41.00,0.00,103.12,17.56,-137.94,-3.31,4.56,-6.31,65.95,2.98
41.00,1.00,287.00,-8.06,-40.69,-5.00,2.88,-0.88,65.95,2.98
41.00,2.00,256.19,-9.06,25.56,-5.00,1.81,3.00,65.95,2.98
41.00,0.00,232.56,17.50,-137.81,-3.38,3.00,-6.00,65.99,3.00
41.00,1.00,287.00,-8.12,-40.56,-4.62,2.50,-1.00,65.99,3.00
41.00,2.00,256.12,-9.12,25.69,-4.75,1.12,3.25,65.99,3.00
41.00,0.00,232.69,17.44,-137.69,-3.88,2.19,-5.44,66.02,3.02
41.00,1.00,287.00,-8.19,-40.50,-4.00,2.44,-0.69,66.02,3.02
41.00,2.00,256.06,-9.19,25.75,-4.56,0.31,2.69,66.02,3.02
41.00,0.00,232.94,17.44,-137.56,-4.81,1.38,-4.75,65.99,3.04
41.00,1.00,287.00,-8.19,-40.38,-3.81,2.44,-0.88,65.99,3.04
41.00,2.00,256.06,-9.25,25.88,-3.88,1.25,2.12,65.99,3.04
41.00,0.00,233.12,17.38,-137.44,-5.19,0.56,-4.06,65.94,3.06
41.00,1.00,286.94,-8.25,-40.31,-3.81,2.69,-0.50,65.94,3.06
41.00,2.00,256.00,-9.25,25.94,-3.75,1.69,2.19,65.94,3.06
41.00,0.00,233.19,17.38,-137.31,-5.06,1.56,-3.00,65.89,3.08
41.00,1.00,286.94,-8.31,-40.25,-3.69,2.69,-0.12,65.89,3.08
41.00,2.00,255.94,-9.31,26.00,-3.44,1.25,1.81,65.89,3.08
41.00,0.00,233.25,17.31,-137.25,-4.69,1.88,-1.94,65.86,3.10
41.00,1.00,286.94,-8.31,-40.19,-3.94,2.94,0.00,65.86,3.10
41.00,2.00,255.94,-9.38,26.06,-3.50,0.81,1.62,65.86,3.10
41.00,0.00,233.31,17.38,-137.12,-4.38,2.50,-1.44,65.83,3.12
41.00,1.00,286.88,-8.38,-40.06,-4.12,2.50,0.19,65.83,3.12
41.00,2.00,255.88,-9.38,26.12,-3.69,1.00,1.56,65.83,3.12
41.00,0.00,233.31,17.38,-137.06,-4.19,2.25,-1.75,65.82,3.14
41.00,1.00,286.88,-8.38,-40.00,-3.94,2.50,0.31,65.82,3.14
41.00,2.00,255.88,-9.44,26.19,-3.69,0.88,1.88,65.82,3.14
41.00,0.00,233.38,17.31,-136.94,-4.50,1.06,-1.94,65.79,3.16
41.00,1.00,286.81,-8.44,-39.94,-4.00,2.12,0.31,65.79,3.16
41.00,2.00,255.81,-9.44,26.25,-3.56,-0.25,1.75,65.79,3.16
41.00,0.00,233.50,17.31,-136.88,-4.31,1.62,-2.00,65.75,3.18
41.00,1.00,286.81,-8.44,-39.88,-4.06,2.38,0.62,65.75,3.18
41.00,2.00,255.75,-9.44,26.31,-3.12,-0.94,2.00,65.75,3.18
41.00,0.00,233.50,17.38,-136.81,-3.81,2.62,-1.62,65.75,3.20
41.00,1.00,286.75,-8.44,-39.81,-4.44,2.44,0.81,65.75,3.20
41.00,2.00,255.69,-9.50,26.38,-3.62,-1.38,2.88,65.75,3.20
41.00,0.00,233.38,17.38,-136.75,-3.12,4.12,-1.38,65.76,3.22
41.00,1.00,286.69,-8.50,-39.69,-4.31,2.75,1.12,65.76,3.22
41.00,2.00,255.62,-9.50,26.44,-3.50,-1.31,2.62,65.76,3.22
41.00,0.00,233.25,17.44,-136.69,-2.75,6.56,-1.69,65.77,3.24
41.00,1.00,286.69,-8.50,-39.62,-4.25,2.75,1.44,65.77,3.24
41.00,2.00,255.56,-9.50,26.50,-3.12,-1.81,2.81,65.77,3.24
41.00,0.00,233.00,17.56,-136.56,-3.62,9.00,-2.25,65.78,3.26
41.00,1.00,286.62,-8.50,-39.56,-3.94,2.88,1.94,65.78,3.26
41.00,2.00,255.50,-9.44,26.50,-3.88,-3.00,3.12,65.78,3.26
41.00,0.00,232.75,17.62,-136.44,-4.25,10.44,-3.25,65.79,3.28
41.00,1.00,286.50,-8.50,-39.50,-4.56,2.44,2.00,65.79,3.28
41.00,2.00,255.38,-9.44,26.56,-4.56,-3.25,3.62,65.79,3.28
41.00,0.00,232.50,17.69,-136.38,-4.38,10.38,-4.00,65.80,3.30
41.00,1.00,286.44,-8.50,-39.44,-4.75,2.50,1.94,65.80,3.30
41.00,2.00,255.31,-9.44,26.62,-4.69,-2.56,3.75,65.80,3.30
41.00,0.00,232.31,17.75,-136.25,-4.19,9.69,-4.44,65.82,3.32
41.00,1.00,286.38,-8.56,-39.31,-5.06,2.81,1.75,65.82,3.32
41.00,2.00,255.19,-9.44,26.75,-4.94,-1.81,3.94,65.82,3.32
41.00,0.00,232.19,17.75,-136.12,-4.38,8.44,-5.00,65.85,3.34
41.00,1.00,286.31,-8.56,-39.25,-5.50,3.19,1.94,65.85,3.34
41.00,2.00,255.06,-9.50,26.81,-5.44,-1.06,4.81,65.85,3.34
41.00,0.00,232.38,17.69,-136.00,-3.81,-2.31,-7.06,65.93,3.36
41.00,1.00,286.25,-8.56,-39.12,-5.75,3.62,2.19,65.93,3.36
41.00,2.00,254.94,-9.50,26.88,-6.38,-1.88,5.25,65.93,3.36
41.00,0.00,232.94,17.50,-135.94,-3.12,-9.25,-5.31,66.06,3.38
41.00,1.00,286.19,-8.62,-39.06,-6.69,3.50,2.44,66.06,3.38
41.00,2.00,254.88,-9.50,27.00,-7.31,-1.25,3.94,66.06,3.38
41.00,0.00,233.56,17.25,-135.88,-5.88,-8.62,-8.19,66.10,3.40
41.00,1.00,286.06,-8.62,-38.94,-6.81,3.38,2.31,66.10,3.40
41.00,2.00,254.75,-9.56,27.12,-7.19,0.25,4.06,66.10,3.40
41.00,0.00,234.06,17.06,-135.75,-6.25,-5.12,-8.62,66.15,3.42
41.00,1.00,286.00,-8.62,-38.81,-6.75,3.12,2.00,66.15,3.42
41.00,2.00,254.69,-9.62,27.31,-7.88,0.56,4.69,66.15,3.42
41.00,0.00,234.56,16.94,-135.62,-5.00,-5.62,-6.69,66.21,3.44
41.00,1.00,285.94,-8.69,-38.69,-6.69,3.44,1.94,66.21,3.44
41.00,2.00,254.56,-9.69,27.44,-6.75,0.50,4.44,66.21,3.44
41.00,0.00,235.19,16.69,-135.56,-3.69,-11.44,-5.19,66.31,3.46
41.00,1.00,285.88,-8.69,-38.50,-6.56,3.81,1.81,66.31,3.46
41.00,2.00,254.44,-9.69,27.56,-7.19,0.00,3.88,66.31,3.46
41.00,0.00,236.06,16.44,-135.50,-3.19,-14.19,-4.62,66.42,3.48
41.00,1.00,285.81,-8.75,-38.38,-6.31,3.81,1.62,66.42,3.48
41.00,2.00,254.38,-9.75,27.69,-6.56,1.62,2.88,66.42,3.48
41.00,0.00,236.38,16.31,-135.50,-3.31,-9.50,-3.31,66.49,3.50
41.00,1.00,285.75,-8.75,-38.25,-5.69,4.12,1.81,66.49,3.50
41.00,2.00,254.38,-9.81,27.81,-5.69,2.75,2.44,66.49,3.50
41.00,0.00,236.81,16.12,-135.44,-3.25,-6.44,-3.00,66.58,3.52
41.00,1.00,285.69,-8.81,-38.12,-5.56,3.94,2.06,66.58,3.52
41.00,2.00,254.31,-9.88,28.00,-6.00,0.94,2.50,66.58,3.52
41.00,0.00,237.25,16.00,-135.38,-3.19,-4.81,-2.62,66.68,3.54
41.00,1.00,285.56,-8.81,-37.94,-4.88,3.44,2.31,66.68,3.54
41.00,2.00,254.25,-9.88,28.12,-6.56,-1.06,2.56,66.68,3.54
41.00,0.00,237.50,15.94,-135.31,-2.38,-3.19,-1.81,66.80,3.56
41.00,1.00,285.50,-8.88,-37.81,-3.94,2.69,1.44,66.80,3.56
41.00,2.00,254.19,-9.88,28.25,-6.12,-0.81,2.38,66.80,3.56
41.00,0.00,237.75,15.88,-135.25,-1.00,-1.38,-0.06,66.90,3.58
41.00,1.00,285.50,-8.88,-37.75,-2.75,1.50,0.00,66.90,3.58
41.00,2.00,254.12,-9.94,28.31,-4.31,1.19,2.06,66.90,3.58
41.00,0.00,237.81,15.88,-135.25,0.25,1.88,1.44,66.93,3.60
41.00,1.00,285.50,-8.88,-37.75,0.06,0.69,-0.75,66.93,3.60
41.00,2.00,254.12,-10.00,28.31,-0.75,1.50,1.31,66.93,3.60
41.00,0.00,237.69,15.94,-135.25,1.06,5.31,2.50,66.90,3.62
41.00,1.00,285.56,-8.88,-37.75,2.25,-0.75,-1.75,66.90,3.62
41.00,2.00,254.12,-10.00,28.31,2.12,0.88,0.25,66.90,3.62
41.00,0.00,237.44,16.06,-135.19,1.69,6.44,2.44,66.82,3.64
41.00,1.00,285.62,-8.94,-37.56,3.94,-1.19,-2.50,66.82,3.64
41.00,2.00,254.12,-10.06,28.50,4.19,1.69,-0.56,66.82,3.64
41.00,0.00,237.00,16.19,-135.19,3.75,8.00,2.75,66.75,3.66
41.00,1.00,285.69,-8.94,-37.44,5.38,-2.06,-2.44,66.75,3.66
41.00,2.00,254.19,-10.06,28.56,6.12,1.38,-1.75,66.75,3.66
41.00,0.00,236.56,16.38,-135.19,4.38,8.19,2.81,66.62,3.68
41.00,1.00,285.81,-8.94,-37.38,7.38,-3.00,-2.56,66.62,3.68
41.00,2.00,254.25,-10.12,28.56,8.56,0.69,-3.12,66.62,3.68
41.00,0.00,236.19,16.56,-135.25,7.00,10.88,5.81,66.52,3.70
41.00,1.00,285.94,-8.94,-37.38,8.56,-4.38,-2.81,66.52,3.70
41.00,2.00,254.38,-10.12,28.50,10.06,-0.44,-3.94,66.52,3.70
41.00,0.00,235.50,16.81,-135.38,7.94,12.75,8.06,66.42,3.72
41.00,1.00,286.06,-8.94,-37.44,9.31,-5.19,-3.50,66.42,3.72
41.00,2.00,254.44,-10.06,28.44,11.12,-1.25,-4.38,66.42,3.72
41.00,0.00,234.69,17.06,-135.50,8.06,13.44,8.81,66.29,3.74
41.00,1.00,286.19,-8.88,-37.56,10.81,-6.00,-4.06,66.29,3.74
41.00,2.00,254.56,-10.06,28.25,12.38,-1.69,-5.44,66.29,3.74
41.00,0.00,233.88,17.38,-135.62,9.31,13.88,10.62,66.15,3.76
41.00,1.00,286.38,-8.88,-37.75,12.06,-7.00,-4.94,66.15,3.76
41.00,2.00,254.69,-9.94,28.06,13.81,-1.75,-6.31,66.15,3.76
41.00,0.00,233.00,17.69,-135.75,10.12,13.38,11.38,66.01,3.78
41.00,1.00,286.50,-8.81,-37.94,12.56,-6.88,-4.56,66.01,3.78
41.00,2.00,254.81,-9.88,27.81,14.62,-2.44,-6.75,66.01,3.78
41.00,0.00,232.31,18.00,-135.88,4.69,9.69,9.75,65.72,3.80
41.00,1.00,286.69,-8.75,-38.19,13.06,-7.12,-3.81,65.72,3.80
41.00,2.00,255.00,-9.75,27.56,14.31,-2.44,-7.31,65.72,3.80
41.00,0.00,231.75,18.25,-135.94,3.06,6.25,7.81,65.38,3.82
41.00,1.00,286.81,-8.69,-38.38,12.69,-7.00,-3.38,65.38,3.82
41.00,2.00,255.19,-9.62,27.31,13.81,-2.44,-8.06,65.38,3.82
