Iteration,IMUNo,OrientationX (deg),OrientationY,OrientationZ,GyroX (20rad/sec),GyroY,GyroZ,Elbow_Pos (rad),Time (sec)
80.00,0.00,260.12,5.62,-94.12,0.25,-0.38,0.25,-0.02,1.00
80.00,1.00,23.31,-6.75,-47.00,0.00,0.44,-0.88,-0.02,1.02
80.00,2.00,250.00,-19.00,17.62,1.00,0.62,-0.38,-0.02,1.02
80.00,0.00,260.12,5.62,-94.12,0.12,-0.25,0.12,-0.03,1.02
80.00,1.00,23.31,-6.75,-47.00,0.00,0.44,-0.88,-0.03,1.02
80.00,2.00,250.00,-19.00,17.56,0.62,0.38,-0.19,-0.03,1.04
80.00,0.00,260.12,5.62,-94.12,-0.31,-0.25,-0.06,-0.04,1.04
80.00,1.00,23.31,-6.81,-47.00,0.12,0.69,-0.56,-0.04,1.04
80.00,2.00,250.00,-19.00,17.56,-0.25,-0.19,0.38,-0.04,1.06
80.00,0.00,260.12,5.62,-94.12,-0.56,-0.19,-0.06,-0.04,1.06
80.00,1.00,23.31,-6.81,-47.00,0.00,0.62,-0.06,-0.04,1.06
80.00,2.00,250.00,-19.00,17.56,-0.56,-0.56,0.44,-0.04,1.08
80.00,0.00,260.12,5.62,-94.12,-0.50,-0.38,-0.12,-0.04,1.08
80.00,1.00,23.31,-6.81,-47.00,-0.19,0.62,-0.25,-0.04,1.08
80.00,2.00,250.00,-19.00,17.56,-0.44,-0.31,0.25,-0.04,1.08
80.00,0.00,260.12,5.62,-94.12,-0.12,-0.56,-0.56,-0.06,1.10
80.00,1.00,23.31,-6.81,-47.00,-0.19,0.38,-0.38,-0.06,1.10
80.00,2.00,250.00,-19.00,17.56,0.56,0.19,-0.06,-0.06,1.10
80.00,0.00,260.12,5.62,-94.12,-0.25,-0.88,-0.81,-0.08,1.12
80.00,1.00,23.25,-6.81,-47.00,-0.31,0.50,-0.56,-0.08,1.12
80.00,2.00,250.00,-19.00,17.56,0.31,0.50,0.06,-0.08,1.12
80.00,0.00,260.12,5.62,-94.12,-0.19,-0.12,-0.69,-0.09,1.14
80.00,1.00,23.25,-6.81,-47.00,-0.44,0.38,-0.44,-0.09,1.14
80.00,2.00,250.00,-19.00,17.56,0.12,0.12,0.38,-0.09,1.14
80.00,0.00,260.12,5.62,-94.12,-0.38,-0.19,-0.50,-0.09,1.16
80.00,1.00,23.25,-6.81,-47.00,-0.12,0.19,-0.12,-0.09,1.16
80.00,2.00,250.00,-19.00,17.56,-0.31,-0.12,0.38,-0.09,1.16
80.00,0.00,260.12,5.62,-94.12,-0.31,-0.12,-0.06,-0.10,1.18
80.00,1.00,23.25,-6.81,-47.00,0.12,0.12,-0.19,-0.10,1.18
80.00,2.00,250.00,-19.00,17.56,-0.19,-0.31,0.25,-0.10,1.18
80.00,0.00,260.12,5.62,-94.12,-0.19,-0.12,-0.12,-0.12,1.20
80.00,1.00,23.25,-6.81,-47.00,0.19,-0.12,-0.50,-0.12,1.20
80.00,2.00,250.00,-19.00,17.56,0.44,0.25,0.31,-0.12,1.20
80.00,0.00,260.12,5.62,-94.12,0.06,-0.38,-0.25,-0.14,1.22
80.00,1.00,23.25,-6.81,-47.00,0.06,0.38,-0.56,-0.14,1.22
80.00,2.00,250.00,-19.00,17.56,0.62,0.69,0.12,-0.14,1.22
80.00,0.00,260.19,5.62,-94.12,-0.25,-1.12,-0.12,-0.17,1.24
80.00,1.00,23.25,-6.81,-47.00,-0.19,0.62,-0.12,-0.17,1.24
80.00,2.00,250.00,-19.06,17.56,0.69,0.88,0.06,-0.17,1.24
80.00,0.00,260.19,5.62,-94.12,-0.50,-1.50,0.06,-0.19,1.26
80.00,1.00,23.25,-6.81,-47.00,-0.44,0.88,-0.06,-0.19,1.26
80.00,2.00,250.00,-19.06,17.56,0.12,0.19,0.31,-0.19,1.26
80.00,0.00,260.25,5.62,-94.12,-0.44,-1.38,0.44,-0.22,1.28
80.00,1.00,23.25,-6.81,-47.06,-0.50,0.75,0.12,-0.22,1.28
80.00,2.00,249.94,-19.06,17.56,0.44,-0.25,0.81,-0.22,1.28
80.00,0.00,260.25,5.62,-94.12,-0.56,-1.56,0.81,-0.24,1.30
80.00,1.00,23.25,-6.81,-47.00,-0.94,1.00,0.50,-0.24,1.30
80.00,2.00,249.94,-19.06,17.56,0.12,0.31,0.81,-0.24,1.30
80.00,0.00,260.25,5.69,-94.19,0.00,-1.88,1.88,-0.20,1.32
80.00,1.00,23.25,-6.81,-47.00,-1.31,0.44,0.56,-0.20,1.32
80.00,2.00,249.94,-19.12,17.56,-1.31,0.38,1.44,-0.20,1.32
80.00,0.00,260.19,5.75,-94.25,2.00,-2.19,3.81,-0.10,1.34
80.00,1.00,23.25,-6.81,-47.00,-1.50,0.19,-0.19,-0.10,1.34
80.00,2.00,249.88,-19.12,17.56,-0.88,-0.88,1.69,-0.10,1.34
80.00,0.00,260.06,5.88,-94.38,4.50,-2.50,6.19,0.06,1.36
80.00,1.00,23.25,-6.81,-46.94,-1.25,0.75,-0.44,0.06,1.36
80.00,2.00,249.81,-19.12,17.56,-0.12,-1.19,1.81,0.06,1.36
80.00,0.00,259.88,6.06,-94.56,7.75,-1.12,9.50,0.33,1.38
80.00,1.00,23.25,-6.81,-46.94,-1.19,0.94,0.00,0.33,1.38
80.00,2.00,249.81,-19.12,17.56,-0.44,1.31,1.94,0.33,1.38
80.00,0.00,259.56,6.31,-94.75,10.12,2.62,12.69,0.75,1.40
80.00,1.00,23.19,-6.81,-46.94,-1.88,2.38,0.62,0.75,1.40
80.00,2.00,249.75,-19.19,17.56,-2.00,2.38,2.25,0.75,1.40
80.00,0.00,259.12,6.62,-95.00,13.12,7.25,15.06,1.31,1.42
80.00,1.00,23.19,-6.88,-46.88,-2.69,3.06,0.94,1.31,1.42
80.00,2.00,249.69,-19.25,17.56,-3.50,2.81,3.50,1.31,1.42
80.00,0.00,258.56,6.94,-95.25,17.38,10.00,17.94,2.09,1.44
80.00,1.00,23.12,-6.88,-46.81,-2.88,2.19,0.56,2.09,1.44
80.00,2.00,249.62,-19.31,17.69,-5.56,1.25,4.38,2.09,1.44
80.00,0.00,257.88,7.38,-95.69,22.88,10.56,21.94,3.09,1.46
80.00,1.00,23.12,-6.94,-46.75,-2.56,1.75,0.00,3.09,1.46
80.00,2.00,249.50,-19.38,17.75,-6.38,0.88,4.94,3.09,1.46
80.00,0.00,257.12,7.88,-96.19,29.94,9.50,25.88,4.24,1.48
80.00,1.00,23.12,-6.94,-46.75,-1.25,2.00,-0.75,4.24,1.48
80.00,2.00,249.38,-19.38,17.81,-3.88,0.12,4.81,4.24,1.48
80.00,0.00,256.31,8.44,-96.88,38.62,5.44,28.12,5.61,1.50
80.00,1.00,23.12,-7.00,-46.75,-0.25,2.62,-0.94,5.61,1.50
80.00,2.00,249.25,-19.44,17.81,-1.69,0.19,5.50,5.61,1.50
80.00,0.00,255.50,9.00,-97.75,45.75,3.62,29.62,7.20,1.52
80.00,1.00,23.12,-7.00,-46.75,-0.12,2.88,-0.69,7.20,1.52
80.00,2.00,249.12,-19.50,17.81,-1.06,0.19,7.56,7.20,1.52
80.00,0.00,254.75,9.56,-98.69,51.50,0.81,26.88,9.01,1.54
80.00,1.00,23.06,-7.06,-46.75,0.50,2.69,0.62,9.01,1.54
80.00,2.00,248.94,-19.56,17.75,-1.81,-0.19,9.81,9.01,1.54
80.00,0.00,254.06,10.06,-99.81,57.81,-0.31,26.75,11.04,1.56
80.00,1.00,23.00,-7.12,-46.75,0.56,2.62,1.12,11.04,1.56
80.00,2.00,248.75,-19.56,17.75,-1.75,-2.88,10.31,11.04,1.56
80.00,0.00,253.25,10.56,-101.00,62.31,2.06,26.56,13.21,1.58
80.00,1.00,23.00,-7.12,-46.75,2.12,2.62,1.69,13.21,1.58
80.00,2.00,248.50,-19.56,17.69,-1.62,-3.12,10.31,13.21,1.58
80.00,0.00,252.31,11.06,-102.31,66.88,7.06,26.81,15.46,1.60
80.00,1.00,22.94,-7.12,-46.81,2.06,3.31,1.75,15.46,1.60
80.00,2.00,248.31,-19.56,17.62,0.88,-4.12,11.81,15.46,1.60
80.00,0.00,251.12,11.69,-103.62,72.12,11.69,29.06,17.86,1.62
80.00,1.00,22.88,-7.12,-46.88,2.25,3.38,1.94,17.86,1.62
80.00,2.00,248.00,-19.56,17.50,1.50,-5.62,13.06,17.86,1.62
80.00,0.00,249.75,12.38,-105.12,77.75,13.19,33.31,20.38,1.64
80.00,1.00,22.81,-7.12,-46.94,3.25,3.56,3.00,20.38,1.64
80.00,2.00,247.75,-19.50,17.31,3.81,-6.50,15.12,20.38,1.64
80.00,0.00,248.38,13.06,-106.62,78.81,13.12,32.38,22.92,1.66
80.00,1.00,22.69,-7.12,-47.00,3.19,4.00,3.12,22.92,1.66
80.00,2.00,247.44,-19.50,17.12,4.00,-7.75,15.94,22.92,1.66
80.00,0.00,246.94,13.69,-108.12,77.81,12.25,31.50,25.39,1.68
80.00,1.00,22.62,-7.19,-47.06,3.38,4.69,3.88,25.39,1.68
80.00,2.00,247.12,-19.44,16.88,5.06,-9.12,16.44,25.39,1.68
80.00,0.00,246.19,14.00,-108.88,76.56,15.31,32.50,27.83,1.70
80.00,1.00,22.50,-7.19,-47.19,3.25,5.88,4.50,27.83,1.70
80.00,2.00,246.81,-19.38,16.69,4.94,-6.88,14.81,27.83,1.70
80.00,0.00,243.88,15.00,-111.00,75.12,14.75,31.12,30.20,1.72
80.00,1.00,22.38,-7.19,-47.25,3.00,6.06,4.62,30.20,1.72
80.00,2.00,246.50,-19.31,16.44,5.56,-8.31,17.56,30.20,1.72
80.00,0.00,242.31,15.62,-112.38,73.44,13.00,29.75,32.55,1.74
80.00,1.00,22.19,-7.19,-47.38,2.12,7.00,5.50,32.55,1.74
80.00,2.00,246.06,-19.25,16.19,4.31,-10.12,20.38,32.55,1.74
80.00,0.00,240.88,16.19,-113.75,70.44,11.94,28.56,34.81,1.76
80.00,1.00,22.00,-7.19,-47.44,1.62,7.44,5.81,34.81,1.76
80.00,2.00,245.62,-19.19,15.94,3.88,-11.81,21.00,34.81,1.76
80.00,0.00,240.12,16.50,-114.44,69.12,7.44,26.75,37.10,1.78
80.00,1.00,21.81,-7.19,-47.50,0.19,7.94,6.00,37.10,1.78
80.00,2.00,245.25,-19.06,15.69,1.94,-12.50,19.44,37.10,1.78
80.00,0.00,238.81,17.00,-115.81,67.00,4.38,25.31,39.38,1.80
80.00,1.00,21.62,-7.19,-47.50,-0.38,7.31,5.31,39.38,1.80
80.00,2.00,244.88,-18.94,15.56,-0.19,-12.25,17.19,39.38,1.80
80.00,0.00,237.56,17.44,-117.12,66.06,-0.75,22.12,41.64,1.82
80.00,1.00,21.50,-7.19,-47.56,-0.50,7.00,4.81,41.64,1.82
80.00,2.00,244.50,-18.75,15.44,-0.38,-13.06,15.94,41.64,1.82
80.00,0.00,236.50,17.81,-118.50,66.38,-3.06,21.56,43.90,1.84
80.00,1.00,21.38,-7.25,-47.56,-0.62,6.19,3.81,43.90,1.84
80.00,2.00,244.19,-18.56,15.31,0.00,-12.62,13.69,43.90,1.84
80.00,0.00,235.56,18.12,-119.81,64.69,-4.62,19.50,46.08,1.86
80.00,1.00,21.25,-7.25,-47.56,-1.06,5.12,3.06,46.08,1.86
80.00,2.00,243.94,-18.44,15.25,0.56,-10.75,12.75,46.08,1.86
80.00,0.00,234.56,18.38,-121.19,62.62,-4.56,17.69,48.16,1.88
80.00,1.00,21.12,-7.31,-47.56,-0.38,4.31,2.12,48.16,1.88
80.00,2.00,243.62,-18.31,15.12,1.38,-11.00,12.81,48.16,1.88
80.00,0.00,233.62,18.62,-122.44,61.81,-3.56,17.62,50.22,1.90
80.00,1.00,21.06,-7.31,-47.56,-0.69,3.75,2.06,50.22,1.90
80.00,2.00,243.38,-18.19,15.00,1.31,-11.81,13.06,50.22,1.90
80.00,0.00,232.56,18.88,-123.69,57.00,1.06,17.06,52.13,1.92
80.00,1.00,21.00,-7.31,-47.56,-0.31,3.25,2.38,52.13,1.92
80.00,2.00,243.12,-18.00,14.88,0.88,-13.44,11.81,52.13,1.92
80.00,0.00,231.38,19.19,-124.81,54.88,2.69,16.12,54.00,1.94
80.00,1.00,20.94,-7.31,-47.62,-0.88,3.12,2.50,54.00,1.94
80.00,2.00,242.88,-17.81,14.81,-0.06,-13.38,9.81,54.00,1.94
80.00,0.00,230.25,19.50,-125.88,50.00,6.00,15.19,55.70,1.96
80.00,1.00,20.88,-7.31,-47.56,-1.44,2.81,2.56,55.70,1.96
80.00,2.00,242.69,-17.62,14.69,0.06,-11.88,8.94,55.70,1.96
80.00,0.00,229.00,19.75,-126.88,45.56,7.31,13.06,57.21,1.98
80.00,1.00,20.81,-7.31,-47.56,-0.88,1.81,2.50,57.21,1.98
80.00,2.00,242.50,-17.44,14.62,1.06,-10.25,8.06,57.21,1.98
80.00,0.00,227.81,20.06,-127.75,43.62,7.62,12.62,58.71,2.00
80.00,1.00,20.69,-7.31,-47.56,-1.75,2.31,2.81,58.71,2.00
80.00,2.00,242.31,-17.31,14.56,-0.50,-9.75,6.75,58.71,2.00
80.00,0.00,226.75,20.31,-128.50,36.00,6.62,11.56,60.02,2.02
80.00,1.00,20.62,-7.31,-47.50,-2.62,2.88,3.38,60.02,2.02
80.00,2.00,242.12,-17.19,14.50,-2.56,-9.44,6.44,60.02,2.02
80.00,0.00,225.69,20.62,-129.19,34.69,6.12,12.62,61.31,2.04
80.00,1.00,20.50,-7.25,-47.50,-3.00,3.19,3.88,61.31,2.04
80.00,2.00,242.00,-17.00,14.50,-3.12,-10.62,5.44,61.31,2.04
80.00,0.00,224.69,20.88,-129.81,29.25,6.00,11.88,62.41,2.06
80.00,1.00,20.44,-7.25,-47.44,-2.88,3.38,3.56,62.41,2.06
80.00,2.00,241.88,-16.88,14.56,-3.12,-8.50,4.19,62.41,2.06
80.00,0.00,223.94,21.12,-130.19,25.19,6.69,11.31,63.39,2.08
80.00,1.00,20.31,-7.25,-47.38,-3.62,3.69,2.56,63.39,2.08
80.00,2.00,241.75,-16.75,14.56,-3.56,-6.06,3.81,63.39,2.08
80.00,0.00,223.19,21.31,-130.50,23.31,7.06,10.19,64.31,2.10
80.00,1.00,20.25,-7.25,-47.31,-4.19,3.88,2.25,64.31,2.10
80.00,2.00,241.69,-16.69,14.62,-3.75,-4.62,2.69,64.31,2.10
80.00,0.00,222.38,21.56,-130.94,21.69,5.56,9.12,65.19,2.12
80.00,1.00,20.19,-7.31,-47.25,-4.19,3.69,1.31,65.19,2.12
80.00,2.00,241.62,-16.56,14.69,-4.19,-8.75,1.88,65.19,2.12
80.00,0.00,221.69,21.75,-131.38,22.62,2.44,9.69,66.09,2.14
80.00,1.00,20.12,-7.38,-47.19,-4.00,3.44,0.31,66.09,2.14
80.00,2.00,241.56,-16.44,14.75,-3.88,-4.69,0.62,66.09,2.14
80.00,0.00,221.00,21.88,-131.94,24.38,-0.94,10.69,67.05,2.16
80.00,1.00,20.06,-7.38,-47.12,-3.81,2.50,-0.56,67.05,2.16
80.00,2.00,241.56,-16.38,14.88,-3.75,-5.25,-1.00,67.05,2.16
80.00,0.00,220.38,22.00,-132.44,24.44,-1.38,9.94,67.94,2.18
80.00,1.00,20.06,-7.44,-47.06,-3.62,0.94,-1.56,67.94,2.18
80.00,2.00,241.56,-16.25,14.94,-1.69,-4.62,-1.12,67.94,2.18
80.00,0.00,219.94,22.12,-132.94,23.44,-1.75,7.25,68.77,2.20
80.00,1.00,20.12,-7.44,-47.00,-2.62,0.56,-2.31,68.77,2.20
80.00,2.00,241.56,-16.12,14.94,-1.12,-5.75,-1.19,68.77,2.20
80.00,0.00,219.38,22.19,-133.44,23.81,-1.62,6.75,69.61,2.22
80.00,1.00,20.19,-7.50,-46.94,-2.12,0.00,-2.62,69.61,2.22
80.00,2.00,241.56,-16.06,14.94,-0.69,-5.75,-0.69,69.61,2.22
80.00,0.00,218.75,22.25,-134.00,24.56,-0.56,7.56,70.45,2.24
80.00,1.00,20.25,-7.50,-46.88,-1.56,-0.38,-2.50,70.45,2.24
80.00,2.00,241.56,-15.94,14.94,-0.19,-4.94,-0.75,70.45,2.24
80.00,0.00,218.12,22.38,-134.50,24.81,1.19,7.69,71.29,2.26
80.00,1.00,20.25,-7.56,-46.88,-1.81,-0.62,-2.44,71.29,2.26
80.00,2.00,241.56,-15.81,14.94,0.00,-5.50,-0.62,71.29,2.26
80.00,0.00,217.38,22.50,-135.00,25.06,2.56,7.38,72.13,2.28
80.00,1.00,20.31,-7.56,-46.81,-1.75,-0.56,-2.19,72.13,2.28
80.00,2.00,241.56,-15.69,14.94,0.38,-6.62,0.00,72.13,2.28
80.00,0.00,216.62,22.62,-135.50,24.00,3.88,5.94,72.93,2.30
80.00,1.00,20.38,-7.56,-46.75,-1.38,-0.94,-1.75,72.93,2.30
80.00,2.00,241.56,-15.62,14.94,0.56,-6.75,0.38,72.93,2.30
80.00,0.00,215.94,22.75,-135.88,22.62,5.25,4.31,73.69,2.32
80.00,1.00,20.38,-7.56,-46.75,-0.75,-0.56,-0.94,73.69,2.32
80.00,2.00,241.50,-15.44,14.88,0.19,-7.75,0.75,73.69,2.32
80.00,0.00,215.31,22.88,-136.25,20.00,5.62,2.88,74.37,2.34
80.00,1.00,20.38,-7.62,-46.75,-1.38,-0.25,-0.50,74.37,2.34
80.00,2.00,241.50,-15.31,14.88,0.12,-6.69,1.50,74.37,2.34
80.00,0.00,214.75,22.94,-136.56,18.44,5.06,2.81,75.00,2.36
80.00,1.00,20.38,-7.56,-46.69,-1.44,-0.06,-0.12,75.00,2.36
80.00,2.00,241.44,-15.19,14.88,-0.25,-7.31,1.81,75.00,2.36
80.00,0.00,214.12,23.06,-136.88,17.75,5.56,3.31,75.64,2.38
80.00,1.00,20.38,-7.56,-46.69,-1.38,0.50,-0.06,75.64,2.38
80.00,2.00,241.38,-15.12,14.88,-1.06,-6.25,1.94,75.64,2.38
80.00,0.00,213.56,23.19,-137.19,16.62,6.25,3.25,76.24,2.40
80.00,1.00,20.38,-7.56,-46.62,-1.50,0.50,0.25,76.24,2.40
80.00,2.00,241.31,-15.00,14.88,-1.06,-4.12,2.31,76.24,2.40
80.00,0.00,212.94,23.31,-137.38,14.25,7.44,1.31,76.76,2.42
80.00,1.00,20.38,-7.62,-46.62,-1.44,1.06,-0.06,76.76,2.42
80.00,2.00,241.25,-15.00,14.88,-0.81,-3.31,1.69,76.76,2.42
80.00,0.00,212.44,23.38,-137.50,12.81,6.81,-0.69,77.24,2.44
80.00,1.00,20.31,-7.62,-46.56,-1.44,1.31,0.06,77.24,2.44
80.00,2.00,241.25,-14.94,14.88,-1.31,-3.94,1.44,77.24,2.44
80.00,0.00,212.06,23.44,-137.69,12.25,7.12,0.50,77.69,2.46
80.00,1.00,20.31,-7.62,-46.56,-1.06,1.31,0.31,77.69,2.46
80.00,2.00,241.19,-14.88,14.88,-1.12,-3.56,1.81,77.69,2.46
80.00,0.00,211.62,23.56,-137.81,10.19,6.44,-0.38,78.07,2.48
80.00,1.00,20.31,-7.62,-46.56,-1.75,1.44,-0.12,78.07,2.48
80.00,2.00,241.12,-14.81,14.88,-1.00,-2.38,1.56,78.07,2.50
80.00,0.00,211.19,23.62,-137.94,9.50,5.31,-0.50,78.44,2.50
80.00,1.00,20.31,-7.69,-46.50,-1.25,1.19,-0.50,78.44,2.50
80.00,2.00,241.12,-14.81,14.88,-1.19,-2.00,0.94,78.44,2.50
80.00,0.00,210.81,23.69,-138.06,9.00,5.62,0.81,78.78,2.52
80.00,1.00,20.31,-7.69,-46.50,-1.44,1.00,-0.81,78.78,2.52
80.00,2.00,241.06,-14.75,14.94,-1.06,-1.44,1.19,78.78,2.52
80.00,0.00,210.44,23.75,-138.12,5.44,5.75,-0.38,79.00,2.54
80.00,1.00,20.31,-7.75,-46.44,-2.19,1.69,-1.31,79.00,2.54
80.00,2.00,241.06,-14.75,14.94,-1.12,1.06,0.94,79.00,2.54
80.00,0.00,210.25,23.81,-138.12,1.88,5.19,-3.06,79.10,2.56
80.00,1.00,20.31,-7.75,-46.38,-2.25,2.06,-1.12,79.10,2.56
80.00,2.00,241.00,-14.81,14.94,-1.00,0.69,1.44,79.10,2.56
80.00,0.00,210.19,23.81,-138.06,0.31,3.81,-3.62,79.14,2.58
80.00,1.00,20.31,-7.81,-46.38,-1.62,2.19,-0.44,79.14,2.58
80.00,2.00,241.00,-14.81,14.94,-0.94,-0.31,2.19,79.14,2.58
80.00,0.00,210.19,23.81,-138.00,-0.19,3.06,-2.94,79.19,2.60
80.00,1.00,20.31,-7.81,-46.38,-2.25,2.25,-0.06,79.19,2.60
80.00,2.00,240.94,-14.88,14.94,-1.69,1.25,2.25,79.19,2.60
80.00,0.00,210.12,23.81,-138.00,-1.12,3.31,-1.81,79.26,2.62
80.00,1.00,20.25,-7.88,-46.31,-2.94,3.00,0.19,79.26,2.62
80.00,2.00,240.88,-14.94,14.94,-3.06,2.75,2.31,79.26,2.62
80.00,0.00,210.12,23.81,-137.88,-2.56,2.00,-2.06,79.27,2.64
80.00,1.00,20.19,-7.88,-46.25,-2.88,3.69,0.31,79.27,2.64
80.00,2.00,240.81,-15.00,15.00,-2.94,3.38,2.25,79.27,2.64
80.00,0.00,210.25,23.81,-137.81,-3.19,0.25,-2.62,79.26,2.66
80.00,1.00,20.19,-7.94,-46.25,-3.12,4.12,0.31,79.26,2.66
80.00,2.00,240.81,-15.06,15.06,-2.94,4.19,2.25,79.26,2.66
80.00,0.00,210.38,23.75,-137.75,-4.00,-0.25,-2.88,79.23,2.68
80.00,1.00,20.12,-8.00,-46.19,-3.00,4.12,0.31,79.23,2.68
80.00,2.00,240.75,-15.19,15.06,-3.06,3.44,2.12,79.23,2.68
80.00,0.00,210.62,23.75,-137.62,-4.62,-0.12,-3.56,79.21,2.70
80.00,1.00,20.06,-8.06,-46.12,-3.31,3.75,0.31,79.21,2.70
80.00,2.00,240.69,-15.19,15.12,-4.12,2.50,1.94,79.21,2.70
80.00,0.00,210.75,23.69,-137.50,-3.44,0.06,-2.12,79.22,2.72
80.00,1.00,20.06,-8.06,-46.06,-3.12,3.44,0.31,79.22,2.72
80.00,2.00,240.69,-15.25,15.25,-3.75,2.62,1.50,79.22,2.72
80.00,0.00,210.81,23.69,-137.44,-3.69,0.75,-2.06,79.19,2.74
80.00,1.00,20.00,-8.12,-46.00,-2.50,3.12,-0.25,79.19,2.74
80.00,2.00,240.62,-15.31,15.25,-2.69,2.06,1.56,79.19,2.74
80.00,0.00,211.00,23.62,-137.31,-4.50,0.44,-3.19,79.12,2.76
80.00,1.00,20.00,-8.19,-46.00,-2.19,2.75,-0.25,79.12,2.76
80.00,2.00,240.62,-15.38,15.31,-2.31,1.94,1.12,79.12,2.76
80.00,0.00,211.19,23.62,-137.25,-4.75,-0.31,-3.31,79.04,2.78
80.00,1.00,19.94,-8.19,-45.94,-2.88,2.44,-0.50,79.04,2.78
80.00,2.00,240.62,-15.38,15.38,-2.62,2.19,0.50,79.04,2.78
80.00,0.00,211.44,23.56,-137.12,-3.31,-1.25,-2.19,79.02,2.80
80.00,1.00,19.94,-8.25,-45.88,-3.00,2.06,-0.88,79.02,2.80
80.00,2.00,240.62,-15.44,15.44,-2.56,2.38,0.19,79.02,2.80
80.00,0.00,211.56,23.50,-137.06,-2.81,-1.50,-2.19,79.02,2.82
80.00,1.00,19.94,-8.25,-45.81,-3.00,1.56,-0.81,79.02,2.82
80.00,2.00,240.62,-15.50,15.50,-2.94,1.38,-0.06,79.02,2.82
80.00,0.00,211.75,23.44,-137.06,-2.44,-2.12,-1.81,79.05,2.84
80.00,1.00,19.94,-8.31,-45.75,-3.44,1.38,-1.38,79.05,2.84
80.00,2.00,240.62,-15.50,15.56,-3.12,1.69,-0.25,79.05,2.84
80.00,0.00,211.94,23.38,-137.00,-2.25,-2.44,-1.75,79.08,2.86
80.00,1.00,20.00,-8.38,-45.69,-3.25,1.44,-1.50,79.08,2.86
80.00,2.00,240.62,-15.56,15.62,-3.19,1.56,-0.06,79.08,2.86
80.00,0.00,212.12,23.31,-136.94,-2.00,-3.19,-1.50,79.12,2.88
80.00,1.00,20.00,-8.38,-45.62,-3.44,1.38,-1.81,79.12,2.88
80.00,2.00,240.56,-15.56,15.62,-3.38,1.38,-0.44,79.12,2.88
80.00,0.00,212.31,23.25,-136.94,-1.88,-3.44,-0.81,79.17,2.90
80.00,1.00,20.00,-8.44,-45.56,-3.81,2.00,-1.88,79.17,2.90
80.00,2.00,240.56,-15.62,15.75,-3.19,2.06,-0.50,79.17,2.90
80.00,0.00,212.50,23.19,-136.94,-2.00,-3.75,-0.81,79.21,2.92
80.00,1.00,20.00,-8.50,-45.50,-3.94,2.25,-1.94,79.21,2.92
80.00,2.00,240.56,-15.62,15.75,-3.25,2.44,-0.19,79.21,2.92
80.00,0.00,212.69,23.12,-136.88,-1.94,-4.00,-0.94,79.24,2.94
80.00,1.00,20.00,-8.56,-45.44,-3.25,2.12,-1.75,79.24,2.94
80.00,2.00,240.56,-15.69,15.88,-2.88,2.44,-0.25,79.24,2.94
80.00,0.00,212.94,23.06,-136.88,-2.62,-2.94,-0.88,79.25,2.96
80.00,1.00,20.06,-8.62,-45.38,-3.44,1.94,-1.81,79.25,2.96
80.00,2.00,240.56,-15.75,15.94,-2.94,2.00,-0.19,79.25,2.96
80.00,0.00,213.12,23.06,-136.81,-2.75,-2.06,-0.56,79.24,2.98
80.00,1.00,20.06,-8.69,-45.31,-3.31,2.25,-1.88,79.24,2.98
80.00,2.00,240.56,-15.75,15.94,-2.44,1.75,0.00,79.24,2.98
80.00,0.00,213.38,23.00,-136.81,-2.62,-2.25,-0.69,79.26,3.00
80.00,1.00,20.06,-8.75,-45.25,-3.06,2.56,-1.56,79.26,3.00
80.00,2.00,240.56,-15.81,16.00,-3.06,1.56,0.12,79.26,3.00
80.00,0.00,213.50,23.00,-136.75,-2.62,-2.12,-0.88,79.26,3.02
80.00,1.00,20.06,-8.75,-45.19,-3.19,2.25,-1.38,79.26,3.02
80.00,2.00,240.56,-15.81,16.06,-2.75,1.62,0.38,79.26,3.02
80.00,0.00,213.69,22.94,-136.69,-2.31,-2.06,-0.88,79.27,3.04
80.00,1.00,20.06,-8.81,-45.12,-3.44,2.38,-1.31,79.27,3.04
80.00,2.00,240.56,-15.88,16.12,-2.50,2.00,0.25,79.27,3.04
80.00,0.00,213.88,22.88,-136.69,-2.12,-1.19,-0.69,79.28,3.06
80.00,1.00,20.06,-8.88,-45.06,-3.06,2.44,-1.19,79.28,3.06
80.00,2.00,240.56,-15.94,16.19,-2.50,1.69,0.75,79.28,3.06
80.00,0.00,213.88,22.88,-136.62,-1.81,-0.38,-0.38,79.31,3.08
80.00,1.00,20.06,-8.94,-45.00,-2.94,2.31,-1.06,79.31,3.08
80.00,2.00,240.50,-15.94,16.25,-2.50,1.25,1.25,79.31,3.08
80.00,0.00,214.00,22.88,-136.56,-1.94,0.69,-0.75,79.34,3.10
80.00,1.00,20.06,-9.00,-44.94,-3.25,3.00,-1.06,79.34,3.10
80.00,2.00,240.50,-16.00,16.25,-2.88,1.56,1.38,79.34,3.10
80.00,0.00,214.06,22.88,-136.56,-2.06,1.44,-1.06,79.35,3.12
80.00,1.00,20.06,-9.06,-44.88,-3.50,3.25,-0.62,79.35,3.12
80.00,2.00,240.44,-16.06,16.31,-2.56,1.12,1.88,79.35,3.12
80.00,0.00,214.06,22.88,-136.50,-2.00,2.06,-1.31,79.40,3.14
80.00,1.00,20.00,-9.06,-44.81,-2.88,3.38,0.00,79.40,3.14
80.00,2.00,240.44,-16.06,16.38,-3.25,0.31,2.44,79.40,3.14
80.00,0.00,214.06,22.88,-136.44,-2.19,1.75,-1.38,79.42,3.16
80.00,1.00,20.00,-9.12,-44.81,-3.00,3.44,-0.19,79.42,3.16
80.00,2.00,240.38,-16.06,16.44,-2.81,1.44,2.50,79.42,3.16
80.00,0.00,214.06,22.88,-136.38,-2.38,1.88,-1.94,79.40,3.18
80.00,1.00,19.94,-9.19,-44.75,-3.31,3.75,0.00,79.40,3.18
80.00,2.00,240.31,-16.12,16.44,-1.81,2.81,2.50,79.40,3.18
80.00,0.00,214.25,22.88,-136.25,-2.19,2.31,-2.56,79.41,3.20
80.00,1.00,19.88,-9.25,-44.69,-3.06,3.81,0.12,79.41,3.20
80.00,2.00,240.25,-16.19,16.50,-2.56,1.50,2.75,79.41,3.20
80.00,0.00,214.25,22.88,-136.19,-2.06,3.19,-2.69,79.44,3.22
80.00,1.00,19.88,-9.31,-44.62,-2.75,3.75,0.25,79.44,3.22
80.00,2.00,240.19,-16.25,16.50,-3.00,1.06,2.81,79.44,3.22
80.00,0.00,214.25,22.88,-136.12,-1.62,2.81,-2.69,79.49,3.24
80.00,1.00,19.81,-9.31,-44.56,-2.50,3.81,0.12,79.49,3.24
80.00,2.00,240.12,-16.31,16.56,-3.12,1.44,2.88,79.49,3.24
80.00,0.00,214.31,22.88,-136.06,-1.38,2.25,-2.94,79.56,3.26
80.00,1.00,19.81,-9.38,-44.56,-2.81,3.75,0.00,79.56,3.26
80.00,2.00,240.06,-16.31,16.62,-3.25,1.88,2.06,79.56,3.26
80.00,0.00,214.38,22.88,-136.00,-0.88,1.12,-3.88,79.62,3.28
80.00,1.00,19.75,-9.44,-44.50,-2.88,3.12,-0.38,79.62,3.28
80.00,2.00,240.06,-16.38,16.69,-2.69,2.44,1.81,79.62,3.28
80.00,0.00,214.38,22.81,-136.00,-1.06,0.38,-4.06,79.67,3.30
80.00,1.00,19.75,-9.50,-44.44,-2.44,3.12,-0.44,79.67,3.30
80.00,2.00,240.00,-16.44,16.69,-2.62,1.81,2.06,79.67,3.30
80.00,0.00,214.50,22.75,-135.94,-1.44,0.56,-3.94,79.73,3.32
80.00,1.00,19.69,-9.50,-44.44,-2.50,2.94,-0.38,79.73,3.32
80.00,2.00,239.94,-16.50,16.75,-3.12,1.44,1.75,79.73,3.32
80.00,0.00,214.56,22.69,-135.88,-1.69,0.94,-3.81,79.76,3.34
80.00,1.00,19.69,-9.56,-44.38,-3.25,2.94,-0.56,79.76,3.34
80.00,2.00,239.94,-16.56,16.81,-2.62,2.44,1.56,79.76,3.34
80.00,0.00,214.56,22.69,-135.81,-1.75,1.50,-3.88,79.82,3.36
80.00,1.00,19.62,-9.62,-44.31,-3.00,2.81,-0.31,79.82,3.36
80.00,2.00,239.88,-16.62,16.88,-3.31,1.81,1.88,79.82,3.36
80.00,0.00,214.69,22.62,-135.75,-2.06,1.88,-3.88,79.85,3.38
80.00,1.00,19.62,-9.62,-44.25,-3.38,2.38,0.06,79.85,3.38
80.00,2.00,239.88,-16.62,16.88,-3.12,1.38,1.56,79.85,3.38
80.00,0.00,214.69,22.62,-135.69,-2.88,2.62,-4.06,79.86,3.40
80.00,1.00,19.62,-9.69,-44.19,-3.44,2.25,0.25,79.86,3.40
80.00,2.00,239.81,-16.69,16.94,-3.25,1.00,1.94,79.86,3.40
80.00,0.00,214.88,22.56,-135.50,-4.25,1.88,-5.31,79.85,3.42
80.00,1.00,19.56,-9.69,-44.12,-3.50,2.38,0.50,79.85,3.42
80.00,2.00,239.75,-16.69,17.00,-3.81,0.62,1.81,79.85,3.42
80.00,0.00,214.94,22.56,-135.50,-3.31,-3.12,-4.06,79.89,3.44
80.00,1.00,19.56,-9.75,-44.06,-4.12,2.75,0.56,79.89,3.44
80.00,2.00,239.75,-16.75,17.06,-4.44,1.75,1.38,79.89,3.44
80.00,0.00,215.25,22.44,-135.44,-3.06,-4.62,-3.88,79.91,3.46
80.00,1.00,19.50,-9.75,-43.94,-4.06,2.81,0.50,79.91,3.46
80.00,2.00,239.69,-16.81,17.12,-3.75,3.00,1.25,79.91,3.46
80.00,0.00,215.56,22.31,-135.38,-3.94,-3.75,-3.88,79.91,3.48
80.00,1.00,19.50,-9.81,-43.88,-4.31,3.00,0.81,79.91,3.48
80.00,2.00,239.62,-16.88,17.19,-4.00,2.81,1.94,79.91,3.48
80.00,0.00,215.88,22.19,-135.25,-5.50,-2.38,-4.31,79.89,3.50
80.00,1.00,19.44,-9.88,-43.81,-4.38,3.31,0.81,79.89,3.50
80.00,2.00,239.62,-16.94,17.25,-4.81,2.19,2.00,79.89,3.50
80.00,0.00,216.19,22.12,-135.12,-6.50,-3.44,-5.06,79.86,3.52
80.00,1.00,19.38,-9.88,-43.75,-4.81,3.62,1.06,79.86,3.52
80.00,2.00,239.56,-17.00,17.38,-5.56,2.06,2.12,79.86,3.52
80.00,0.00,216.56,22.00,-135.00,-6.06,-7.06,-4.31,79.86,3.54
80.00,1.00,19.31,-9.94,-43.62,-5.00,3.75,1.25,79.86,3.54
80.00,2.00,239.50,-17.06,17.44,-6.06,1.62,1.56,79.86,3.54
80.00,0.00,217.06,21.81,-134.94,-5.81,-7.56,-4.06,79.86,3.56
80.00,1.00,19.25,-9.94,-43.56,-5.00,3.44,1.25,79.86,3.56
80.00,2.00,239.44,-17.06,17.56,-5.88,2.19,1.50,79.86,3.56
80.00,0.00,217.56,21.62,-134.88,-4.56,-8.25,-2.88,79.91,3.58
80.00,1.00,19.19,-10.00,-43.50,-4.75,3.38,1.25,79.91,3.58
80.00,2.00,239.44,-17.12,17.69,-5.94,2.38,1.25,79.91,3.58
80.00,0.00,218.00,21.50,-134.81,-4.31,-7.81,-2.94,79.99,3.60
80.00,1.00,19.12,-10.00,-43.38,-5.12,3.12,0.88,79.99,3.60
80.00,2.00,239.44,-17.19,17.81,-6.88,3.06,0.56,79.99,3.60
80.00,0.00,218.50,21.38,-134.75,-3.94,-6.88,-2.62,80.06,3.62
80.00,1.00,19.06,-10.06,-43.31,-5.31,3.38,0.31,80.06,3.62
80.00,2.00,239.38,-17.25,17.94,-5.94,4.06,-0.44,80.06,3.62
80.00,0.00,218.88,21.25,-134.69,-4.00,-5.56,-2.12,80.11,3.64
80.00,1.00,19.06,-10.12,-43.19,-4.50,2.94,0.31,80.11,3.64
80.00,2.00,239.38,-17.31,18.06,-5.31,2.25,-0.12,80.11,3.64
80.00,0.00,219.31,21.12,-134.62,-3.94,-4.62,-1.81,80.16,3.66
80.00,1.00,19.06,-10.12,-43.19,-4.44,2.31,-0.12,80.16,3.66
80.00,2.00,239.38,-17.38,18.19,-5.38,2.00,0.25,80.16,3.66
80.00,0.00,219.56,21.06,-134.56,-3.12,-1.50,-0.31,80.20,3.68
80.00,1.00,19.00,-10.19,-43.06,-3.19,1.69,-0.06,80.20,3.68
80.00,2.00,239.38,-17.38,18.25,-4.38,2.19,0.12,80.20,3.68
80.00,0.00,219.62,21.06,-134.50,-2.81,-0.75,0.19,80.17,3.70
80.00,1.00,19.00,-10.19,-43.06,-1.38,1.00,-0.06,80.17,3.70
80.00,2.00,239.38,-17.44,18.31,-2.06,-0.12,-0.12,80.17,3.70
80.00,0.00,219.62,21.12,-134.44,-1.56,2.12,2.25,80.10,3.72
80.00,1.00,19.00,-10.19,-43.00,0.19,-0.50,-0.31,80.10,3.72
80.00,2.00,239.38,-17.38,18.31,0.50,-0.75,0.00,80.10,3.72
80.00,0.00,219.50,21.19,-134.38,-0.88,3.56,3.19,79.99,3.74
80.00,1.00,19.00,-10.19,-42.94,2.00,-1.19,-0.12,79.99,3.74
80.00,2.00,239.38,-17.38,18.38,2.38,-1.19,0.00,79.99,3.74
80.00,0.00,219.31,21.31,-134.31,-0.44,4.12,3.81,79.84,3.76
80.00,1.00,19.06,-10.19,-42.88,3.12,-1.88,-0.06,79.84,3.76
80.00,2.00,239.38,-17.38,18.44,4.12,-1.50,-0.12,79.84,3.76
80.00,0.00,219.06,21.44,-134.25,0.50,5.69,4.81,79.65,3.78
80.00,1.00,19.06,-10.19,-42.81,5.00,-2.94,0.12,79.65,3.78
80.00,2.00,239.44,-17.38,18.44,6.00,-3.25,-0.50,79.65,3.78
80.00,0.00,218.62,21.69,-134.25,1.38,8.31,5.56,79.45,3.80
80.00,1.00,19.12,-10.12,-42.81,6.19,-3.50,0.06,79.45,3.80
80.00,2.00,239.44,-17.31,18.31,7.38,-4.19,-0.31,79.45,3.80
80.00,0.00,218.31,21.88,-134.25,2.50,10.75,6.12,79.27,3.82
80.00,1.00,19.19,-10.06,-42.88,6.44,-3.62,0.12,79.27,3.82
80.00,2.00,239.44,-17.25,18.19,7.75,-4.31,0.00,79.27,3.82
80.00,0.00,217.69,22.12,-134.25,3.56,11.06,6.50,79.13,3.84
80.00,1.00,19.25,-10.00,-43.00,7.25,-3.88,0.56,79.13,3.84
80.00,2.00,239.44,-17.19,18.06,7.56,-4.62,-0.12,79.13,3.84
80.00,0.00,217.06,22.38,-134.31,4.62,11.56,6.81,79.03,3.86
80.00,1.00,19.25,-9.94,-43.06,7.56,-3.69,0.88,79.03,3.86
80.00,2.00,239.44,-17.12,17.94,7.69,-3.88,0.25,79.03,3.86
80.00,0.00,216.38,22.62,-134.38,5.56,11.69,7.75,78.94,3.88
80.00,1.00,19.25,-9.88,-43.19,8.12,-3.25,1.06,78.94,3.88
80.00,2.00,239.50,-17.06,17.81,8.00,-3.56,0.56,78.94,3.88
80.00,0.00,215.69,22.88,-134.50,6.38,11.75,8.81,78.86,3.90
80.00,1.00,19.31,-9.81,-43.31,8.62,-2.81,1.25,78.86,3.90
80.00,2.00,239.50,-17.00,17.62,8.94,-3.75,0.50,78.86,3.90
80.00,0.00,215.06,23.19,-134.56,6.88,10.81,9.50,78.77,3.92
80.00,1.00,19.31,-9.75,-43.50,9.19,-2.81,1.19,78.77,3.92
80.00,2.00,239.50,-16.94,17.44,9.31,-3.00,0.44,78.77,3.92
80.00,0.00,214.38,23.44,-134.69,7.00,10.12,9.12,78.68,3.94
80.00,1.00,19.31,-9.69,-43.75,9.94,-3.12,1.50,78.68,3.94
80.00,2.00,239.50,-16.88,17.25,9.62,-3.19,0.25,78.68,3.94
80.00,0.00,213.69,23.69,-134.88,8.38,9.31,9.69,78.61,3.96
80.00,1.00,19.31,-9.62,-43.88,10.25,-4.38,1.25,78.61,3.96
80.00,2.00,239.56,-16.81,17.06,10.44,-4.12,-0.44,78.61,3.96
80.00,0.00,213.06,23.88,-135.00,7.31,8.75,8.62,78.49,3.98
80.00,1.00,19.38,-9.56,-44.06,10.75,-5.12,0.69,78.49,3.98
80.00,2.00,239.56,-16.75,16.88,10.88,-4.75,-1.12,78.49,3.98
