Iteration,IMUNo,OrientationX (deg),OrientationY,OrientationZ,GyroX (20rad/sec),GyroY,GyroZ,Elbow_Pos (rad),Time (sec)
21.00,0.00,261.06,1.88,-103.69,0.44,1.12,-0.88,0.01,1.02
21.00,1.00,329.38,-2.12,-53.50,0.62,-2.00,0.44,0.01,1.02
21.00,2.00,320.94,-26.38,19.31,0.19,-0.62,-0.31,0.01,1.02
21.00,0.00,261.06,1.88,-103.75,1.06,2.12,-0.31,0.04,1.04
21.00,1.00,329.44,-2.12,-53.50,0.38,-1.75,0.62,0.04,1.04
21.00,2.00,320.94,-26.38,19.31,0.25,-1.12,-0.12,0.04,1.04
21.00,0.00,261.00,1.88,-103.75,1.00,2.56,0.38,0.06,1.06
21.00,1.00,329.44,-2.06,-53.44,0.19,-1.00,0.81,0.06,1.06
21.00,2.00,320.94,-26.38,19.31,0.31,-1.62,-0.12,0.06,1.06
21.00,0.00,260.88,1.94,-103.75,1.06,2.25,1.06,0.08,1.08
21.00,1.00,329.38,-2.06,-53.44,0.25,-0.62,0.94,0.08,1.08
21.00,2.00,320.94,-26.31,19.31,0.38,-1.31,0.12,0.08,1.08
21.00,0.00,260.81,1.94,-103.81,0.62,1.31,1.44,0.12,1.10
21.00,1.00,329.38,-2.06,-53.44,-0.50,-0.69,1.12,0.12,1.10
21.00,2.00,320.94,-26.31,19.31,-0.44,-1.44,0.50,0.12,1.10
21.00,0.00,260.81,1.94,-103.81,0.38,1.19,1.12,0.17,1.12
21.00,1.00,329.38,-2.00,-53.44,-0.31,0.00,1.25,0.17,1.12
21.00,2.00,320.88,-26.25,19.31,-0.94,-1.69,0.62,0.17,1.12
21.00,0.00,260.75,2.00,-103.81,0.06,0.69,1.50,0.19,1.14
21.00,1.00,329.31,-2.00,-53.44,-0.88,0.19,1.25,0.19,1.14
21.00,2.00,320.88,-26.25,19.31,-0.69,-1.44,0.62,0.19,1.14
21.00,0.00,260.69,2.00,-103.81,-0.25,1.00,1.50,0.23,1.16
21.00,1.00,329.31,-2.00,-53.44,-0.75,0.31,1.44,0.23,1.16
21.00,2.00,320.88,-26.25,19.38,-1.31,-1.69,0.44,0.23,1.16
21.00,0.00,260.62,2.06,-103.81,-0.75,1.44,1.38,0.27,1.18
21.00,1.00,329.25,-1.94,-53.44,-1.00,0.81,1.44,0.27,1.18
21.00,2.00,320.81,-26.19,19.38,-2.00,-1.88,1.00,0.27,1.18
21.00,0.00,260.56,2.06,-103.75,-1.38,2.44,1.38,0.28,1.20
21.00,1.00,329.25,-1.94,-53.38,-1.50,0.38,1.38,0.28,1.20
21.00,2.00,320.81,-26.19,19.38,-1.44,-1.62,0.88,0.28,1.20
21.00,0.00,260.50,2.12,-103.75,-1.69,2.12,1.31,0.27,1.22
21.00,1.00,329.19,-1.94,-53.38,-1.19,1.06,1.62,0.27,1.22
21.00,2.00,320.75,-26.12,19.44,-1.62,-1.12,0.69,0.27,1.22
21.00,0.00,260.44,2.12,-103.69,-2.06,1.62,0.69,0.26,1.24
21.00,1.00,329.19,-1.94,-53.31,-1.69,0.75,1.69,0.26,1.24
21.00,2.00,320.75,-26.12,19.44,-1.75,-0.75,0.56,0.26,1.24
21.00,0.00,260.38,2.19,-103.69,-2.31,1.50,0.31,0.27,1.26
21.00,1.00,329.12,-1.88,-53.31,-1.94,0.94,1.81,0.27,1.26
21.00,2.00,320.75,-26.12,19.50,-2.56,-0.38,0.44,0.27,1.26
21.00,0.00,260.38,2.19,-103.62,-2.81,0.75,-0.50,0.27,1.28
21.00,1.00,329.06,-1.88,-53.25,-2.31,0.81,1.44,0.27,1.28
21.00,2.00,320.75,-26.12,19.56,-2.88,0.12,0.31,0.27,1.28
21.00,0.00,260.31,2.19,-103.56,-2.88,0.69,-0.69,0.27,1.30
21.00,1.00,329.06,-1.88,-53.19,-2.38,0.81,1.62,0.27,1.30
21.00,2.00,320.75,-26.12,19.56,-2.75,0.25,0.25,0.27,1.30
21.00,0.00,260.38,2.12,-103.50,-2.94,0.50,-1.00,0.26,1.32
21.00,1.00,329.00,-1.88,-53.19,-2.31,0.81,1.25,0.26,1.32
21.00,2.00,320.69,-26.12,19.62,-2.75,0.75,0.25,0.26,1.32
21.00,0.00,260.38,2.12,-103.44,-2.94,0.44,-1.38,0.25,1.34
21.00,1.00,329.00,-1.81,-53.12,-1.69,0.88,1.06,0.25,1.34
21.00,2.00,320.69,-26.19,19.69,-2.56,0.88,0.25,0.25,1.34
21.00,0.00,260.38,2.12,-103.38,-2.94,0.44,-1.38,0.23,1.36
21.00,1.00,328.94,-1.81,-53.12,-1.38,0.94,0.69,0.23,1.36
21.00,2.00,320.69,-26.19,19.75,-2.38,0.81,0.38,0.23,1.36
21.00,0.00,260.44,2.06,-103.31,-2.56,1.00,-1.25,0.22,1.38
21.00,1.00,328.94,-1.88,-53.06,-1.38,0.81,0.31,0.22,1.38
21.00,2.00,320.69,-26.19,19.81,-2.25,0.56,0.38,0.22,1.38
21.00,0.00,260.44,2.06,-103.31,-1.94,1.25,-1.25,0.20,1.40
21.00,1.00,328.94,-1.88,-53.06,-1.12,0.19,0.19,0.20,1.40
21.00,2.00,320.69,-26.19,19.81,-1.38,0.19,0.12,0.20,1.40
21.00,0.00,260.38,2.06,-103.25,-1.75,1.69,-1.12,0.17,1.42
21.00,1.00,328.94,-1.88,-53.06,-0.69,-0.12,0.38,0.17,1.42
21.00,2.00,320.69,-26.19,19.81,-0.75,0.12,-0.25,0.17,1.42
21.00,0.00,260.38,2.06,-103.25,-1.50,1.75,-0.69,0.12,1.44
21.00,1.00,328.94,-1.88,-53.06,-0.50,-0.38,0.69,0.12,1.44
21.00,2.00,320.69,-26.19,19.81,-0.31,-0.31,-0.12,0.12,1.44
21.00,0.00,260.38,2.06,-103.19,-1.31,2.00,-0.44,0.10,1.46
21.00,1.00,328.94,-1.81,-53.06,-0.12,-0.69,1.00,0.10,1.46
21.00,2.00,320.69,-26.19,19.81,-0.62,-0.81,0.12,0.10,1.46
21.00,0.00,260.31,2.06,-103.19,-0.75,2.44,0.31,0.10,1.48
21.00,1.00,328.94,-1.81,-53.06,-0.56,-0.94,1.12,0.10,1.48
21.00,2.00,320.69,-26.12,19.88,-0.69,-1.19,0.00,0.10,1.48
21.00,0.00,260.19,2.06,-103.19,-0.56,2.75,0.81,0.10,1.50
21.00,1.00,328.88,-1.75,-53.06,-0.31,-1.00,1.44,0.10,1.50
21.00,2.00,320.69,-26.12,19.88,-0.69,-2.06,-0.06,0.10,1.50
21.00,0.00,260.12,2.12,-103.19,-0.44,2.88,1.12,0.15,1.52
21.00,1.00,328.88,-1.75,-53.06,-0.75,-1.12,1.44,0.15,1.52
21.00,2.00,320.62,-26.06,19.88,-1.88,-2.50,0.00,0.15,1.52
21.00,0.00,260.00,2.12,-103.19,-0.31,2.88,1.56,0.21,1.54
21.00,1.00,328.88,-1.69,-53.00,-0.69,-1.31,1.25,0.21,1.54
21.00,2.00,320.62,-26.00,19.94,-2.06,-2.62,0.56,0.21,1.54
21.00,0.00,259.94,2.19,-103.19,0.25,3.25,1.75,0.29,1.56
21.00,1.00,328.88,-1.69,-53.00,-0.56,-0.94,0.94,0.29,1.56
21.00,2.00,320.62,-26.00,19.94,-2.06,-2.56,0.62,0.29,1.56
21.00,0.00,259.81,2.25,-103.12,0.12,2.94,1.81,0.33,1.58
21.00,1.00,328.81,-1.62,-53.00,-0.62,-0.56,1.00,0.33,1.58
21.00,2.00,320.56,-25.94,19.94,-1.06,-2.19,0.50,0.33,1.58
21.00,0.00,259.69,2.25,-103.12,0.31,2.06,1.62,0.38,1.60
21.00,1.00,328.81,-1.62,-53.00,-0.50,-0.56,1.62,0.38,1.60
21.00,2.00,320.56,-25.88,19.94,-0.88,-2.06,0.44,0.38,1.60
21.00,0.00,259.62,2.31,-103.12,-0.06,1.56,1.50,0.41,1.62
21.00,1.00,328.81,-1.62,-53.00,0.12,-0.38,1.69,0.41,1.62
21.00,2.00,320.56,-25.88,20.00,-1.12,-2.19,0.75,0.41,1.62
21.00,0.00,259.56,2.38,-103.12,-0.19,1.38,1.50,0.45,1.64
21.00,1.00,328.75,-1.56,-52.94,-0.06,-0.38,1.62,0.45,1.64
21.00,2.00,320.50,-25.81,20.00,-1.12,-1.75,0.69,0.45,1.64
21.00,0.00,259.50,2.38,-103.12,0.00,1.06,1.25,0.48,1.66
21.00,1.00,328.75,-1.56,-52.94,-0.19,-0.06,1.38,0.48,1.66
21.00,2.00,320.50,-25.81,20.00,-1.12,-1.50,0.56,0.48,1.66
21.00,0.00,259.44,2.44,-103.12,-0.19,1.56,0.94,0.51,1.68
21.00,1.00,328.69,-1.50,-52.94,-0.38,-0.38,1.00,0.51,1.68
21.00,2.00,320.50,-25.81,20.00,-1.00,-1.00,0.25,0.51,1.68
21.00,0.00,259.44,2.44,-103.12,-0.38,1.19,0.31,0.53,1.70
21.00,1.00,328.69,-1.50,-52.88,-0.44,-0.31,1.00,0.53,1.70
21.00,2.00,320.50,-25.75,20.00,-0.75,-1.06,0.19,0.53,1.70
21.00,0.00,259.44,2.44,-103.12,-0.75,0.50,0.12,0.53,1.72
21.00,1.00,328.62,-1.44,-52.88,-0.31,-0.12,0.94,0.53,1.72
21.00,2.00,320.50,-25.75,20.06,-0.75,-0.62,0.25,0.53,1.72
21.00,0.00,259.44,2.44,-103.12,-1.00,0.31,0.06,0.53,1.74
21.00,1.00,328.62,-1.44,-52.88,-0.62,0.19,0.94,0.53,1.74
21.00,2.00,320.50,-25.75,20.06,-1.06,0.12,0.12,0.53,1.74
21.00,0.00,259.44,2.44,-103.12,-1.31,-0.12,0.06,0.52,1.76
21.00,1.00,328.62,-1.44,-52.88,-0.50,0.44,1.12,0.52,1.76
21.00,2.00,320.50,-25.75,20.06,-1.00,0.00,-0.06,0.52,1.76
21.00,0.00,259.44,2.44,-103.06,-1.56,-0.12,-0.19,0.49,1.78
21.00,1.00,328.56,-1.44,-52.81,-0.50,0.50,1.31,0.49,1.78
21.00,2.00,320.44,-25.75,20.12,-0.88,-0.12,0.00,0.49,1.78
21.00,0.00,259.44,2.44,-103.00,-2.00,0.38,-0.12,0.46,1.80
21.00,1.00,328.56,-1.38,-52.81,-0.56,0.56,1.69,0.46,1.80
21.00,2.00,320.44,-25.75,20.12,-1.12,-0.62,-0.12,0.46,1.80
21.00,0.00,259.38,2.44,-103.00,-2.12,0.94,0.25,0.42,1.82
21.00,1.00,328.50,-1.38,-52.81,-0.19,0.81,1.69,0.42,1.82
21.00,2.00,320.44,-25.75,20.12,-0.94,-0.62,0.56,0.42,1.82
21.00,0.00,259.38,2.44,-102.94,-2.31,1.00,0.62,0.38,1.84
21.00,1.00,328.44,-1.31,-52.81,0.19,1.19,2.12,0.38,1.84
21.00,2.00,320.44,-25.69,20.12,-1.19,-1.31,0.88,0.38,1.84
21.00,0.00,259.31,2.44,-102.88,-2.06,1.75,0.81,0.35,1.86
21.00,1.00,328.44,-1.31,-52.81,0.06,0.81,2.38,0.35,1.86
21.00,2.00,320.38,-25.69,20.19,-1.25,-1.25,1.06,0.35,1.86
21.00,0.00,259.25,2.50,-102.88,-1.69,2.38,0.75,0.34,1.88
21.00,1.00,328.38,-1.31,-52.75,0.06,0.50,2.31,0.34,1.88
21.00,2.00,320.38,-25.69,20.19,-1.38,-1.50,1.44,0.34,1.88
21.00,0.00,259.19,2.50,-102.81,-1.31,2.94,0.62,0.36,1.90
21.00,1.00,328.31,-1.25,-52.75,0.19,0.12,1.75,0.36,1.90
21.00,2.00,320.31,-25.69,20.19,-1.69,-1.38,1.69,0.36,1.90
21.00,0.00,259.12,2.50,-102.81,-0.50,3.25,0.69,0.39,1.92
21.00,1.00,328.31,-1.25,-52.75,0.12,0.12,1.19,0.39,1.92
21.00,2.00,320.25,-25.62,20.19,-1.38,-1.50,1.56,0.39,1.92
21.00,0.00,259.00,2.56,-102.81,0.38,3.44,0.62,0.43,1.94
21.00,1.00,328.25,-1.19,-52.75,0.00,-0.19,0.81,0.43,1.94
21.00,2.00,320.25,-25.62,20.19,-0.88,-1.56,1.31,0.43,1.94
21.00,0.00,258.94,2.56,-102.81,1.12,2.12,0.69,0.48,1.96
21.00,1.00,328.25,-1.19,-52.75,0.12,-0.19,0.69,0.48,1.96
21.00,2.00,320.19,-25.62,20.19,-0.31,-1.19,1.00,0.48,1.96
21.00,0.00,258.88,2.56,-102.88,1.81,1.69,0.50,0.55,1.98
21.00,1.00,328.25,-1.19,-52.75,0.44,-0.38,0.38,0.55,1.98
21.00,2.00,320.19,-25.62,20.19,-0.25,-1.19,0.56,0.55,1.98
21.00,0.00,258.88,2.56,-102.88,1.94,1.00,-0.12,0.62,2.00
21.00,1.00,328.25,-1.19,-52.69,0.25,-0.94,0.06,0.62,2.00
21.00,2.00,320.19,-25.56,20.19,-0.06,-0.94,0.38,0.62,2.00
21.00,0.00,258.81,2.56,-102.94,1.81,0.81,-0.25,0.66,2.02
21.00,1.00,328.25,-1.19,-52.69,0.62,-1.06,0.00,0.66,2.02
21.00,2.00,320.19,-25.56,20.19,0.69,-0.50,-0.19,0.66,2.02
21.00,0.00,258.81,2.56,-103.00,1.75,0.31,-0.19,0.70,2.04
21.00,1.00,328.25,-1.19,-52.69,0.62,-0.44,0.06,0.70,2.04
21.00,2.00,320.19,-25.56,20.19,0.50,0.38,-0.12,0.70,2.04
21.00,0.00,258.81,2.56,-103.00,1.38,-0.06,0.00,0.75,2.06
21.00,1.00,328.25,-1.19,-52.69,0.75,-0.12,0.12,0.75,2.06
21.00,2.00,320.19,-25.62,20.19,0.06,0.94,0.00,0.75,2.06
21.00,0.00,258.81,2.56,-103.00,1.12,0.88,0.25,0.79,2.08
21.00,1.00,328.25,-1.19,-52.69,0.62,-0.12,0.38,0.79,2.08
21.00,2.00,320.19,-25.62,20.25,-0.12,0.81,0.31,0.79,2.08
21.00,0.00,258.81,2.62,-103.00,0.44,1.44,0.31,0.80,2.10
21.00,1.00,328.25,-1.12,-52.69,0.75,0.00,0.31,0.80,2.10
21.00,2.00,320.19,-25.62,20.25,0.19,0.81,0.56,0.80,2.10
21.00,0.00,258.75,2.62,-103.00,-0.56,1.62,0.38,0.78,2.12
21.00,1.00,328.25,-1.12,-52.69,1.12,0.50,0.56,0.78,2.12
21.00,2.00,320.19,-25.62,20.19,0.06,-0.19,1.31,0.78,2.12
21.00,0.00,258.69,2.62,-103.00,-0.94,1.50,0.69,0.77,2.14
21.00,1.00,328.25,-1.12,-52.75,1.06,0.81,0.94,0.77,2.14
21.00,2.00,320.19,-25.62,20.19,-0.62,-0.38,1.56,0.77,2.14
21.00,0.00,258.69,2.62,-103.00,-1.12,1.31,0.62,0.78,2.16
21.00,1.00,328.19,-1.12,-52.75,0.62,1.44,1.31,0.78,2.16
21.00,2.00,320.12,-25.69,20.19,-1.38,-0.44,1.88,0.78,2.16
21.00,0.00,258.62,2.62,-102.94,-1.25,1.69,0.69,0.80,2.18
21.00,1.00,328.12,-1.12,-52.75,0.38,1.81,1.44,0.80,2.18
21.00,2.00,320.06,-25.69,20.25,-1.75,-1.06,1.94,0.80,2.18
21.00,0.00,258.56,2.69,-102.94,-0.81,2.31,0.75,0.84,2.20
21.00,1.00,328.12,-1.12,-52.75,0.25,2.06,2.00,0.84,2.20
21.00,2.00,320.00,-25.62,20.25,-2.12,-2.00,2.50,0.84,2.20
21.00,0.00,258.44,2.69,-102.94,-0.50,3.38,0.94,0.89,2.22
21.00,1.00,328.00,-1.12,-52.75,0.12,1.94,2.38,0.89,2.22
21.00,2.00,319.94,-25.62,20.25,-1.81,-1.88,2.56,0.89,2.22
21.00,0.00,258.31,2.75,-102.94,0.06,4.31,1.00,0.92,2.24
21.00,1.00,327.94,-1.06,-52.75,-0.12,2.25,2.81,0.92,2.24
21.00,2.00,319.88,-25.62,20.25,-0.94,-2.44,2.56,0.92,2.24
21.00,0.00,258.12,2.81,-102.94,0.62,5.25,1.38,1.00,2.26
21.00,1.00,327.88,-1.06,-52.75,0.38,2.12,3.44,1.00,2.26
21.00,2.00,319.81,-25.56,20.25,-1.69,-5.06,3.50,1.00,2.26
21.00,0.00,257.88,2.94,-103.00,1.44,8.12,2.50,1.14,2.28
21.00,1.00,327.81,-1.00,-52.69,0.12,1.19,3.38,1.14,2.28
21.00,2.00,319.69,-25.50,20.25,-2.62,-7.50,4.38,1.14,2.28
21.00,0.00,257.56,3.00,-103.00,2.25,11.62,3.50,1.30,2.30
21.00,1.00,327.75,-1.00,-52.75,0.75,0.38,3.44,1.30,2.30
21.00,2.00,319.56,-25.38,20.19,-2.38,-9.31,4.81,1.30,2.30
21.00,0.00,257.06,3.19,-103.12,3.81,13.69,4.75,1.47,2.32
21.00,1.00,327.62,-0.94,-52.75,1.12,-0.25,4.00,1.47,2.32
21.00,2.00,319.44,-25.25,20.19,-0.94,-8.56,4.62,1.47,2.32
21.00,0.00,256.62,3.38,-103.25,5.69,14.31,5.19,1.68,2.34
21.00,1.00,327.56,-0.88,-52.75,1.62,0.25,4.75,1.68,2.34
21.00,2.00,319.31,-25.12,20.12,-0.31,-9.06,4.50,1.68,2.34
21.00,0.00,256.12,3.56,-103.38,7.06,13.06,5.38,1.95,2.36
21.00,1.00,327.44,-0.75,-52.81,2.62,-0.81,5.62,1.95,2.36
21.00,2.00,319.19,-24.94,20.00,-0.69,-11.12,5.69,1.95,2.36
21.00,0.00,255.69,3.75,-103.50,7.44,13.19,6.12,2.29,2.38
21.00,1.00,327.31,-0.62,-52.88,3.25,-2.25,7.69,2.29,2.38
21.00,2.00,319.00,-24.75,19.94,-2.44,-15.19,7.62,2.29,2.38
21.00,0.00,255.19,3.94,-103.62,8.19,16.12,7.44,2.71,2.40
21.00,1.00,327.19,-0.44,-52.94,3.50,-2.50,8.25,2.71,2.40
21.00,2.00,318.69,-24.50,19.81,-3.94,-18.88,9.56,2.71,2.40
21.00,0.00,254.56,4.19,-103.81,9.75,19.69,9.25,3.27,2.42
21.00,1.00,327.00,-0.25,-53.06,3.62,-1.88,9.69,3.27,2.42
21.00,2.00,318.38,-24.19,19.75,-6.19,-21.69,11.00,3.27,2.42
21.00,0.00,253.75,4.50,-104.00,13.06,22.75,11.94,3.96,2.44
21.00,1.00,326.81,-0.06,-53.12,3.94,-2.06,10.19,3.96,2.44
21.00,2.00,318.06,-23.88,19.69,-6.75,-23.75,11.81,3.96,2.44
21.00,0.00,252.88,4.88,-104.31,17.25,23.19,13.75,4.79,2.46
21.00,1.00,326.62,0.06,-53.19,2.38,-3.12,10.00,4.79,2.46
21.00,2.00,317.69,-23.50,19.62,-6.75,-24.00,12.06,4.79,2.46
21.00,0.00,251.94,5.25,-104.75,19.25,22.50,14.56,5.69,2.48
21.00,1.00,326.50,0.25,-53.25,2.75,-4.12,9.75,5.69,2.48
21.00,2.00,317.38,-23.12,19.62,-6.56,-27.69,11.94,5.69,2.48
21.00,0.00,251.00,5.69,-105.12,21.19,24.44,15.81,6.59,2.50
21.00,1.00,326.38,0.50,-53.31,2.69,-5.31,10.00,6.59,2.50
21.00,2.00,317.00,-22.62,19.56,-4.81,-30.38,11.62,6.59,2.50
21.00,0.00,250.50,5.94,-105.38,24.38,24.19,17.12,7.55,2.52
21.00,1.00,326.25,0.69,-53.38,2.50,-5.19,9.81,7.55,2.52
21.00,2.00,316.69,-22.19,19.44,-3.12,-30.88,12.06,7.55,2.52
21.00,0.00,248.88,6.62,-106.12,28.50,24.12,19.00,8.66,2.54
21.00,1.00,326.06,0.88,-53.44,3.00,-4.75,9.62,8.66,2.54
21.00,2.00,316.31,-21.62,19.31,-3.38,-32.88,13.00,8.66,2.54
21.00,0.00,247.81,7.12,-106.81,31.94,23.06,20.00,9.78,2.56
21.00,1.00,325.94,1.12,-53.50,3.81,-4.50,9.69,9.78,2.56
21.00,2.00,315.94,-21.12,19.19,-0.19,-33.88,13.62,9.78,2.56
21.00,0.00,247.25,7.38,-107.19,34.50,21.62,20.69,10.94,2.58
21.00,1.00,325.81,1.31,-53.56,3.75,-3.94,9.94,10.94,2.58
21.00,2.00,315.56,-20.62,18.94,1.00,-33.81,14.69,10.94,2.58
21.00,0.00,245.56,8.19,-108.31,35.44,23.38,20.88,12.17,2.60
21.00,1.00,325.62,1.50,-53.62,3.69,-3.69,9.81,12.17,2.60
21.00,2.00,315.12,-20.06,18.75,0.19,-34.50,15.44,12.17,2.60
21.00,0.00,244.94,8.44,-108.69,37.38,25.81,22.06,13.49,2.62
21.00,1.00,325.44,1.69,-53.69,2.69,-2.94,10.44,13.49,2.62
21.00,2.00,314.75,-19.56,18.56,-0.69,-34.31,16.62,13.49,2.62
21.00,0.00,243.06,9.25,-109.75,39.19,25.12,22.50,14.91,2.64
21.00,1.00,325.31,1.88,-53.75,2.06,-1.50,10.25,14.91,2.64
21.00,2.00,314.25,-19.06,18.44,-1.44,-33.94,17.44,14.91,2.64
21.00,0.00,242.38,9.56,-110.12,41.38,23.12,22.38,16.40,2.66
21.00,1.00,325.06,2.06,-53.75,1.94,0.00,10.88,16.40,2.66
21.00,2.00,313.81,-18.56,18.25,-1.44,-30.75,18.50,16.40,2.66
21.00,0.00,241.06,10.12,-110.88,41.19,20.25,19.56,17.89,2.68
21.00,1.00,324.81,2.19,-53.81,1.25,2.00,12.75,17.89,2.68
21.00,2.00,313.38,-18.19,18.12,-1.88,-27.81,19.50,17.89,2.68
21.00,0.00,240.06,10.50,-111.69,40.06,17.94,16.50,19.44,2.70
21.00,1.00,324.50,2.38,-53.81,1.75,2.75,13.88,19.44,2.70
21.00,2.00,312.88,-17.75,18.00,-4.44,-27.62,20.50,19.44,2.70
21.00,0.00,239.12,10.81,-112.44,39.12,18.12,15.25,20.98,2.72
21.00,1.00,324.25,2.56,-53.88,1.06,3.44,11.75,20.98,2.72
21.00,2.00,312.38,-17.44,17.94,-5.19,-26.88,21.38,20.98,2.72
21.00,0.00,238.19,11.19,-113.12,38.31,17.12,14.44,22.53,2.74
21.00,1.00,324.00,2.69,-53.81,-1.38,4.31,10.12,22.53,2.74
21.00,2.00,311.88,-17.06,17.88,-6.25,-24.81,21.62,22.53,2.74
21.00,0.00,237.25,11.50,-113.81,36.88,17.75,12.69,24.12,2.76
21.00,1.00,323.75,2.75,-53.75,-3.38,5.06,9.94,24.12,2.76
21.00,2.00,311.31,-16.75,17.81,-8.75,-23.75,21.81,24.12,2.76
21.00,0.00,236.31,11.81,-114.50,35.81,18.31,11.69,25.76,2.78
21.00,1.00,323.56,2.88,-53.69,-3.38,5.44,10.12,25.76,2.78
21.00,2.00,310.81,-16.44,17.81,-11.38,-23.75,21.69,25.76,2.78
21.00,0.00,235.38,12.12,-115.06,34.06,18.81,10.38,27.35,2.80
21.00,1.00,323.31,2.94,-53.62,-5.12,5.94,10.00,27.35,2.80
21.00,2.00,310.31,-16.19,17.94,-11.56,-21.00,20.56,27.35,2.80
21.00,0.00,234.50,12.44,-115.69,32.81,18.12,8.38,28.88,2.82
21.00,1.00,323.06,3.06,-53.50,-5.94,5.56,9.25,28.88,2.82
21.00,2.00,309.81,-15.94,18.00,-11.06,-20.31,19.62,28.88,2.82
21.00,0.00,233.50,12.69,-116.25,32.94,18.69,8.38,30.41,2.84
21.00,1.00,322.88,3.12,-53.38,-6.31,5.12,8.12,30.41,2.84
21.00,2.00,309.38,-15.69,18.06,-11.06,-20.19,18.62,30.41,2.84
21.00,0.00,232.56,13.00,-116.81,31.94,18.94,8.12,31.93,2.86
21.00,1.00,322.69,3.19,-53.25,-6.19,4.56,7.75,31.93,2.86
21.00,2.00,308.94,-15.44,18.19,-11.94,-19.69,18.19,31.93,2.86
21.00,0.00,231.62,13.31,-117.31,30.69,19.00,7.44,33.44,2.88
21.00,1.00,322.50,3.19,-53.12,-7.06,4.25,7.56,33.44,2.88
21.00,2.00,308.50,-15.19,18.31,-12.69,-18.50,17.62,33.44,2.88
21.00,0.00,230.62,13.62,-117.81,27.75,22.56,7.06,34.90,2.90
21.00,1.00,322.31,3.25,-53.00,-7.31,3.88,7.38,34.90,2.90
21.00,2.00,308.06,-14.94,18.44,-14.00,-19.31,16.75,34.90,2.90
21.00,0.00,229.56,13.94,-118.25,26.25,23.69,6.38,36.27,2.92
21.00,1.00,322.12,3.38,-52.81,-8.06,3.25,7.25,36.27,2.92
21.00,2.00,307.62,-14.69,18.62,-13.31,-19.25,16.50,36.27,2.92
21.00,0.00,228.50,14.25,-118.56,24.06,24.94,6.38,37.57,2.94
21.00,1.00,322.00,3.44,-52.69,-7.00,2.44,6.31,37.57,2.94
21.00,2.00,307.25,-14.44,18.81,-13.25,-20.69,15.94,37.57,2.94
21.00,0.00,227.50,14.56,-118.88,23.50,24.19,6.50,38.80,2.96
21.00,1.00,321.88,3.50,-52.56,-5.69,1.25,6.38,38.80,2.96
21.00,2.00,306.81,-14.12,18.94,-11.81,-20.81,14.88,38.80,2.96
21.00,0.00,226.50,14.81,-119.12,22.38,24.50,6.25,39.94,2.98
21.00,1.00,321.75,3.56,-52.44,-5.69,0.62,7.00,39.94,2.98
21.00,2.00,306.50,-13.88,19.06,-10.56,-19.69,13.19,39.94,2.98
21.00,0.00,225.56,15.12,-119.31,18.50,23.56,4.75,40.99,3.00
21.00,1.00,321.62,3.69,-52.31,-7.19,0.12,6.81,40.99,3.00
21.00,2.00,306.19,-13.62,19.19,-11.62,-19.31,12.19,40.99,3.02
21.00,0.00,224.56,15.44,-119.56,17.81,22.62,4.88,42.07,3.02
21.00,1.00,321.50,3.75,-52.12,-8.38,-0.81,6.25,42.07,3.02
21.00,2.00,305.88,-13.31,19.38,-13.25,-18.06,11.38,42.07,3.02
21.00,0.00,223.62,15.69,-119.88,17.69,20.69,5.25,43.22,3.04
21.00,1.00,321.44,3.88,-52.00,-9.50,-1.75,5.44,43.22,3.04
21.00,2.00,305.56,-13.06,19.62,-15.31,-17.38,10.19,43.22,3.04
21.00,0.00,222.81,15.94,-120.06,16.12,18.25,5.44,44.32,3.06
21.00,1.00,321.31,4.00,-51.75,-9.50,-2.62,5.06,44.32,3.06
21.00,2.00,305.31,-12.81,19.88,-15.50,-15.81,8.81,44.32,3.06
21.00,0.00,222.19,16.19,-120.12,11.44,18.81,4.31,45.23,3.08
21.00,1.00,321.31,4.06,-51.56,-10.31,-3.38,4.12,45.23,3.08
21.00,2.00,305.06,-12.56,20.12,-14.56,-16.00,7.75,45.23,3.08
21.00,0.00,221.62,16.38,-120.12,9.75,16.25,3.62,46.09,3.10
21.00,1.00,321.25,4.19,-51.38,-11.12,-3.00,2.94,46.09,3.10
21.00,2.00,304.81,-12.38,20.38,-15.19,-14.12,6.25,46.09,3.10
21.00,0.00,220.94,16.56,-120.31,11.00,14.19,5.19,47.02,3.12
21.00,1.00,321.25,4.25,-51.12,-11.62,-2.94,3.06,47.02,3.12
21.00,2.00,304.62,-12.19,20.69,-15.69,-12.06,5.75,47.02,3.12
21.00,0.00,220.31,16.81,-120.44,9.69,11.25,5.31,47.93,3.14
21.00,1.00,321.25,4.31,-50.88,-12.50,-3.31,2.88,47.93,3.14
21.00,2.00,304.50,-12.00,21.00,-16.38,-11.69,5.31,47.93,3.14
21.00,0.00,219.81,17.00,-120.56,6.88,10.81,4.69,48.79,3.16
21.00,1.00,321.25,4.44,-50.62,-13.50,-4.31,3.06,48.79,3.16
21.00,2.00,304.31,-11.75,21.25,-17.75,-12.94,5.00,48.79,3.16
21.00,0.00,219.44,17.19,-120.62,5.56,10.88,4.62,49.56,3.18
21.00,1.00,321.19,4.56,-50.31,-12.94,-5.19,3.25,49.56,3.18
21.00,2.00,304.12,-11.56,21.56,-16.75,-12.88,3.81,49.56,3.18
21.00,0.00,218.94,17.38,-120.62,5.62,10.62,6.19,50.32,3.20
21.00,1.00,321.19,4.62,-50.06,-12.62,-5.62,3.44,50.32,3.20
21.00,2.00,304.00,-11.38,21.88,-16.06,-12.12,3.06,50.32,3.20
21.00,0.00,218.44,17.56,-120.69,5.50,9.56,6.81,51.04,3.22
21.00,1.00,321.19,4.75,-49.75,-12.25,-4.62,3.12,51.04,3.22
21.00,2.00,303.88,-11.12,22.19,-15.25,-13.44,0.56,51.04,3.22
21.00,0.00,218.12,17.75,-120.69,7.62,8.62,8.12,51.86,3.24
21.00,1.00,321.19,4.88,-49.50,-12.06,-4.44,2.19,51.86,3.24
21.00,2.00,303.81,-10.94,22.62,-15.88,-10.25,2.31,51.86,3.24
21.00,0.00,217.62,18.00,-120.75,8.31,7.25,8.75,52.68,3.26
21.00,1.00,321.19,4.94,-49.19,-11.88,-4.31,1.25,52.68,3.26
21.00,2.00,303.69,-10.75,22.94,-15.44,-9.62,2.25,52.68,3.26
21.00,0.00,217.25,18.19,-120.88,8.44,5.19,8.19,53.46,3.28
21.00,1.00,321.25,5.06,-48.88,-11.25,-5.00,0.25,53.46,3.28
21.00,2.00,303.62,-10.62,23.25,-13.88,-9.25,1.50,53.46,3.28
21.00,0.00,216.94,18.31,-120.94,8.06,4.56,8.06,54.14,3.30
21.00,1.00,321.31,5.12,-48.62,-10.12,-4.94,-0.06,54.14,3.30
21.00,2.00,303.56,-10.44,23.44,-11.56,-8.50,0.12,54.14,3.30
21.00,0.00,216.62,18.44,-121.06,8.50,2.19,9.06,54.82,3.32
21.00,1.00,321.38,5.19,-48.38,-10.44,-5.25,0.12,54.82,3.32
21.00,2.00,303.50,-10.31,23.75,-11.06,-8.31,-0.12,54.82,3.32
21.00,0.00,216.31,18.62,-121.25,8.38,1.25,9.81,55.50,3.34
21.00,1.00,321.38,5.25,-48.12,-10.38,-4.88,0.19,55.50,3.34
21.00,2.00,303.44,-10.12,24.00,-11.06,-8.19,-0.25,55.50,3.34
21.00,0.00,216.06,18.75,-121.38,8.31,0.50,10.06,56.18,3.36
21.00,1.00,321.44,5.38,-47.88,-10.12,-4.69,0.88,56.18,3.36
21.00,2.00,303.38,-10.00,24.31,-11.25,-7.81,-0.25,56.18,3.36
21.00,0.00,215.88,18.94,-121.44,6.56,1.12,9.38,56.84,3.38
21.00,1.00,321.44,5.44,-47.69,-9.56,-5.00,-0.12,56.84,3.38
21.00,2.00,303.38,-9.81,24.62,-12.44,-8.12,0.31,56.84,3.38
21.00,0.00,215.69,19.06,-121.44,4.50,1.50,7.56,57.42,3.40
21.00,1.00,321.56,5.50,-47.44,-10.25,-4.50,-2.38,57.42,3.40
21.00,2.00,303.31,-9.69,25.00,-12.12,-7.12,-0.12,57.42,3.40
21.00,0.00,215.56,19.12,-121.44,5.25,1.31,5.81,58.03,3.42
21.00,1.00,321.62,5.56,-47.19,-10.75,-4.56,-3.94,58.03,3.42
21.00,2.00,303.31,-9.56,25.38,-12.44,-5.44,-0.62,58.03,3.42
21.00,0.00,215.44,19.25,-121.50,8.31,0.31,7.06,58.73,3.44
21.00,1.00,321.75,5.50,-46.94,-10.56,-4.38,-3.94,58.73,3.44
21.00,2.00,303.31,-9.44,25.75,-11.88,-3.56,-1.94,58.73,3.44
21.00,0.00,215.25,19.31,-121.62,7.06,0.25,6.88,59.32,3.46
21.00,1.00,321.88,5.56,-46.62,-9.62,-5.19,-3.25,59.32,3.46
21.00,2.00,303.31,-9.38,26.06,-9.69,-4.25,-3.25,59.32,3.46
21.00,0.00,215.25,19.44,-121.75,3.06,0.19,4.62,59.71,3.48
21.00,1.00,322.00,5.56,-46.38,-9.25,-6.00,-2.56,59.71,3.48
21.00,2.00,303.38,-9.31,26.31,-8.12,-4.62,-3.69,59.71,3.48
21.00,0.00,215.12,19.50,-121.81,1.69,0.12,3.62,60.06,3.50
21.00,1.00,322.12,5.62,-46.12,-8.31,-6.31,-1.38,60.06,3.50
21.00,2.00,303.38,-9.19,26.56,-8.50,-5.94,-3.12,60.06,3.50
21.00,0.00,215.00,19.56,-121.88,3.62,1.19,5.81,60.49,3.52
21.00,1.00,322.19,5.69,-45.88,-7.44,-6.50,-0.69,60.49,3.52
21.00,2.00,303.38,-9.12,26.69,-8.75,-6.31,-2.88,60.49,3.52
21.00,0.00,214.75,19.69,-121.94,1.75,3.19,5.38,60.80,3.54
21.00,1.00,322.25,5.75,-45.69,-6.31,-6.44,-0.12,60.80,3.54
21.00,2.00,303.44,-9.00,27.00,-7.06,-5.00,-3.31,60.80,3.54
21.00,0.00,214.62,19.75,-121.81,-2.62,4.19,1.81,60.92,3.56
21.00,1.00,322.31,5.88,-45.50,-5.81,-6.06,-0.25,60.92,3.56
21.00,2.00,303.50,-8.88,27.12,-6.06,-4.69,-3.56,60.92,3.56
21.00,0.00,214.56,19.81,-121.69,-2.75,4.44,0.62,61.06,3.58
21.00,1.00,322.38,5.94,-45.38,-5.62,-5.94,-0.56,61.06,3.58
21.00,2.00,303.50,-8.81,27.25,-6.81,-5.75,-3.75,61.06,3.58
21.00,0.00,214.44,19.88,-121.69,-0.19,1.31,2.00,61.29,3.60
21.00,1.00,322.38,6.00,-45.25,-5.25,-5.75,-0.75,61.29,3.60
21.00,2.00,303.56,-8.56,27.50,-6.75,-4.44,-4.56,61.29,3.60
21.00,0.00,214.44,19.94,-121.75,2.50,-3.31,5.19,61.53,3.62
21.00,1.00,322.44,6.12,-45.12,-4.38,-5.06,-0.62,61.53,3.62
21.00,2.00,303.62,-8.50,27.62,-4.56,-1.94,-4.94,61.53,3.62
21.00,0.00,214.44,20.00,-121.75,-0.75,-1.38,4.12,61.67,3.64
21.00,1.00,322.50,6.19,-45.00,-4.94,-5.00,-0.69,61.67,3.64
21.00,2.00,303.75,-8.44,27.75,-4.69,-1.81,-4.38,61.67,3.64
21.00,0.00,214.44,20.00,-121.75,-2.31,-3.00,2.81,61.79,3.66
21.00,1.00,322.56,6.25,-44.88,-4.75,-4.50,-0.25,61.79,3.66
21.00,2.00,303.81,-8.38,27.94,-5.88,-2.44,-3.94,61.79,3.66
21.00,0.00,214.50,20.06,-121.75,-1.94,-0.94,3.31,61.94,3.68
21.00,1.00,322.56,6.25,-44.81,-4.12,-4.62,0.00,61.94,3.68
21.00,2.00,303.88,-8.25,28.06,-6.06,-2.69,-4.19,61.94,3.68
21.00,0.00,214.38,20.12,-121.69,-1.00,2.12,3.62,62.05,3.70
21.00,1.00,322.62,6.38,-44.69,-3.75,-4.38,-0.31,62.05,3.70
21.00,2.00,303.94,-8.19,28.19,-4.38,0.00,-5.00,62.05,3.70
21.00,0.00,214.25,20.19,-121.69,-1.12,1.62,3.44,62.11,3.72
21.00,1.00,322.62,6.44,-44.62,-3.31,-4.06,-1.00,62.11,3.72
21.00,2.00,304.00,-8.12,28.31,-2.75,0.06,-4.19,62.11,3.72
21.00,0.00,214.19,20.25,-121.69,-1.25,0.50,3.38,62.14,3.74
21.00,1.00,322.69,6.44,-44.56,-3.06,-3.50,-1.38,62.14,3.74
21.00,2.00,304.06,-8.12,28.38,-2.06,0.25,-4.12,62.14,3.74
21.00,0.00,214.19,20.31,-121.62,-0.88,-0.31,3.50,62.15,3.76
21.00,1.00,322.75,6.50,-44.44,-2.19,-2.94,-0.88,62.15,3.76
21.00,2.00,304.19,-8.06,28.44,-1.12,-0.38,-4.00,62.15,3.76
21.00,0.00,214.12,20.38,-121.62,-1.12,-0.12,3.06,62.16,3.78
21.00,1.00,322.81,6.50,-44.38,-1.44,-2.19,-0.44,62.16,3.78
21.00,2.00,304.19,-8.06,28.44,-1.56,-0.88,-3.50,62.16,3.78
21.00,0.00,214.06,20.44,-121.62,-1.00,2.06,2.19,62.15,3.80
21.00,1.00,322.81,6.56,-44.38,-0.31,-2.31,-0.56,62.15,3.80
21.00,2.00,304.31,-8.00,28.56,-0.62,-1.50,-3.25,62.15,3.80
21.00,0.00,213.94,20.44,-121.56,-0.62,1.56,2.00,62.12,3.82
21.00,1.00,322.81,6.62,-44.31,0.44,-2.25,-1.19,62.12,3.82
21.00,2.00,304.38,-7.94,28.56,0.31,-1.50,-2.62,62.12,3.82
21.00,0.00,213.88,20.50,-121.56,0.62,1.69,2.44,62.09,3.84
21.00,1.00,322.88,6.62,-44.31,1.31,-1.69,-1.38,62.09,3.84
21.00,2.00,304.38,-7.88,28.56,1.56,-1.81,-2.00,62.09,3.84
21.00,0.00,213.75,20.56,-121.62,2.06,2.44,3.19,62.06,3.86
21.00,1.00,322.88,6.62,-44.31,2.38,-1.12,-1.38,62.06,3.86
21.00,2.00,304.44,-7.81,28.56,2.69,-1.88,-1.88,62.06,3.86
21.00,0.00,213.56,20.69,-121.69,2.62,2.88,2.81,62.05,3.88
21.00,1.00,322.94,6.62,-44.38,3.00,-1.00,-1.31,62.05,3.88
21.00,2.00,304.44,-7.81,28.56,2.88,-2.88,-1.12,62.05,3.88
21.00,0.00,213.38,20.75,-121.75,3.62,2.94,2.44,62.07,3.90
21.00,1.00,322.94,6.62,-44.44,3.75,-0.81,-0.75,62.07,3.90
21.00,2.00,304.44,-7.75,28.44,3.06,-2.00,-0.31,62.07,3.90
21.00,0.00,213.25,20.81,-121.81,4.38,3.00,1.88,62.11,3.92
21.00,1.00,322.94,6.62,-44.50,4.62,-0.75,-0.69,62.11,3.92
21.00,2.00,304.44,-7.69,28.44,3.31,-2.19,0.25,62.11,3.92
21.00,0.00,213.12,20.81,-121.88,5.50,2.00,1.56,62.17,3.94
21.00,1.00,322.94,6.62,-44.56,4.88,-0.25,-0.62,62.17,3.94
21.00,2.00,304.44,-7.62,28.38,3.81,-1.88,0.62,62.17,3.94
21.00,0.00,213.00,20.81,-122.00,6.19,1.06,0.81,62.23,3.96
21.00,1.00,322.94,6.62,-44.62,5.62,0.25,-0.62,62.23,3.96
21.00,2.00,304.44,-7.62,28.31,4.50,-0.88,0.62,62.23,3.96
21.00,0.00,213.00,20.81,-122.06,5.81,-1.25,-0.31,62.21,3.98
21.00,1.00,322.94,6.62,-44.69,5.56,0.06,-0.94,62.21,3.98
21.00,2.00,304.44,-7.62,28.25,6.44,0.00,0.44,62.21,3.98
21.00,0.00,213.12,20.69,-122.12,4.94,-3.50,-1.06,62.15,4.00
21.00,1.00,322.94,6.62,-44.81,6.75,0.75,-0.50,62.15,4.00
21.00,2.00,304.44,-7.62,28.12,6.50,0.25,0.81,62.15,4.00
21.00,0.00,213.31,20.62,-122.19,3.19,-4.31,-2.56,62.04,4.02
21.00,1.00,322.94,6.62,-44.94,7.50,1.00,-0.19,62.04,4.02
21.00,2.00,304.44,-7.62,28.00,6.31,0.75,1.06,62.04,4.02
