Iteration,IMUNo,OrientationX (deg),OrientationY,OrientationZ,GyroX (20rad/sec),GyroY,GyroZ,Elbow_Pos (rad),Time (sec)
54.00,0.00,264.94,7.25,-104.75,1.19,3.12,1.06,0.04,1.00
54.00,1.00,319.50,-2.25,-52.88,-0.19,0.12,2.44,0.04,1.02
54.00,2.00,302.69,-25.06,18.69,0.19,-2.38,1.00,0.04,1.02
54.00,0.00,264.81,7.25,-104.81,1.81,3.31,1.00,0.10,1.02
54.00,1.00,319.44,-2.19,-52.88,0.19,0.00,2.38,0.10,1.02
54.00,2.00,302.69,-25.06,18.69,0.25,-1.94,1.06,0.10,1.02
54.00,0.00,264.75,7.31,-104.81,2.06,2.94,0.88,0.17,1.04
54.00,1.00,319.38,-2.12,-52.88,-0.19,0.25,2.00,0.17,1.04
54.00,2.00,302.69,-25.00,18.69,0.06,-1.62,0.94,0.17,1.04
54.00,0.00,264.69,7.31,-104.81,1.88,2.19,0.62,0.28,1.06
54.00,1.00,319.38,-2.12,-52.88,-0.44,-0.19,1.56,0.28,1.06
54.00,2.00,302.69,-25.00,18.69,-1.06,-1.56,0.81,0.28,1.06
54.00,0.00,264.62,7.31,-104.88,1.75,1.62,0.56,0.41,1.08
54.00,1.00,319.38,-2.06,-52.81,-1.44,-0.62,0.56,0.41,1.08
54.00,2.00,302.62,-25.00,18.69,-1.69,-1.44,0.56,0.41,1.08
54.00,0.00,264.56,7.38,-104.88,1.81,1.12,0.44,0.54,1.10
54.00,1.00,319.38,-2.06,-52.81,-3.06,-0.38,-1.00,0.54,1.10
54.00,2.00,302.62,-24.94,18.75,-1.56,-0.81,-0.31,0.54,1.10
54.00,0.00,264.50,7.38,-104.94,1.69,0.94,0.50,0.68,1.12
54.00,1.00,319.38,-2.12,-52.75,-3.12,-0.12,-1.88,0.68,1.12
54.00,2.00,302.62,-24.94,18.81,-2.25,0.44,-1.00,0.68,1.12
54.00,0.00,264.50,7.38,-104.94,0.75,-0.31,0.19,0.79,1.14
54.00,1.00,319.44,-2.12,-52.69,-2.69,0.12,-2.38,0.79,1.14
54.00,2.00,302.69,-24.94,18.88,-2.06,1.44,-1.69,0.79,1.14
54.00,0.00,264.56,7.31,-104.94,-0.88,-1.06,-0.50,0.74,1.16
54.00,1.00,319.50,-2.19,-52.62,-1.44,0.00,-2.38,0.74,1.16
54.00,2.00,302.69,-24.94,18.94,0.31,1.62,-1.75,0.74,1.16
54.00,0.00,264.62,7.31,-104.94,-1.31,-1.75,-0.94,0.66,1.18
54.00,1.00,319.50,-2.19,-52.62,-0.44,0.12,-1.69,0.66,1.18
54.00,2.00,302.75,-25.00,18.94,1.00,2.06,-1.56,0.66,1.18
54.00,0.00,264.69,7.25,-104.88,-3.00,-3.75,-1.19,0.50,1.20
54.00,1.00,319.50,-2.19,-52.62,0.44,0.56,-0.88,0.50,1.20
54.00,2.00,302.81,-25.00,18.94,1.12,2.25,-1.38,0.50,1.20
54.00,0.00,264.88,7.25,-104.81,-3.00,-4.00,-1.19,0.37,1.22
54.00,1.00,319.50,-2.25,-52.62,0.69,0.44,-0.56,0.37,1.22
54.00,2.00,302.81,-25.06,18.94,0.69,1.81,-1.31,0.37,1.22
54.00,0.00,265.00,7.19,-104.75,-3.19,-3.44,-1.25,0.21,1.24
54.00,1.00,319.56,-2.25,-52.62,0.31,0.44,-0.88,0.21,1.24
54.00,2.00,302.88,-25.06,18.94,1.06,1.69,-1.38,0.21,1.24
54.00,0.00,265.06,7.12,-104.69,-2.62,-2.69,-1.00,0.06,1.26
54.00,1.00,319.56,-2.25,-52.56,0.62,0.19,-1.06,0.06,1.26
54.00,2.00,302.88,-25.06,18.94,1.25,1.00,-1.12,0.06,1.26
54.00,0.00,265.19,7.12,-104.69,-2.31,-2.44,-0.81,-0.07,1.28
54.00,1.00,319.56,-2.25,-52.56,0.69,0.31,-1.06,-0.07,1.28
54.00,2.00,302.94,-25.12,18.94,1.12,0.88,-1.12,-0.07,1.28
54.00,0.00,265.25,7.12,-104.62,-1.50,-1.81,-0.44,-0.17,1.30
54.00,1.00,319.56,-2.25,-52.62,0.75,0.25,-0.69,-0.17,1.30
54.00,2.00,302.94,-25.12,18.94,1.31,0.69,-0.75,-0.17,1.30
54.00,0.00,265.25,7.12,-104.62,-0.56,-1.56,0.00,-0.26,1.32
54.00,1.00,319.62,-2.25,-52.62,0.50,0.25,-0.56,-0.26,1.32
54.00,2.00,303.00,-25.12,18.94,1.75,0.69,-0.75,-0.26,1.32
54.00,0.00,265.31,7.12,-104.62,0.12,-1.19,-0.06,-0.30,1.34
54.00,1.00,319.62,-2.25,-52.56,0.31,0.38,-0.31,-0.30,1.34
54.00,2.00,303.00,-25.12,18.88,1.19,0.38,-0.56,-0.30,1.34
54.00,0.00,265.31,7.06,-104.62,0.69,-0.94,0.25,-0.30,1.36
54.00,1.00,319.62,-2.25,-52.56,0.44,0.44,-0.38,-0.30,1.36
54.00,2.00,303.00,-25.12,18.88,0.62,0.06,-0.12,-0.30,1.36
54.00,0.00,265.31,7.06,-104.62,0.31,-0.38,-0.06,-0.33,1.38
54.00,1.00,319.62,-2.25,-52.62,0.75,0.50,-0.38,-0.33,1.38
54.00,2.00,303.00,-25.12,18.88,1.12,0.50,0.06,-0.33,1.38
54.00,0.00,265.31,7.06,-104.62,0.56,-0.38,-0.50,-0.37,1.40
54.00,1.00,319.56,-2.25,-52.62,0.81,0.75,-0.06,-0.37,1.40
54.00,2.00,303.00,-25.12,18.81,1.69,0.81,-0.06,-0.37,1.40
54.00,0.00,265.31,7.06,-104.69,1.00,-0.56,-0.50,-0.40,1.42
54.00,1.00,319.56,-2.25,-52.62,0.06,1.00,0.06,-0.40,1.42
54.00,2.00,303.00,-25.12,18.81,1.75,0.62,-0.25,-0.40,1.42
54.00,0.00,265.38,7.06,-104.69,0.44,-0.75,-0.50,-0.38,1.44
54.00,1.00,319.56,-2.31,-52.62,-0.06,1.25,0.38,-0.38,1.44
54.00,2.00,303.00,-25.19,18.81,0.06,0.38,0.31,-0.38,1.44
54.00,0.00,265.38,7.06,-104.69,-0.38,0.06,-1.00,-0.38,1.46
54.00,1.00,319.56,-2.31,-52.62,-0.06,0.81,0.50,-0.38,1.46
54.00,2.00,303.00,-25.19,18.81,-0.50,0.44,0.75,-0.38,1.46
54.00,0.00,265.38,7.06,-104.62,-0.69,0.62,-1.56,-0.39,1.48
54.00,1.00,319.56,-2.31,-52.62,0.06,0.44,0.19,-0.39,1.48
54.00,2.00,303.00,-25.19,18.81,-0.44,0.88,0.69,-0.39,1.48
54.00,0.00,265.38,7.00,-104.62,-0.19,0.81,-1.50,-0.39,1.50
54.00,1.00,319.56,-2.31,-52.62,0.00,0.56,-0.50,-0.39,1.50
54.00,2.00,303.00,-25.19,18.81,-0.12,1.31,0.06,-0.39,1.50
54.00,0.00,265.38,7.00,-104.62,0.06,0.69,-1.31,-0.40,1.52
54.00,1.00,319.56,-2.31,-52.62,-0.56,0.44,-0.81,-0.40,1.52
54.00,2.00,303.00,-25.25,18.81,0.19,1.25,-0.19,-0.40,1.52
54.00,0.00,265.44,7.00,-104.62,-0.12,-0.19,-1.31,-0.40,1.54
54.00,1.00,319.56,-2.31,-52.62,-0.81,0.19,-1.06,-0.40,1.54
54.00,2.00,303.00,-25.25,18.81,0.00,1.44,-0.19,-0.40,1.54
54.00,0.00,265.44,6.94,-104.62,-0.25,-0.50,-1.50,-0.42,1.56
54.00,1.00,319.62,-2.38,-52.62,-0.25,0.31,-1.00,-0.42,1.56
54.00,2.00,303.00,-25.31,18.81,0.25,1.44,-0.62,-0.42,1.56
54.00,0.00,265.50,6.94,-104.62,-0.50,-1.19,-1.50,-0.44,1.58
54.00,1.00,319.62,-2.38,-52.62,0.12,-0.25,-0.56,-0.44,1.58
54.00,2.00,303.06,-25.31,18.81,-0.06,0.81,-0.62,-0.44,1.58
54.00,0.00,265.56,6.88,-104.62,-0.56,-1.38,-1.12,-0.48,1.60
54.00,1.00,319.62,-2.38,-52.62,0.06,-0.62,-0.62,-0.48,1.60
54.00,2.00,303.06,-25.31,18.88,0.62,0.62,-1.19,-0.48,1.60
54.00,0.00,265.62,6.88,-104.62,0.00,-0.81,-0.69,-0.51,1.62
54.00,1.00,319.62,-2.38,-52.56,-0.25,-0.81,-0.88,-0.51,1.62
54.00,2.00,303.06,-25.31,18.88,0.81,0.44,-1.69,-0.51,1.62
54.00,0.00,265.62,6.88,-104.62,0.31,-1.25,-0.31,-0.52,1.64
54.00,1.00,319.69,-2.38,-52.56,-0.56,-1.12,-0.94,-0.52,1.64
54.00,2.00,303.12,-25.31,18.88,0.50,0.25,-1.50,-0.52,1.64
54.00,0.00,265.69,6.81,-104.62,0.00,-1.69,-0.12,-0.53,1.66
54.00,1.00,319.69,-2.38,-52.56,-0.75,-1.12,-1.00,-0.53,1.66
54.00,2.00,303.12,-25.31,18.88,0.38,0.75,-1.75,-0.53,1.66
54.00,0.00,265.75,6.81,-104.62,-0.06,-1.56,0.12,-0.55,1.68
54.00,1.00,319.75,-2.38,-52.56,-0.56,-0.81,-1.31,-0.55,1.68
54.00,2.00,303.19,-25.31,18.88,0.31,0.56,-1.50,-0.55,1.68
54.00,0.00,265.75,6.81,-104.62,-0.19,-1.94,0.56,-0.57,1.70
54.00,1.00,319.75,-2.38,-52.56,-0.19,-0.50,-1.38,-0.57,1.70
54.00,2.00,303.19,-25.31,18.94,0.50,0.56,-1.00,-0.57,1.70
54.00,0.00,265.81,6.81,-104.62,-0.19,-1.50,0.44,-0.63,1.72
54.00,1.00,319.75,-2.38,-52.56,-0.25,-0.56,-1.25,-0.63,1.72
54.00,2.00,303.25,-25.31,18.94,1.44,0.56,-1.44,-0.63,1.72
54.00,0.00,265.88,6.81,-104.62,-0.25,-2.00,0.44,-0.69,1.74
54.00,1.00,319.81,-2.44,-52.50,-0.31,-0.19,-1.06,-0.69,1.74
54.00,2.00,303.25,-25.31,18.94,1.25,0.75,-1.38,-0.69,1.74
54.00,0.00,265.94,6.81,-104.69,-0.38,-2.38,0.12,-0.70,1.76
54.00,1.00,319.81,-2.44,-52.50,-0.62,-0.12,-0.06,-0.70,1.76
54.00,2.00,303.31,-25.31,18.94,0.00,0.44,-1.31,-0.70,1.76
54.00,0.00,266.00,6.81,-104.69,-0.56,-2.62,-0.06,-0.71,1.78
54.00,1.00,319.81,-2.44,-52.50,-0.69,-0.44,0.06,-0.71,1.78
54.00,2.00,303.31,-25.31,18.94,-0.31,0.12,-1.12,-0.71,1.78
54.00,0.00,266.00,6.81,-104.62,-0.94,-1.50,0.06,-0.74,1.80
54.00,1.00,319.81,-2.44,-52.50,-0.50,-0.19,0.44,-0.74,1.80
54.00,2.00,303.38,-25.31,18.94,-0.31,-0.12,-0.75,-0.74,1.80
54.00,0.00,266.00,6.81,-104.62,-1.25,-0.44,0.00,-0.77,1.82
54.00,1.00,319.81,-2.44,-52.44,-0.31,0.06,0.56,-0.77,1.82
54.00,2.00,303.38,-25.25,18.94,-0.25,-0.44,-0.81,-0.77,1.82
54.00,0.00,266.00,6.81,-104.62,-1.31,0.38,-0.06,-0.82,1.84
54.00,1.00,319.81,-2.38,-52.44,-0.50,0.00,1.00,-0.82,1.84
54.00,2.00,303.38,-25.25,19.00,-0.19,-0.12,-0.12,-0.82,1.84
54.00,0.00,266.00,6.81,-104.56,-1.31,1.00,0.25,-0.85,1.86
54.00,1.00,319.75,-2.38,-52.44,-0.75,0.38,1.12,-0.85,1.86
54.00,2.00,303.38,-25.25,19.00,-0.38,-0.38,-0.12,-0.85,1.86
54.00,0.00,266.00,6.81,-104.56,-1.44,1.12,0.56,-0.87,1.88
54.00,1.00,319.75,-2.38,-52.44,-0.69,0.56,0.88,-0.87,1.88
54.00,2.00,303.38,-25.25,19.00,-0.88,-0.44,0.25,-0.87,1.88
54.00,0.00,265.94,6.81,-104.50,-1.12,1.38,0.44,-0.88,1.90
54.00,1.00,319.69,-2.31,-52.44,-0.56,1.00,1.50,-0.88,1.90
54.00,2.00,303.38,-25.25,19.00,-0.81,-1.00,0.44,-0.88,1.90
54.00,0.00,265.94,6.81,-104.50,-1.31,1.50,0.50,-0.91,1.92
54.00,1.00,319.69,-2.31,-52.44,-0.69,1.31,2.00,-0.91,1.92
54.00,2.00,303.38,-25.25,19.00,-0.56,-1.25,0.81,-0.91,1.92
54.00,0.00,265.88,6.81,-104.44,-1.38,2.12,0.31,-0.95,1.94
54.00,1.00,319.62,-2.31,-52.44,0.12,1.19,2.50,-0.95,1.94
54.00,2.00,303.31,-25.25,19.00,-0.31,-1.94,1.50,-0.95,1.94
54.00,0.00,265.75,6.88,-104.44,-1.00,3.56,0.69,-0.93,1.96
54.00,1.00,319.50,-2.25,-52.44,-0.31,1.94,3.19,-0.93,1.96
54.00,2.00,303.31,-25.19,19.00,-1.62,-2.81,2.31,-0.93,1.96
54.00,0.00,265.62,6.94,-104.44,-0.69,5.00,1.25,-0.88,1.98
54.00,1.00,319.44,-2.25,-52.44,-0.38,1.94,3.56,-0.88,1.98
54.00,2.00,303.19,-25.12,19.00,-1.88,-3.12,2.81,-0.88,1.98
54.00,0.00,265.44,7.00,-104.44,0.00,6.31,1.75,-0.80,2.00
54.00,1.00,319.31,-2.19,-52.44,-0.56,2.31,4.56,-0.80,2.00
54.00,2.00,303.12,-25.12,19.00,-2.25,-3.88,3.19,-0.80,2.00
54.00,0.00,265.25,7.06,-104.38,0.25,8.00,1.88,-0.69,2.02
54.00,1.00,319.19,-2.12,-52.44,-0.25,2.31,5.12,-0.69,2.02
54.00,2.00,303.06,-25.06,19.00,-2.75,-4.75,4.19,-0.69,2.02
54.00,0.00,265.00,7.12,-104.38,0.56,9.06,1.56,-0.55,2.04
54.00,1.00,319.12,-2.06,-52.44,-0.19,1.69,5.44,-0.55,2.04
54.00,2.00,302.94,-25.00,19.00,-3.19,-5.00,4.62,-0.55,2.04
54.00,0.00,264.69,7.19,-104.38,1.25,9.62,1.25,-0.41,2.06
54.00,1.00,319.00,-2.00,-52.44,0.19,1.56,5.44,-0.41,2.06
54.00,2.00,302.81,-24.94,19.00,-2.38,-5.31,4.56,-0.41,2.06
54.00,0.00,264.44,7.25,-104.38,2.56,8.75,1.44,-0.22,2.08
54.00,1.00,318.88,-2.00,-52.44,0.44,1.94,5.06,-0.22,2.08
54.00,2.00,302.69,-24.88,19.00,-2.38,-5.19,4.31,-0.22,2.08
54.00,0.00,264.25,7.31,-104.44,3.06,5.94,1.81,-0.04,2.10
54.00,1.00,318.75,-1.94,-52.44,0.62,2.31,4.25,-0.04,2.10
54.00,2.00,302.56,-24.81,19.00,-1.94,-4.12,3.88,-0.04,2.10
54.00,0.00,264.12,7.38,-104.50,4.38,3.12,1.38,0.20,2.12
54.00,1.00,318.62,-1.88,-52.44,0.56,2.12,3.69,0.20,2.12
54.00,2.00,302.50,-24.75,19.00,-1.94,-3.12,3.25,0.20,2.12
54.00,0.00,264.12,7.31,-104.62,5.00,1.00,0.06,0.41,2.14
54.00,1.00,318.56,-1.88,-52.44,0.56,2.69,2.88,0.41,2.14
54.00,2.00,302.44,-24.75,18.94,-0.75,-0.62,2.25,0.41,2.14
54.00,0.00,264.12,7.31,-104.69,5.38,-1.00,-0.75,0.58,2.16
54.00,1.00,318.50,-1.88,-52.44,0.81,2.94,2.56,0.58,2.16
54.00,2.00,302.44,-24.75,18.94,1.06,-0.12,1.38,0.58,2.16
54.00,0.00,264.19,7.25,-104.81,4.75,-2.81,-0.94,0.73,2.18
54.00,1.00,318.44,-1.88,-52.50,1.25,3.25,2.81,0.73,2.18
54.00,2.00,302.38,-24.75,18.94,0.69,-0.38,1.69,0.73,2.18
54.00,0.00,264.25,7.25,-104.94,4.00,-1.50,-0.88,0.89,2.20
54.00,1.00,318.31,-1.88,-52.50,2.25,2.62,3.75,0.89,2.20
54.00,2.00,302.31,-24.75,18.88,-0.25,-1.56,2.44,0.89,2.20
54.00,0.00,264.25,7.25,-105.00,4.00,0.81,-1.12,1.05,2.22
54.00,1.00,318.19,-1.81,-52.56,2.81,1.88,4.75,1.05,2.22
54.00,2.00,302.25,-24.75,18.88,-0.31,-2.50,3.12,1.05,2.22
54.00,0.00,264.19,7.25,-105.06,4.94,3.19,-0.56,1.20,2.24
54.00,1.00,318.12,-1.75,-52.62,3.62,1.25,4.94,1.20,2.24
54.00,2.00,302.19,-24.69,18.81,0.88,-3.44,3.56,1.20,2.24
54.00,0.00,264.00,7.31,-105.19,6.38,5.69,0.94,1.40,2.26
54.00,1.00,318.00,-1.69,-52.75,3.69,0.88,5.31,1.40,2.26
54.00,2.00,302.12,-24.62,18.75,1.12,-4.69,4.00,1.40,2.26
54.00,0.00,263.69,7.44,-105.38,7.44,7.81,2.19,1.65,2.28
54.00,1.00,317.88,-1.62,-52.81,3.56,1.06,5.25,1.65,2.28
54.00,2.00,302.00,-24.56,18.69,0.62,-5.50,4.19,1.65,2.28
54.00,0.00,263.25,7.56,-105.62,8.81,9.56,3.50,1.97,2.30
54.00,1.00,317.75,-1.50,-52.88,3.56,1.06,5.00,1.97,2.30
54.00,2.00,301.94,-24.50,18.62,0.50,-7.00,4.94,1.97,2.30
54.00,0.00,262.88,7.75,-105.81,10.12,10.31,4.69,2.31,2.32
54.00,1.00,317.69,-1.44,-52.94,3.81,1.19,5.38,2.31,2.32
54.00,2.00,301.81,-24.38,18.56,0.88,-8.00,5.94,2.31,2.32
54.00,0.00,262.44,7.94,-106.06,12.31,10.69,5.75,2.78,2.34
54.00,1.00,317.56,-1.38,-53.00,3.75,1.56,5.62,2.78,2.34
54.00,2.00,301.62,-24.25,18.44,-0.19,-8.81,6.75,2.78,2.34
54.00,0.00,262.00,8.12,-106.38,15.12,9.81,7.00,3.36,2.36
54.00,1.00,317.44,-1.31,-53.06,3.31,1.12,6.25,3.36,2.36
54.00,2.00,301.44,-24.12,18.38,-0.25,-9.19,7.19,3.36,2.36
54.00,0.00,261.56,8.25,-106.75,16.56,9.00,7.12,3.98,2.38
54.00,1.00,317.25,-1.25,-53.12,2.62,1.06,6.88,3.98,2.38
54.00,2.00,301.31,-24.00,18.31,0.06,-9.81,7.44,3.98,2.38
54.00,0.00,261.12,8.44,-107.06,17.81,9.69,7.56,4.67,2.40
54.00,1.00,317.12,-1.12,-53.19,1.81,0.75,7.44,4.67,2.40
54.00,2.00,301.12,-23.88,18.19,-0.75,-10.88,7.44,4.67,2.40
54.00,0.00,260.62,8.62,-107.44,19.25,9.75,7.88,5.48,2.42
54.00,1.00,317.00,-1.00,-53.19,1.06,-0.06,7.31,5.48,2.42
54.00,2.00,300.94,-23.69,18.12,-2.38,-11.75,7.75,5.48,2.42
54.00,0.00,260.12,8.88,-107.88,21.44,9.75,8.44,6.37,2.44
54.00,1.00,316.81,-0.88,-53.25,1.25,-0.62,7.25,6.37,2.44
54.00,2.00,300.75,-23.50,18.12,-2.38,-12.44,8.06,6.37,2.44
54.00,0.00,259.56,9.12,-108.31,25.69,10.00,10.12,7.37,2.46
54.00,1.00,316.75,-0.75,-53.25,1.56,-1.25,6.12,7.37,2.46
54.00,2.00,300.56,-23.31,18.12,-1.00,-11.88,7.69,7.37,2.46
54.00,0.00,259.00,9.38,-108.88,29.00,8.50,11.75,8.44,2.48
54.00,1.00,316.62,-0.69,-53.31,1.69,-1.00,5.38,8.44,2.48
54.00,2.00,300.38,-23.19,18.06,0.69,-11.12,6.56,8.44,2.48
54.00,0.00,258.38,9.62,-109.44,30.44,7.62,11.88,9.53,2.50
54.00,1.00,316.56,-0.56,-53.31,2.06,-1.12,4.75,9.53,2.50
54.00,2.00,300.25,-23.00,18.00,1.31,-11.00,6.19,9.53,2.50
54.00,0.00,257.75,9.94,-110.00,30.75,9.69,12.38,10.62,2.52
54.00,1.00,316.50,-0.50,-53.38,2.12,-1.88,4.12,10.62,2.52
54.00,2.00,300.06,-22.81,17.88,1.69,-11.56,6.25,10.62,2.52
54.00,0.00,257.38,10.06,-110.31,31.19,12.25,13.38,11.75,2.54
54.00,1.00,316.44,-0.44,-53.44,3.12,-3.12,3.81,11.75,2.54
54.00,2.00,299.94,-22.69,17.81,1.00,-12.94,6.75,11.75,2.54
54.00,0.00,256.62,10.44,-110.88,31.44,13.12,13.88,12.86,2.56
54.00,1.00,316.44,-0.31,-53.50,3.25,-4.12,2.94,12.86,2.56
54.00,2.00,299.75,-22.44,17.69,1.69,-15.44,7.25,12.86,2.56
54.00,0.00,255.81,10.75,-111.50,33.19,12.81,15.75,14.01,2.58
54.00,1.00,316.38,-0.25,-53.56,3.81,-3.94,2.69,14.01,2.58
54.00,2.00,299.56,-22.19,17.56,2.62,-15.75,7.06,14.01,2.58
54.00,0.00,254.94,11.12,-112.12,34.00,11.69,16.00,15.19,2.60
54.00,1.00,316.38,-0.12,-53.62,3.31,-4.19,2.06,15.19,2.60
54.00,2.00,299.44,-21.94,17.44,2.50,-16.12,6.88,15.19,2.60
54.00,0.00,254.12,11.50,-112.75,33.38,10.94,14.44,16.33,2.62
54.00,1.00,316.38,-0.06,-53.69,2.75,-4.25,1.56,16.33,2.62
54.00,2.00,299.25,-21.69,17.31,2.94,-15.38,6.56,16.33,2.62
54.00,0.00,253.31,11.81,-113.38,33.69,11.06,14.19,17.47,2.64
54.00,1.00,316.44,0.00,-53.75,2.00,-4.12,1.12,17.47,2.64
54.00,2.00,299.12,-21.44,17.19,3.44,-13.75,5.75,17.47,2.64
54.00,0.00,252.50,12.19,-114.00,36.44,10.50,15.75,18.68,2.66
54.00,1.00,316.44,0.00,-53.75,1.38,-4.12,0.38,18.68,2.66
54.00,2.00,299.00,-21.19,17.06,3.94,-16.12,4.81,18.68,2.66
54.00,0.00,251.69,12.56,-114.75,37.94,9.62,16.12,19.92,2.68
54.00,1.00,316.50,0.06,-53.75,1.25,-4.38,0.06,19.92,2.68
54.00,2.00,298.88,-20.88,17.00,4.88,-16.06,4.31,19.92,2.68
54.00,0.00,250.81,12.88,-115.44,38.00,8.31,14.88,21.14,2.70
54.00,1.00,316.56,0.12,-53.81,0.88,-4.19,-0.62,21.14,2.70
54.00,2.00,298.81,-20.62,16.81,5.44,-15.44,4.38,21.14,2.70
54.00,0.00,250.00,13.19,-116.19,38.88,8.56,14.56,22.42,2.72
54.00,1.00,316.56,0.12,-53.75,0.44,-3.25,-1.19,22.42,2.72
54.00,2.00,298.69,-20.38,16.69,4.81,-14.19,3.62,22.42,2.72
54.00,0.00,249.00,13.56,-116.94,40.06,8.56,14.88,23.73,2.74
54.00,1.00,316.62,0.19,-53.75,-0.50,-2.75,-1.75,23.73,2.74
54.00,2.00,298.62,-20.12,16.56,5.12,-13.62,3.19,23.73,2.74
54.00,0.00,248.12,13.88,-117.75,43.00,7.31,14.88,25.19,2.76
54.00,1.00,316.69,0.19,-53.75,-0.56,-1.88,-2.00,25.19,2.76
54.00,2.00,298.50,-19.88,16.44,4.12,-12.62,4.25,25.19,2.76
54.00,0.00,247.25,14.19,-118.62,42.75,7.62,15.06,26.64,2.78
54.00,1.00,316.75,0.19,-53.75,-0.44,-1.06,-1.00,26.64,2.78
54.00,2.00,298.38,-19.69,16.31,4.06,-13.31,5.94,26.64,2.78
54.00,0.00,245.94,14.50,-119.44,42.12,10.00,14.81,28.06,2.80
54.00,1.00,316.69,0.19,-53.69,-0.56,0.31,0.38,28.06,2.80
54.00,2.00,298.25,-19.44,16.12,4.25,-14.88,7.88,28.06,2.80
54.00,0.00,244.94,14.88,-120.19,41.38,9.00,14.44,29.49,2.82
54.00,1.00,316.69,0.25,-53.69,-0.75,1.62,2.00,29.49,2.82
54.00,2.00,298.00,-19.19,15.94,3.19,-15.25,9.31,29.49,2.82
54.00,0.00,243.94,15.19,-121.00,40.75,8.62,13.88,30.90,2.84
54.00,1.00,316.56,0.25,-53.69,-0.56,2.19,3.81,30.90,2.84
54.00,2.00,297.81,-19.00,15.81,3.00,-14.75,10.94,30.90,2.84
54.00,0.00,243.00,15.44,-121.69,39.12,8.81,11.81,32.27,2.86
54.00,1.00,316.44,0.31,-53.62,0.25,3.19,5.62,32.27,2.86
54.00,2.00,297.50,-18.75,15.62,2.75,-15.75,13.50,32.27,2.86
54.00,0.00,242.12,15.69,-122.38,38.81,9.50,11.44,33.69,2.88
54.00,1.00,316.25,0.38,-53.62,-0.06,4.56,7.06,33.69,2.88
54.00,2.00,297.19,-18.56,15.50,0.75,-16.00,15.44,33.69,2.88
54.00,0.00,241.25,15.94,-123.06,37.12,8.25,10.12,35.14,2.90
54.00,1.00,316.06,0.44,-53.62,-1.06,5.19,7.94,35.14,2.90
54.00,2.00,296.81,-18.31,15.38,-1.56,-16.44,15.38,35.14,2.90
54.00,0.00,240.44,16.12,-123.75,37.44,7.94,9.38,36.61,2.92
54.00,1.00,315.81,0.50,-53.56,-2.00,5.38,7.75,36.61,2.92
54.00,2.00,296.50,-18.12,15.31,-1.75,-15.50,14.62,36.61,2.92
54.00,0.00,239.56,16.38,-124.50,38.56,8.12,8.50,38.07,2.94
54.00,1.00,315.62,0.56,-53.50,-2.38,5.62,6.50,38.07,2.94
54.00,2.00,296.19,-17.94,15.19,-0.44,-13.38,13.88,38.07,2.94
54.00,0.00,238.62,16.56,-125.25,41.62,6.25,7.69,39.66,2.96
54.00,1.00,315.44,0.62,-53.50,-2.69,6.19,6.00,39.66,2.96
54.00,2.00,295.88,-17.75,15.12,-0.56,-11.56,13.69,39.66,2.96
54.00,0.00,237.81,16.75,-126.06,41.69,4.88,6.19,41.22,2.98
54.00,1.00,315.25,0.62,-53.44,-3.06,6.81,4.62,41.22,2.98
54.00,2.00,295.62,-17.56,15.06,-0.06,-10.12,13.38,41.22,2.98
54.00,0.00,236.88,16.81,-126.88,41.06,2.19,3.94,42.79,3.00
54.00,1.00,315.12,0.62,-53.38,-2.88,6.44,3.12,42.79,3.00
54.00,2.00,295.31,-17.44,15.00,-0.75,-10.94,13.31,42.79,3.00
54.00,0.00,236.25,16.88,-127.69,42.50,0.94,3.81,44.43,3.02
54.00,1.00,315.06,0.56,-53.31,-2.06,5.81,1.31,44.43,3.02
54.00,2.00,295.06,-17.31,14.94,-1.38,-10.50,13.25,44.43,3.02
54.00,0.00,235.25,16.94,-128.56,44.62,0.00,3.38,46.08,3.04
54.00,1.00,315.00,0.50,-53.25,-2.06,5.44,-0.06,46.08,3.04
54.00,2.00,294.81,-17.19,14.88,0.75,-9.25,12.38,46.08,3.04
54.00,0.00,234.56,17.00,-129.44,45.75,1.19,2.88,47.67,3.06
54.00,1.00,314.94,0.44,-53.19,-1.94,4.81,-0.25,47.67,3.06
54.00,2.00,294.56,-17.06,14.75,3.19,-8.94,11.19,47.67,3.06
54.00,0.00,233.81,17.06,-130.31,44.88,2.88,1.50,49.25,3.08
54.00,1.00,314.94,0.44,-53.12,-2.25,4.38,-0.69,49.25,3.08
54.00,2.00,294.31,-16.94,14.62,2.88,-9.00,11.00,49.25,3.08
54.00,0.00,233.00,17.06,-131.12,44.06,2.06,0.50,50.83,3.10
54.00,1.00,314.88,0.38,-53.12,-1.94,3.62,-1.31,50.83,3.10
54.00,2.00,294.12,-16.88,14.50,1.88,-8.00,10.62,50.83,3.10
54.00,0.00,232.25,17.06,-132.00,45.00,0.44,0.81,52.45,3.12
54.00,1.00,314.88,0.31,-53.06,-2.00,4.00,-1.56,52.45,3.12
54.00,2.00,293.88,-16.75,14.38,1.69,-7.50,11.56,52.45,3.12
54.00,0.00,231.50,17.12,-132.88,45.44,-0.81,1.56,54.10,3.14
54.00,1.00,314.88,0.19,-53.06,-2.06,4.12,-1.19,54.10,3.14
54.00,2.00,293.62,-16.69,14.25,1.44,-7.81,11.81,54.10,3.14
54.00,0.00,230.75,17.12,-133.75,43.38,0.88,1.25,55.72,3.16
54.00,1.00,314.88,0.12,-53.00,-2.19,4.06,-1.06,55.72,3.16
54.00,2.00,293.38,-16.56,14.19,0.12,-8.81,11.88,55.72,3.16
54.00,0.00,229.94,17.19,-134.50,39.50,3.88,0.38,57.23,3.18
54.00,1.00,314.81,0.06,-52.94,-2.25,3.75,-0.75,57.23,3.18
54.00,2.00,293.12,-16.44,14.12,-0.81,-8.69,12.56,57.23,3.18
54.00,0.00,228.94,17.25,-135.19,38.00,6.88,0.62,58.68,3.20
54.00,1.00,314.81,0.06,-52.88,-2.25,4.50,-0.44,58.68,3.20
54.00,2.00,292.81,-16.38,14.00,-0.56,-9.56,13.62,58.68,3.20
54.00,0.00,228.00,17.38,-135.75,35.38,7.75,-0.69,60.05,3.22
54.00,1.00,314.75,0.00,-52.88,-2.25,5.00,-0.31,60.05,3.22
54.00,2.00,292.56,-16.25,13.94,-1.19,-9.12,13.31,60.05,3.22
54.00,0.00,227.06,17.50,-136.31,34.44,9.31,-0.25,61.39,3.24
54.00,1.00,314.69,0.00,-52.81,-2.44,5.50,-0.12,61.39,3.24
54.00,2.00,292.25,-16.12,13.94,-1.44,-8.50,13.12,61.39,3.24
54.00,0.00,226.06,17.62,-136.75,32.50,10.56,-1.44,62.68,3.26
54.00,1.00,314.62,-0.06,-52.75,-3.00,5.94,0.25,62.68,3.26
54.00,2.00,292.00,-16.00,13.88,-1.69,-7.25,12.88,62.68,3.26
54.00,0.00,225.19,17.75,-137.12,31.25,11.44,-2.88,63.99,3.28
54.00,1.00,314.56,-0.12,-52.69,-4.38,6.56,0.12,63.99,3.28
54.00,2.00,291.75,-15.88,13.88,-3.88,-7.31,11.94,63.99,3.28
54.00,0.00,224.31,17.88,-137.50,29.19,12.19,-5.00,65.36,3.30
54.00,1.00,314.50,-0.25,-52.56,-6.31,6.50,-0.94,65.36,3.30
54.00,2.00,291.50,-15.81,13.94,-7.31,-6.31,9.62,65.36,3.30
54.00,0.00,223.56,17.94,-137.81,28.94,11.25,-5.94,66.74,3.32
54.00,1.00,314.50,-0.31,-52.44,-6.69,5.00,-1.94,66.74,3.32
54.00,2.00,291.31,-15.69,14.00,-7.88,-9.38,7.31,66.74,3.32
54.00,0.00,94.75,18.00,-138.19,31.12,11.00,-6.44,68.14,3.34
54.00,1.00,314.50,-0.38,-52.31,-6.75,3.75,-2.38,68.14,3.34
54.00,2.00,291.19,-15.56,14.12,-6.25,-8.19,3.88,68.14,3.34
54.00,0.00,94.50,18.06,-138.75,33.12,12.00,-5.56,69.60,3.36
54.00,1.00,314.56,-0.50,-52.19,-6.00,2.00,-3.75,69.60,3.36
54.00,2.00,291.12,-15.44,14.25,-5.69,-5.25,1.31,69.60,3.36
54.00,0.00,94.12,18.19,-139.31,32.50,13.12,-5.88,70.99,3.38
54.00,1.00,314.62,-0.56,-52.06,-5.62,1.06,-4.75,70.99,3.38
54.00,2.00,291.06,-15.38,14.38,-4.56,-4.81,0.56,70.99,3.38
54.00,0.00,93.81,18.31,-139.81,30.25,12.69,-7.50,72.26,3.40
54.00,1.00,314.69,-0.62,-52.00,-5.38,0.31,-5.25,72.26,3.40
54.00,2.00,291.06,-15.25,14.44,-3.81,-3.56,-1.00,72.26,3.40
54.00,0.00,93.50,18.31,-140.31,27.88,9.44,-9.12,73.48,3.42
54.00,1.00,314.81,-0.75,-51.88,-5.38,-0.75,-5.25,73.48,3.42
54.00,2.00,291.06,-15.19,14.50,-4.75,-4.38,-1.06,73.48,3.42
54.00,0.00,93.25,18.31,-140.75,28.75,5.75,-7.94,74.76,3.44
54.00,1.00,314.88,-0.75,-51.81,-5.75,-1.50,-5.38,74.76,3.44
54.00,2.00,291.06,-15.06,14.62,-5.25,-4.31,-1.31,74.76,3.44
54.00,0.00,93.00,18.31,-141.25,27.81,4.31,-6.06,75.98,3.46
54.00,1.00,315.06,-0.88,-51.62,-5.19,-1.81,-5.56,75.98,3.46
54.00,2.00,291.06,-15.00,14.69,-4.62,-4.12,-0.88,75.98,3.46
54.00,0.00,92.75,18.31,-141.75,26.19,2.69,-5.50,77.10,3.48
54.00,1.00,315.12,-0.88,-51.62,-4.81,-1.69,-5.31,77.10,3.48
54.00,2.00,291.06,-14.94,14.81,-3.81,-4.62,0.38,77.10,3.48
54.00,0.00,92.62,18.31,-142.19,25.56,3.12,-4.56,78.17,3.50
54.00,1.00,315.31,-1.00,-51.44,-4.12,-1.19,-4.81,78.17,3.50
54.00,2.00,291.00,-14.88,14.81,-2.88,-3.75,2.06,78.17,3.50
54.00,0.00,92.44,18.31,-142.62,23.88,2.88,-3.88,79.14,3.52
54.00,1.00,315.38,-1.06,-51.38,-3.81,-0.12,-3.81,79.14,3.52
54.00,2.00,290.94,-14.75,14.88,-2.12,-4.62,3.31,79.14,3.52
54.00,0.00,92.44,18.31,-143.06,23.25,2.94,-2.19,80.10,3.54
54.00,1.00,315.44,-1.06,-51.31,-3.50,0.56,-3.19,80.10,3.54
54.00,2.00,290.81,-14.75,14.88,-2.44,-3.75,4.19,80.10,3.54
54.00,0.00,92.31,18.38,-143.50,21.69,4.00,-1.12,81.02,3.56
54.00,1.00,315.50,-1.12,-51.25,-3.50,1.75,-2.44,81.02,3.56
54.00,2.00,290.75,-14.69,14.88,-2.88,-2.44,4.88,81.02,3.56
54.00,0.00,92.19,18.44,-143.81,19.50,4.50,-0.19,81.87,3.58
54.00,1.00,315.50,-1.19,-51.19,-3.62,2.50,-1.38,81.87,3.58
54.00,2.00,290.62,-14.62,14.94,-3.12,-4.38,6.31,81.87,3.58
54.00,0.00,92.12,18.56,-144.19,17.56,6.56,0.69,82.63,3.60
54.00,1.00,315.50,-1.25,-51.12,-3.56,3.50,-0.50,82.63,3.60
54.00,2.00,290.44,-14.62,14.94,-2.75,-3.69,7.94,82.63,3.60
54.00,0.00,92.06,18.69,-144.44,15.12,8.06,0.50,83.32,3.62
54.00,1.00,315.44,-1.25,-51.06,-3.06,4.88,0.00,83.32,3.62
54.00,2.00,290.25,-14.56,14.94,-3.19,-4.31,9.69,83.32,3.62
54.00,0.00,92.12,18.81,-144.69,15.12,9.06,0.94,83.99,3.64
54.00,1.00,315.38,-1.31,-51.00,-3.25,5.69,0.56,83.99,3.64
54.00,2.00,290.06,-14.56,14.94,-2.75,-3.44,9.25,83.99,3.64
54.00,0.00,92.00,19.06,-144.94,15.12,10.62,2.62,84.62,3.66
54.00,1.00,315.31,-1.38,-50.94,-3.19,6.50,1.25,84.62,3.66
54.00,2.00,289.81,-14.50,14.94,-1.75,-4.31,9.88,84.62,3.66
54.00,0.00,92.00,19.25,-145.19,14.12,11.06,4.00,85.25,3.68
54.00,1.00,315.25,-1.44,-50.88,-3.56,7.12,2.06,85.25,3.68
54.00,2.00,289.62,-14.50,14.94,-2.75,-2.50,10.31,85.25,3.68
54.00,0.00,91.94,19.44,-145.38,11.38,10.44,3.25,85.82,3.70
54.00,1.00,315.12,-1.50,-50.81,-3.62,7.62,3.00,85.82,3.70
54.00,2.00,289.38,-14.50,14.94,-3.62,-3.81,10.69,85.82,3.70
54.00,0.00,91.94,19.62,-145.50,9.56,8.88,2.00,86.34,3.72
54.00,1.00,315.00,-1.56,-50.75,-3.69,7.81,4.00,86.34,3.72
54.00,2.00,289.19,-14.44,14.94,-4.31,-4.81,10.81,86.34,3.72
54.00,0.00,91.94,19.75,-145.62,8.38,7.44,2.25,86.85,3.74
54.00,1.00,314.81,-1.56,-50.69,-3.88,7.94,4.44,86.85,3.74
54.00,2.00,288.94,-14.44,15.00,-5.25,-3.25,10.69,86.85,3.74
54.00,0.00,91.88,19.88,-145.75,7.31,7.50,3.31,87.36,3.76
54.00,1.00,314.69,-1.62,-50.56,-3.81,8.00,4.31,87.36,3.76
54.00,2.00,288.75,-14.44,15.06,-6.25,-3.69,10.31,87.36,3.76
54.00,0.00,91.88,20.06,-145.81,5.94,7.31,2.94,87.81,3.78
54.00,1.00,314.50,-1.62,-50.50,-3.69,7.31,4.00,87.81,3.78
54.00,2.00,288.50,-14.38,15.19,-6.19,-4.06,9.50,87.81,3.78
54.00,0.00,91.88,20.19,-145.88,6.12,7.31,2.81,88.23,3.80
54.00,1.00,314.38,-1.69,-50.44,-3.69,6.69,3.69,88.23,3.80
54.00,2.00,288.31,-14.38,15.25,-5.00,-3.12,8.44,88.23,3.80
54.00,0.00,91.81,20.25,-145.88,5.44,5.31,3.06,88.64,3.82
54.00,1.00,314.25,-1.69,-50.38,-3.81,5.88,3.44,88.64,3.82
54.00,2.00,288.12,-14.38,15.31,-5.56,-1.00,7.31,88.64,3.82
54.00,0.00,91.94,20.31,-145.88,3.31,3.56,2.62,88.97,3.84
54.00,1.00,314.12,-1.75,-50.31,-3.88,5.38,3.06,88.97,3.84
54.00,2.00,288.00,-14.38,15.44,-5.50,-2.44,5.69,88.97,3.84
54.00,0.00,91.94,20.31,-145.81,-0.12,1.62,0.81,89.17,3.86
54.00,1.00,314.06,-1.75,-50.25,-4.25,3.50,1.69,89.17,3.86
54.00,2.00,287.94,-14.38,15.50,-5.50,-0.94,3.88,89.17,3.86
54.00,0.00,91.88,20.25,-145.75,-2.38,-2.12,-1.81,89.32,3.88
54.00,1.00,314.00,-1.75,-50.12,-4.31,3.00,1.50,89.32,3.88
54.00,2.00,287.88,-14.31,15.62,-6.38,-1.44,2.31,89.32,3.88
54.00,0.00,92.00,20.25,-145.75,0.00,-1.62,0.75,89.59,3.90
54.00,1.00,313.94,-1.75,-50.06,-4.94,2.12,0.81,89.59,3.90
54.00,2.00,287.81,-14.31,15.75,-7.25,0.94,1.25,89.59,3.90
54.00,0.00,92.00,20.25,-145.75,-0.31,-1.88,1.94,89.83,3.92
54.00,1.00,313.94,-1.81,-50.00,-5.12,1.88,0.06,89.83,3.92
54.00,2.00,287.81,-14.31,15.94,-6.62,0.69,0.69,89.83,3.92
54.00,0.00,92.12,20.19,-145.69,-3.31,-2.31,0.00,89.93,3.94
54.00,1.00,313.88,-1.81,-49.88,-5.00,1.44,-0.06,89.93,3.94
54.00,2.00,287.75,-14.38,16.06,-6.06,3.06,0.44,89.93,3.94
54.00,0.00,92.12,20.12,-145.62,-5.62,-2.94,-1.81,89.90,3.96
54.00,1.00,313.88,-1.88,-49.75,-4.50,1.88,-0.38,89.90,3.96
54.00,2.00,287.75,-14.44,16.19,-4.81,2.56,0.44,89.90,3.96
54.00,0.00,92.12,20.06,-145.50,-6.00,-4.12,-2.44,89.88,3.98
54.00,1.00,313.88,-1.88,-49.69,-4.06,1.94,-0.06,89.88,3.98
54.00,2.00,287.75,-14.44,16.31,-5.50,2.69,0.50,89.88,3.98
54.00,0.00,92.19,19.94,-145.38,-4.62,-4.38,-2.19,89.93,4.00
54.00,1.00,313.81,-1.88,-49.56,-3.50,2.50,-0.19,89.93,4.00
54.00,2.00,287.75,-14.50,16.50,-5.94,2.69,1.00,89.93,4.00
54.00,0.00,92.19,19.88,-145.31,-4.12,-2.81,-2.06,89.96,4.02
54.00,1.00,313.81,-1.94,-49.50,-3.81,2.38,0.25,89.96,4.02
54.00,2.00,287.75,-14.56,16.62,-4.81,3.12,0.69,89.96,4.02
54.00,0.00,92.19,19.88,-145.25,-3.75,-1.88,-2.00,89.97,4.04
54.00,1.00,313.81,-1.94,-49.38,-4.00,2.56,0.12,89.97,4.04
54.00,2.00,287.75,-14.62,16.75,-4.06,2.62,0.56,89.97,4.04
54.00,0.00,92.19,19.81,-145.12,-3.88,-0.12,-2.31,89.97,4.06
54.00,1.00,313.75,-2.00,-49.31,-3.06,2.44,0.62,89.97,4.06
54.00,2.00,287.75,-14.62,16.88,-3.81,1.75,1.44,89.97,4.06
54.00,0.00,92.12,19.81,-145.00,-3.88,1.50,-2.00,89.96,4.08
54.00,1.00,313.75,-2.00,-49.19,-3.38,2.06,0.94,89.96,4.08
54.00,2.00,287.69,-14.69,16.94,-3.56,1.31,1.75,89.96,4.08
54.00,0.00,92.19,19.81,-144.94,-3.81,4.12,-1.56,89.95,4.10
54.00,1.00,313.69,-2.00,-49.12,-3.06,2.31,1.25,89.95,4.10
54.00,2.00,287.62,-14.69,17.00,-3.75,-0.19,2.06,89.95,4.10
54.00,0.00,92.12,19.88,-144.88,-3.50,5.88,-1.69,89.97,4.12
54.00,1.00,313.62,-2.00,-49.06,-3.44,3.06,2.06,89.97,4.12
54.00,2.00,287.56,-14.75,17.06,-3.94,0.12,2.50,89.97,4.12
54.00,0.00,92.06,20.00,-144.75,-4.19,6.44,-1.88,89.97,4.14
54.00,1.00,313.56,-2.00,-49.00,-3.94,3.69,3.25,89.97,4.14
54.00,2.00,287.50,-14.75,17.19,-4.19,-0.50,2.75,89.97,4.14
54.00,0.00,92.00,20.06,-144.62,-4.25,6.88,-1.50,89.99,4.16
54.00,1.00,313.44,-2.00,-48.88,-3.75,4.19,4.06,89.99,4.16
54.00,2.00,287.44,-14.75,17.25,-4.88,-1.06,3.50,89.99,4.16
54.00,0.00,91.94,20.19,-144.50,-4.12,6.62,-1.31,90.06,4.18
54.00,1.00,313.31,-2.00,-48.81,-3.75,4.12,3.94,90.06,4.18
54.00,2.00,287.38,-14.75,17.38,-6.00,-1.38,4.06,90.06,4.18
54.00,0.00,92.06,20.25,-144.38,-3.38,7.00,-1.81,90.15,4.20
54.00,1.00,313.19,-2.00,-48.69,-3.75,3.94,3.81,90.15,4.20
54.00,2.00,287.25,-14.75,17.50,-5.75,-2.00,4.69,90.15,4.20
54.00,0.00,92.00,20.31,-144.25,-2.69,7.25,-2.00,90.22,4.22
54.00,1.00,313.06,-2.00,-48.62,-3.12,4.12,3.62,90.22,4.22
54.00,2.00,287.12,-14.75,17.56,-4.56,-0.12,4.88,90.22,4.22
54.00,0.00,91.94,20.44,-144.19,-1.75,6.56,-2.06,90.27,4.24
54.00,1.00,313.00,-2.00,-48.56,-2.81,4.56,3.38,90.27,4.24
54.00,2.00,287.06,-14.75,17.62,-3.06,-0.88,5.31,90.27,4.24
54.00,0.00,91.88,20.44,-144.12,0.06,-0.31,-0.62,90.40,4.26
54.00,1.00,312.88,-2.00,-48.50,-2.69,4.44,3.25,90.40,4.26
54.00,2.00,286.94,-14.75,17.75,-3.38,0.00,4.81,90.40,4.26
54.00,0.00,91.88,20.44,-144.12,-0.56,-4.88,1.06,90.49,4.28
54.00,1.00,312.75,-2.06,-48.44,-2.25,4.12,2.56,90.49,4.28
54.00,2.00,286.81,-14.75,17.81,-2.94,-1.00,4.12,90.49,4.28
54.00,0.00,91.94,20.38,-144.12,-0.81,-5.12,1.12,90.52,4.30
54.00,1.00,312.69,-2.06,-48.38,-1.81,3.81,2.19,90.52,4.30
54.00,2.00,286.81,-14.75,17.88,-1.50,-0.12,2.31,90.52,4.30
54.00,0.00,92.00,20.31,-144.12,-0.25,-2.00,1.62,90.56,4.32
54.00,1.00,312.62,-2.06,-48.31,-1.62,3.19,1.88,90.56,4.32
54.00,2.00,286.75,-14.81,17.94,-1.31,-0.19,1.88,90.56,4.32
54.00,0.00,92.06,20.31,-144.19,-0.38,-1.12,1.75,90.58,4.34
54.00,1.00,312.56,-2.12,-48.31,-1.38,3.31,1.56,90.58,4.34
54.00,2.00,286.75,-14.81,18.00,-1.00,0.50,1.00,90.58,4.34
54.00,0.00,92.06,20.31,-144.19,0.31,-0.19,1.69,90.63,4.36
54.00,1.00,312.50,-2.12,-48.25,-1.62,3.31,1.56,90.63,4.36
54.00,2.00,286.75,-14.81,18.00,-0.94,0.81,0.12,90.63,4.36
54.00,0.00,92.12,20.38,-144.19,0.94,0.12,2.56,90.73,4.38
54.00,1.00,312.44,-2.12,-48.19,-1.94,3.56,1.31,90.73,4.38
54.00,2.00,286.75,-14.81,18.06,-1.88,1.19,-0.38,90.73,4.38
54.00,0.00,92.19,20.44,-144.19,0.94,0.62,2.75,90.85,4.40
54.00,1.00,312.38,-2.19,-48.12,-1.88,3.25,1.25,90.85,4.40
54.00,2.00,286.75,-14.81,18.12,-2.25,0.94,0.00,90.85,4.40
54.00,0.00,92.19,20.44,-144.19,0.19,0.94,2.50,90.91,4.42
54.00,1.00,312.38,-2.19,-48.06,-1.06,2.31,1.00,90.91,4.42
54.00,2.00,286.75,-14.81,18.19,-1.31,-0.56,0.12,90.91,4.42
54.00,0.00,92.19,20.50,-144.12,-0.25,1.31,1.88,90.91,4.44
54.00,1.00,312.31,-2.19,-48.00,0.12,1.12,0.62,90.91,4.44
54.00,2.00,286.75,-14.81,18.25,-0.19,-0.31,-0.19,90.91,4.44
54.00,0.00,92.19,20.50,-144.12,-0.50,1.75,0.62,90.83,4.46
54.00,1.00,312.31,-2.25,-47.94,1.06,0.75,0.44,90.83,4.46
54.00,2.00,286.75,-14.81,18.31,1.44,-0.75,0.38,90.83,4.46
54.00,0.00,92.19,20.50,-144.06,0.00,1.81,-0.56,90.73,4.48
54.00,1.00,312.38,-2.25,-47.94,2.25,0.56,0.38,90.73,4.48
54.00,2.00,286.75,-14.81,18.31,2.62,-0.31,0.12,90.73,4.48
54.00,0.00,92.31,20.50,-144.06,1.06,0.88,-0.56,90.65,4.50
54.00,1.00,312.38,-2.25,-47.94,3.06,0.38,0.12,90.65,4.50
54.00,2.00,286.75,-14.81,18.31,3.19,0.12,-0.19,90.65,4.50
54.00,0.00,92.31,20.50,-144.06,2.25,-1.00,0.12,90.60,4.52
54.00,1.00,312.38,-2.25,-48.00,3.38,-0.25,0.19,90.60,4.52
54.00,2.00,286.81,-14.81,18.31,3.69,0.00,-0.88,90.60,4.52
