Iteration,IMUNo,OrientationX (deg),OrientationY,OrientationZ,GyroX (20rad/sec),GyroY,GyroZ,Elbow_Pos (rad),Time (sec)
0.00,0.00,243.94,5.81,-89.31,0.19,-0.06,-0.50,-0.01,1.02
0.00,1.00,277.75,0.94,-74.56,-0.06,0.00,0.19,-0.01,1.02
0.00,2.00,306.50,-19.94,12.62,0.56,-0.12,0.00,-0.01,1.02
0.00,0.00,243.94,5.81,-89.31,0.00,0.19,-0.50,-0.01,1.04
0.00,1.00,277.75,0.94,-74.56,0.25,0.12,0.06,-0.01,1.04
0.00,2.00,306.50,-19.94,12.62,0.31,0.12,-0.06,-0.01,1.04
0.00,0.00,243.94,5.81,-89.31,0.12,0.31,-0.50,-0.02,1.06
0.00,1.00,277.75,0.94,-74.50,-0.06,-0.19,0.25,-0.02,1.06
0.00,2.00,306.50,-19.94,12.62,0.25,-0.06,0.31,-0.02,1.06
0.00,0.00,243.94,5.81,-89.31,0.00,0.50,-0.31,-0.02,1.08
0.00,1.00,277.75,0.94,-74.50,-0.12,0.06,0.19,-0.02,1.08
0.00,2.00,306.50,-19.94,12.62,0.19,0.00,0.38,-0.02,1.08
0.00,0.00,243.94,5.81,-89.31,-0.06,0.00,-0.31,-0.03,1.10
0.00,1.00,277.75,0.94,-74.50,0.06,-0.25,0.06,-0.03,1.10
0.00,2.00,306.50,-19.94,12.62,0.50,-0.19,0.12,-0.03,1.10
0.00,0.00,243.94,5.81,-89.31,0.06,0.19,-0.44,-0.04,1.12
0.00,1.00,277.75,0.94,-74.50,0.25,-0.25,0.12,-0.04,1.12
0.00,2.00,306.56,-19.94,12.62,0.56,0.00,-0.12,-0.04,1.12
0.00,0.00,243.94,5.81,-89.31,0.00,-0.12,-0.25,-0.05,1.14
0.00,1.00,277.75,0.94,-74.50,0.12,-0.06,0.12,-0.05,1.14
0.00,2.00,306.56,-19.94,12.62,0.25,-0.31,-0.25,-0.05,1.14
0.00,0.00,243.94,5.81,-89.31,0.06,0.00,-0.19,-0.06,1.16
0.00,1.00,277.75,0.94,-74.50,0.00,-0.81,0.19,-0.06,1.16
0.00,2.00,306.56,-19.94,12.62,0.56,-0.31,-0.31,-0.06,1.16
0.00,0.00,243.94,5.81,-89.31,0.00,0.31,-0.19,-0.07,1.18
0.00,1.00,277.75,0.94,-74.50,0.12,-0.56,0.50,-0.07,1.18
0.00,2.00,306.56,-19.94,12.62,0.50,-0.38,-0.38,-0.07,1.18
0.00,0.00,243.94,5.81,-89.31,-0.12,0.19,-0.31,-0.08,1.20
0.00,1.00,277.75,0.94,-74.50,0.06,-0.44,0.38,-0.08,1.20
0.00,2.00,306.56,-19.94,12.62,0.38,-0.50,0.00,-0.08,1.20
0.00,0.00,243.94,5.81,-89.31,0.12,0.25,0.00,-0.09,1.22
0.00,1.00,277.81,0.94,-74.50,-0.25,-0.69,0.44,-0.09,1.22
0.00,2.00,306.56,-19.94,12.62,0.62,-0.06,-0.25,-0.09,1.22
0.00,0.00,243.94,5.81,-89.38,-0.06,0.00,-0.12,-0.10,1.24
0.00,1.00,277.81,0.94,-74.50,-0.19,-0.88,-0.06,-0.10,1.24
0.00,2.00,306.56,-19.94,12.62,0.62,0.19,-0.50,-0.10,1.24
0.00,0.00,243.94,5.81,-89.38,-0.12,0.25,-0.19,-0.11,1.26
0.00,1.00,277.81,0.94,-74.50,-0.88,-0.62,-0.19,-0.11,1.26
0.00,2.00,306.56,-19.94,12.62,0.25,0.19,-0.31,-0.11,1.26
0.00,0.00,243.94,5.81,-89.38,-0.25,0.06,-0.12,-0.12,1.28
0.00,1.00,277.81,0.94,-74.50,-0.62,-0.31,0.00,-0.12,1.28
0.00,2.00,306.56,-19.94,12.62,0.19,-0.19,-0.56,-0.12,1.28
0.00,0.00,243.94,5.81,-89.38,-0.50,-0.12,-0.12,-0.13,1.30
0.00,1.00,277.81,0.94,-74.50,-0.19,-0.31,0.62,-0.13,1.30
0.00,2.00,306.56,-19.94,12.62,0.44,-0.56,-0.44,-0.13,1.30
0.00,0.00,243.94,5.81,-89.38,-0.19,-0.19,-0.06,-0.14,1.32
0.00,1.00,277.81,0.94,-74.50,-0.25,-0.19,0.56,-0.14,1.32
0.00,2.00,306.56,-19.94,12.62,0.31,-0.75,-0.06,-0.14,1.32
0.00,0.00,243.94,5.81,-89.38,-0.38,0.19,0.19,-0.16,1.34
0.00,1.00,277.81,0.94,-74.50,0.12,-0.31,0.75,-0.16,1.34
0.00,2.00,306.56,-19.94,12.62,0.38,-0.81,-0.06,-0.16,1.34
0.00,0.00,243.88,5.81,-89.38,-0.06,1.06,0.06,-0.17,1.36
0.00,1.00,277.81,0.94,-74.50,-0.12,-0.25,0.50,-0.17,1.36
0.00,2.00,306.56,-19.94,12.62,0.62,-0.62,-0.12,-0.17,1.36
0.00,0.00,243.88,5.81,-89.38,-0.31,1.25,0.06,-0.19,1.38
0.00,1.00,277.81,0.94,-74.50,-0.56,-0.31,0.44,-0.19,1.38
0.00,2.00,306.56,-19.94,12.56,0.56,-0.44,0.12,-0.19,1.38
0.00,0.00,243.88,5.81,-89.38,0.12,0.75,-0.31,-0.20,1.40
0.00,1.00,277.81,0.94,-74.50,-0.31,0.06,0.56,-0.20,1.40
0.00,2.00,306.56,-19.94,12.56,0.50,-0.25,0.12,-0.20,1.40
0.00,0.00,243.88,5.81,-89.38,-0.19,-0.06,-0.12,-0.21,1.42
0.00,1.00,277.81,0.94,-74.50,0.12,0.12,0.44,-0.21,1.42
0.00,2.00,306.56,-19.94,12.56,0.38,-0.12,0.25,-0.21,1.42
0.00,0.00,243.88,5.81,-89.38,-0.31,0.00,-0.25,-0.22,1.44
0.00,1.00,277.81,0.94,-74.50,0.06,0.12,0.44,-0.22,1.44
0.00,2.00,306.56,-19.94,12.56,0.44,0.00,0.25,-0.22,1.44
0.00,0.00,243.88,5.81,-89.38,-0.19,0.06,-0.50,-0.23,1.46
0.00,1.00,277.81,0.94,-74.50,-0.19,0.50,0.44,-0.23,1.46
0.00,2.00,306.56,-19.94,12.56,0.12,-0.19,0.00,-0.23,1.46
0.00,0.00,243.88,5.81,-89.38,-0.06,0.19,-0.31,-0.24,1.48
0.00,1.00,277.81,0.94,-74.50,-0.06,0.19,0.50,-0.24,1.48
0.00,2.00,306.56,-19.94,12.56,0.56,-0.25,0.19,-0.24,1.48
0.00,0.00,243.88,5.81,-89.38,-0.19,0.31,-0.19,-0.26,1.50
0.00,1.00,277.81,0.94,-74.50,0.25,-0.25,0.44,-0.26,1.50
0.00,2.00,306.56,-19.94,12.56,0.56,-0.19,0.19,-0.26,1.50
0.00,0.00,243.88,5.81,-89.38,-0.25,0.69,-0.06,-0.27,1.52
0.00,1.00,277.81,0.94,-74.50,0.12,-0.06,0.25,-0.27,1.52
0.00,2.00,306.56,-19.94,12.56,0.19,-0.12,0.31,-0.27,1.52
0.00,0.00,243.81,5.81,-89.38,-0.38,1.12,0.12,-0.28,1.54
0.00,1.00,277.81,0.94,-74.50,-0.38,0.06,0.44,-0.28,1.54
0.00,2.00,306.56,-19.94,12.56,0.12,-0.31,0.50,-0.28,1.54
0.00,0.00,243.81,5.81,-89.38,-0.06,1.06,-0.12,-0.28,1.56
0.00,1.00,277.81,0.94,-74.50,0.50,0.00,0.44,-0.28,1.56
0.00,2.00,306.56,-19.94,12.56,-0.06,-0.06,0.38,-0.28,1.56
0.00,0.00,243.81,5.81,-89.38,0.00,0.25,-0.25,-0.29,1.58
0.00,1.00,277.81,0.94,-74.50,0.81,-0.25,0.19,-0.29,1.58
0.00,2.00,306.56,-19.94,12.56,0.44,0.19,0.19,-0.29,1.58
0.00,0.00,243.81,5.81,-89.38,-0.06,-0.38,-0.50,-0.28,1.60
0.00,1.00,277.81,0.94,-74.50,0.62,0.25,-0.12,-0.28,1.60
0.00,2.00,306.56,-19.94,12.56,-0.19,0.19,0.31,-0.28,1.60
0.00,0.00,243.81,5.81,-89.38,-0.12,-0.44,-0.56,-0.28,1.62
0.00,1.00,277.81,0.94,-74.50,0.19,0.69,0.12,-0.28,1.62
0.00,2.00,306.56,-19.94,12.56,-0.19,0.38,0.56,-0.28,1.62
0.00,0.00,243.81,5.81,-89.38,0.06,-0.19,-0.50,-0.30,1.64
0.00,1.00,277.75,0.94,-74.50,0.50,0.81,0.50,-0.30,1.64
0.00,2.00,306.50,-19.94,12.56,0.94,0.06,1.06,-0.30,1.64
0.00,0.00,243.81,5.81,-89.38,0.44,-0.06,-0.50,-0.33,1.66
0.00,1.00,277.75,0.94,-74.50,0.56,1.31,1.12,-0.33,1.66
0.00,2.00,306.50,-19.94,12.56,1.69,0.12,1.38,-0.33,1.66
0.00,0.00,243.81,5.81,-89.38,1.19,-0.69,0.31,-0.35,1.68
0.00,1.00,277.69,0.94,-74.50,1.81,1.56,1.06,-0.35,1.68
0.00,2.00,306.50,-19.94,12.50,2.50,-2.62,2.19,-0.35,1.68
0.00,0.00,243.75,5.88,-89.44,2.62,0.19,2.56,-0.40,1.70
0.00,1.00,277.69,0.94,-74.56,5.06,-0.31,0.94,-0.40,1.70
0.00,2.00,306.44,-19.81,12.44,5.12,-6.50,0.88,-0.40,1.70
0.00,0.00,243.62,5.94,-89.56,8.06,3.19,4.12,-0.33,1.72
0.00,1.00,277.75,0.94,-74.62,5.31,-2.31,0.50,-0.33,1.72
0.00,2.00,306.50,-19.69,12.38,4.44,-10.62,-1.31,-0.33,1.72
0.00,0.00,243.38,6.06,-89.75,13.38,6.12,5.62,-0.20,1.74
0.00,1.00,277.88,0.94,-74.69,4.00,-6.00,-1.06,-0.20,1.74
0.00,2.00,306.50,-19.50,12.25,7.12,-8.31,-0.75,-0.20,1.74
0.00,0.00,243.06,6.19,-90.06,17.12,10.12,7.94,-0.07,1.76
0.00,1.00,278.00,0.88,-74.81,5.25,-8.50,-1.44,-0.07,1.76
0.00,2.00,306.56,-19.38,12.06,10.56,-4.12,-1.69,-0.07,1.76
0.00,0.00,242.69,6.31,-90.44,21.06,11.62,5.75,0.12,1.78
0.00,1.00,278.19,0.88,-74.88,5.06,-7.81,-2.19,0.12,1.78
0.00,2.00,306.62,-19.31,11.81,11.69,-1.56,-2.31,0.12,1.78
0.00,0.00,242.31,6.38,-90.88,25.50,9.44,3.69,0.40,1.80
0.00,1.00,278.38,0.88,-75.00,4.75,-8.06,-2.44,0.40,1.80
0.00,2.00,306.69,-19.31,11.62,11.50,0.88,-1.44,0.40,1.80
0.00,0.00,242.06,6.44,-91.38,27.12,6.88,3.00,0.78,1.82
0.00,1.00,278.50,0.88,-75.06,4.31,-6.75,-2.19,0.78,1.82
0.00,2.00,306.69,-19.38,11.44,7.81,3.19,1.25,0.78,1.82
0.00,0.00,241.88,6.50,-91.94,30.06,2.25,1.50,1.30,1.84
0.00,1.00,278.62,0.88,-75.19,5.25,-6.56,-2.44,1.30,1.84
0.00,2.00,306.69,-19.44,11.31,4.12,2.88,3.56,1.30,1.84
0.00,0.00,241.81,6.50,-92.62,35.44,1.38,-0.94,1.89,1.86
0.00,1.00,278.69,0.88,-75.25,7.06,-5.88,-3.94,1.89,1.86
0.00,2.00,306.62,-19.50,11.19,6.06,1.38,2.06,1.89,1.86
0.00,0.00,241.75,6.50,-93.38,39.62,-1.88,0.62,2.46,1.88
0.00,1.00,279.00,0.75,-75.44,8.94,-5.56,-5.69,2.46,1.88
0.00,2.00,306.69,-19.56,11.00,11.25,3.50,-0.56,2.46,1.88
0.00,0.00,241.62,6.50,-94.12,38.56,-1.44,0.38,2.99,1.90
0.00,1.00,279.06,0.75,-75.56,8.81,-4.31,-6.00,2.99,1.90
0.00,2.00,306.75,-19.62,10.81,11.88,3.69,0.31,2.99,1.90
0.00,0.00,241.56,6.50,-94.88,39.38,-2.56,2.25,3.58,1.92
0.00,1.00,279.31,0.62,-75.75,6.81,-3.25,-5.56,3.58,1.92
0.00,2.00,306.75,-19.69,10.56,9.56,1.62,1.75,3.58,1.92
0.00,0.00,241.44,6.56,-95.69,41.12,-0.06,2.25,4.27,1.94
0.00,1.00,279.44,0.50,-75.88,5.56,-2.56,-4.12,4.27,1.94
0.00,2.00,306.75,-19.69,10.44,7.06,0.50,2.25,4.27,1.94
0.00,0.00,241.38,6.56,-96.50,41.19,-2.25,1.38,4.94,1.96
0.00,1.00,279.50,0.50,-75.94,4.50,-2.50,-2.75,4.94,1.96
0.00,2.00,306.69,-19.69,10.25,7.31,0.06,2.62,4.94,1.96
0.00,0.00,241.31,6.62,-97.25,40.06,-1.56,1.44,5.58,1.98
0.00,1.00,279.62,0.44,-76.06,4.44,-2.69,-2.12,5.58,1.98
0.00,2.00,306.69,-19.69,10.12,8.44,-0.81,2.81,5.58,1.98
0.00,0.00,241.12,6.69,-98.06,40.50,0.62,3.12,6.20,2.00
0.00,1.00,279.69,0.44,-76.12,6.06,-3.00,-1.88,6.20,2.00
0.00,2.00,306.62,-19.69,9.88,9.31,-0.75,3.31,6.20,2.00
0.00,0.00,241.06,6.75,-98.88,42.06,0.50,3.12,6.85,2.02
0.00,1.00,279.75,0.44,-76.25,6.44,-2.69,-1.81,6.85,2.02
0.00,2.00,306.62,-19.69,9.69,9.50,-1.19,3.50,6.85,2.02
0.00,0.00,240.94,6.75,-99.69,42.75,-2.12,2.06,7.56,2.04
0.00,1.00,279.81,0.38,-76.38,6.31,-2.00,-1.31,7.56,2.04
0.00,2.00,306.56,-19.69,9.50,7.50,-1.69,3.38,7.56,2.04
0.00,0.00,240.88,6.75,-100.50,43.19,-3.62,-0.31,8.30,2.06
0.00,1.00,279.88,0.38,-76.44,4.56,-0.62,-0.88,8.30,2.06
0.00,2.00,306.56,-19.62,9.38,5.94,-1.75,2.75,8.30,2.06
0.00,0.00,241.31,6.69,-101.38,42.75,-9.06,-2.44,9.03,2.08
0.00,1.00,279.88,0.38,-76.56,3.81,-0.75,-0.38,9.03,2.08
0.00,2.00,306.50,-19.62,9.19,6.56,-2.75,2.19,9.03,2.08
0.00,0.00,241.56,6.56,-102.25,44.44,-15.12,-3.38,9.78,2.10
0.00,1.00,279.88,0.38,-76.62,4.00,-0.06,-0.19,9.78,2.10
0.00,2.00,306.50,-19.56,9.06,6.69,-3.31,2.94,9.78,2.10
0.00,0.00,241.75,6.50,-102.69,45.50,-16.19,-3.00,10.55,2.12
0.00,1.00,279.88,0.38,-76.69,3.75,-0.31,0.00,10.55,2.12
0.00,2.00,306.44,-19.50,8.88,6.81,-4.12,2.44,10.55,2.12
0.00,0.00,242.44,6.31,-104.06,45.38,-14.00,-2.56,11.34,2.14
0.00,1.00,279.88,0.38,-76.75,3.56,-0.31,-0.12,11.34,2.14
0.00,2.00,306.38,-19.38,8.75,5.94,-4.88,3.00,11.34,2.14
0.00,0.00,242.69,6.25,-105.00,45.38,-10.94,-3.69,12.17,2.16
0.00,1.00,279.88,0.38,-76.81,3.31,-0.94,-0.25,12.17,2.16
0.00,2.00,306.38,-19.31,8.62,4.19,-6.00,2.19,12.17,2.16
0.00,0.00,242.88,6.12,-105.94,47.94,-10.31,-2.81,13.04,2.18
0.00,1.00,279.94,0.38,-76.88,2.56,-2.38,-1.56,13.04,2.18
0.00,2.00,306.31,-19.19,8.56,4.25,-6.00,1.38,13.04,2.18
0.00,0.00,242.94,6.06,-106.88,50.00,-7.06,-1.12,13.91,2.20
0.00,1.00,280.00,0.38,-76.94,2.69,-2.81,-1.75,13.91,2.20
0.00,2.00,306.31,-19.12,8.44,6.38,-4.31,0.81,13.91,2.20
0.00,0.00,242.94,6.00,-107.88,50.75,-5.88,0.25,14.77,2.22
0.00,1.00,280.12,0.31,-77.00,2.94,-3.75,-2.25,14.77,2.22
0.00,2.00,306.38,-19.06,8.31,8.06,-3.25,0.00,14.77,2.22
0.00,0.00,242.94,6.00,-108.88,51.06,-5.44,0.44,15.62,2.24
0.00,1.00,280.19,0.31,-77.06,3.06,-3.50,-2.19,15.62,2.24
0.00,2.00,306.38,-19.00,8.12,8.19,-3.38,0.38,15.62,2.24
0.00,0.00,242.94,5.94,-109.38,50.75,-4.31,1.56,16.49,2.26
0.00,1.00,280.31,0.31,-77.12,2.88,-3.00,-1.94,16.49,2.26
0.00,2.00,306.38,-18.94,8.00,7.31,-3.44,1.62,16.49,2.26
0.00,0.00,242.88,5.94,-110.38,51.31,-3.88,1.75,17.39,2.28
0.00,1.00,280.38,0.25,-77.12,1.81,-1.88,-2.06,17.39,2.28
0.00,2.00,306.31,-18.81,7.88,6.25,-4.31,2.62,17.39,2.28
0.00,0.00,242.75,6.00,-111.38,52.19,-2.62,1.94,18.33,2.30
0.00,1.00,280.44,0.25,-77.19,2.00,-1.81,-2.19,18.33,2.30
0.00,2.00,306.31,-18.75,7.69,5.38,-4.75,2.56,18.33,2.30
0.00,0.00,242.62,6.00,-112.38,52.12,-1.56,1.94,19.25,2.32
0.00,1.00,280.50,0.19,-77.25,2.06,-2.31,-1.81,19.25,2.32
0.00,2.00,306.25,-18.69,7.56,6.25,-4.69,3.12,19.25,2.32
0.00,0.00,242.44,6.00,-113.38,50.75,1.44,0.88,20.13,2.34
0.00,1.00,280.56,0.19,-77.25,1.94,-2.25,-1.44,20.13,2.34
0.00,2.00,306.19,-18.62,7.38,6.88,-4.00,4.31,20.13,2.34
0.00,0.00,242.19,6.06,-114.38,50.88,2.06,0.81,20.99,2.36
0.00,1.00,280.62,0.12,-77.31,1.56,-1.56,-1.31,20.99,2.36
0.00,2.00,306.12,-18.56,7.19,7.62,-3.19,5.94,20.99,2.36
0.00,0.00,241.94,6.06,-115.38,51.50,1.75,1.38,21.89,2.38
0.00,1.00,280.69,0.12,-77.31,0.19,-0.44,-1.38,21.89,2.38
0.00,2.00,306.00,-18.56,7.00,6.38,-3.00,6.69,21.89,2.38
0.00,0.00,241.62,6.12,-116.38,51.31,0.69,0.62,22.81,2.40
0.00,1.00,280.69,0.12,-77.31,0.00,0.06,-1.62,22.81,2.40
0.00,2.00,305.88,-18.50,6.81,5.69,-2.75,6.31,22.81,2.40
0.00,0.00,241.44,6.12,-117.38,50.75,0.75,0.06,23.70,2.42
0.00,1.00,280.75,0.06,-77.31,0.50,0.81,-1.69,23.70,2.42
0.00,2.00,305.75,-18.44,6.69,6.06,-2.50,7.12,23.70,2.42
0.00,0.00,241.25,6.12,-118.31,48.06,0.19,-1.81,24.55,2.44
0.00,1.00,280.75,0.06,-77.31,0.81,1.00,-1.25,24.55,2.44
0.00,2.00,305.62,-18.44,6.50,5.38,-1.94,6.75,24.55,2.44
0.00,0.00,241.12,6.06,-119.25,48.00,0.00,-1.94,25.45,2.46
0.00,1.00,280.75,0.00,-77.31,-0.12,1.50,-1.00,25.45,2.46
0.00,2.00,305.50,-18.44,6.38,3.31,-2.06,6.81,25.45,2.46
0.00,0.00,240.94,6.06,-120.19,48.25,-0.12,-2.06,26.36,2.48
0.00,1.00,280.75,0.00,-77.31,-0.62,2.19,-1.00,26.36,2.48
0.00,2.00,305.38,-18.38,6.25,2.56,-1.81,7.81,26.36,2.48
0.00,0.00,240.81,6.00,-121.06,46.81,-1.94,-3.25,27.25,2.50
0.00,1.00,280.75,0.00,-77.31,-0.75,2.19,-0.94,27.25,2.50
0.00,2.00,305.19,-18.38,6.19,2.25,-1.19,8.44,27.25,2.50
0.00,0.00,240.81,5.88,-121.94,45.81,-2.31,-4.00,28.14,2.52
0.00,1.00,280.69,0.00,-77.31,-0.19,2.19,-0.62,28.14,2.52
0.00,2.00,305.06,-18.38,6.06,1.62,-2.12,8.06,28.14,2.52
0.00,0.00,241.50,5.75,-122.81,43.62,-5.56,-6.06,29.00,2.54
0.00,1.00,280.69,0.00,-77.31,-0.38,2.44,-0.94,29.00,2.54
0.00,2.00,304.88,-18.38,6.00,0.31,-1.44,7.88,29.00,2.54
0.00,0.00,241.69,5.56,-123.62,42.81,-6.38,-6.56,29.84,2.56
0.00,1.00,280.69,-0.06,-77.31,-0.88,2.19,-1.12,29.84,2.56
0.00,2.00,304.75,-18.38,5.94,0.69,-0.69,8.12,29.84,2.56
0.00,0.00,242.38,5.38,-124.44,42.38,-7.75,-6.19,30.66,2.58
0.00,1.00,280.69,-0.06,-77.31,-0.69,2.00,-1.19,30.66,2.58
0.00,2.00,304.56,-18.38,5.88,1.50,1.62,7.94,30.66,2.58
0.00,0.00,242.62,5.19,-125.31,42.25,-7.94,-5.25,31.54,2.60
0.00,1.00,280.69,-0.12,-77.25,-1.69,2.69,-1.44,31.54,2.60
0.00,2.00,304.44,-18.44,5.81,-1.44,1.81,7.19,31.54,2.60
0.00,0.00,242.75,5.06,-126.12,41.50,-6.06,-4.50,32.42,2.62
0.00,1.00,280.62,-0.19,-77.25,-2.31,3.38,-1.62,32.42,2.62
0.00,2.00,304.31,-18.50,5.81,-2.62,1.06,7.50,32.42,2.62
0.00,0.00,243.38,4.94,-126.88,39.56,-4.56,-5.06,33.26,2.64
0.00,1.00,280.62,-0.19,-77.19,-2.38,2.94,-1.31,33.26,2.64
0.00,2.00,304.12,-18.50,5.81,-2.31,0.56,7.44,33.26,2.64
0.00,0.00,243.44,4.81,-127.62,37.69,-2.88,-4.62,34.03,2.66
0.00,1.00,280.62,-0.25,-77.12,-2.69,2.81,-1.00,34.03,2.66
0.00,2.00,304.00,-18.50,5.75,-1.19,0.00,8.19,34.03,2.66
0.00,0.00,243.94,4.75,-128.31,36.44,-0.94,-3.69,34.77,2.68
0.00,1.00,280.56,-0.25,-77.06,-3.19,2.50,-0.25,34.77,2.68
0.00,2.00,303.81,-18.56,5.75,-0.62,-0.38,8.94,34.77,2.68
0.00,0.00,243.88,4.69,-129.00,35.56,-1.00,-3.00,35.55,2.70
0.00,1.00,280.50,-0.31,-77.00,-3.50,3.19,0.12,35.55,2.70
0.00,2.00,303.62,-18.56,5.69,-3.12,-1.38,7.75,35.55,2.70
0.00,0.00,243.81,4.62,-129.69,33.38,-1.00,-2.88,36.26,2.72
0.00,1.00,280.44,-0.31,-76.94,-3.56,4.12,0.06,36.26,2.72
0.00,2.00,303.50,-18.50,5.69,-2.06,-1.31,7.81,36.26,2.72
0.00,0.00,244.00,4.62,-130.25,32.88,-1.25,-2.12,36.99,2.74
0.00,1.00,280.44,-0.31,-76.88,-3.25,2.94,-0.12,36.99,2.74
0.00,2.00,303.31,-18.50,5.75,-3.94,-1.50,6.81,36.99,2.74
0.00,0.00,243.94,4.56,-130.88,31.69,-0.94,-2.19,37.66,2.76
0.00,1.00,280.38,-0.31,-76.81,-2.31,2.06,-0.25,37.66,2.76
0.00,2.00,303.19,-18.50,5.75,-1.62,-1.69,5.94,37.66,2.76
0.00,0.00,244.25,4.56,-131.44,30.50,-0.62,-2.94,38.25,2.78
0.00,1.00,280.38,-0.31,-76.75,-2.50,1.19,0.38,38.25,2.78
0.00,2.00,303.06,-18.50,5.69,0.81,-1.06,6.12,38.25,2.78
0.00,0.00,244.19,4.50,-131.94,28.94,-0.56,-2.88,38.83,2.80
0.00,1.00,280.31,-0.38,-76.75,-2.00,2.31,0.75,38.83,2.80
0.00,2.00,302.94,-18.44,5.62,0.06,-1.94,6.88,38.83,2.80
0.00,0.00,244.06,4.44,-132.50,28.56,-0.44,-2.31,39.43,2.82
0.00,1.00,280.31,-0.31,-76.69,-2.94,2.12,0.94,39.43,2.82
0.00,2.00,302.81,-18.44,5.62,-1.44,-2.38,6.38,39.43,2.82
0.00,0.00,244.38,4.44,-133.06,29.06,-0.94,-1.38,40.05,2.84
0.00,1.00,280.25,-0.31,-76.62,-3.31,2.44,0.44,40.05,2.84
0.00,2.00,302.69,-18.38,5.62,-1.69,-2.31,5.94,40.05,2.84
0.00,0.00,244.31,4.38,-133.62,26.94,-0.69,-2.75,40.61,2.86
0.00,1.00,280.19,-0.38,-76.56,-3.69,2.19,0.06,40.61,2.86
0.00,2.00,302.56,-18.38,5.62,-1.19,-1.19,5.56,40.61,2.86
0.00,0.00,244.69,4.31,-134.12,25.81,-3.12,-3.88,41.14,2.88
0.00,1.00,280.19,-0.38,-76.50,-2.81,2.38,-0.12,41.14,2.88
0.00,2.00,302.50,-18.38,5.56,-0.88,-0.38,4.69,41.14,2.88
0.00,0.00,244.81,4.19,-134.62,27.12,-3.88,-2.44,41.70,2.90
0.00,1.00,280.12,-0.38,-76.44,-2.50,2.25,0.00,41.70,2.90
0.00,2.00,302.38,-18.38,5.56,-0.56,-0.44,5.06,41.70,2.90
0.00,0.00,76.69,4.12,-135.12,27.31,-4.38,-1.88,42.27,2.92
0.00,1.00,280.12,-0.38,-76.38,-2.69,2.31,0.12,42.27,2.92
0.00,2.00,302.25,-18.38,5.56,-1.62,-1.75,5.12,42.27,2.92
0.00,0.00,77.00,4.00,-135.69,26.31,-3.81,-3.06,42.80,2.94
0.00,1.00,280.06,-0.38,-76.31,-2.88,2.38,0.25,42.80,2.94
0.00,2.00,302.19,-18.38,5.50,-0.19,-1.62,4.81,42.80,2.94
0.00,0.00,76.94,3.94,-136.19,25.75,-2.75,-3.75,43.32,2.96
0.00,1.00,280.00,-0.38,-76.25,-3.12,1.81,0.38,43.32,2.96
0.00,2.00,302.06,-18.38,5.50,0.19,-0.38,5.00,43.32,2.96
0.00,0.00,77.19,3.81,-136.69,25.62,-3.56,-4.69,43.87,2.98
0.00,1.00,280.00,-0.44,-76.19,-2.88,1.12,-0.19,43.87,2.98
0.00,2.00,302.00,-18.38,5.50,-2.19,-1.12,4.62,43.87,2.98
0.00,0.00,77.06,3.69,-137.12,25.31,-3.31,-5.44,44.43,3.00
0.00,1.00,280.00,-0.44,-76.12,-3.25,1.44,-0.19,44.43,3.00
0.00,2.00,301.88,-18.38,5.50,-2.38,-0.56,4.31,44.43,3.00
0.00,0.00,77.00,3.56,-137.62,27.06,-4.69,-5.69,44.99,3.02
0.00,1.00,279.94,-0.44,-76.06,-3.12,1.00,-0.62,44.99,3.02
0.00,2.00,301.81,-18.38,5.56,-1.25,0.88,3.69,44.99,3.02
0.00,0.00,77.25,3.44,-138.25,30.06,-6.81,-4.88,45.63,3.04
0.00,1.00,279.94,-0.44,-76.00,-3.06,1.00,-0.56,45.63,3.04
0.00,2.00,301.75,-18.38,5.56,-2.06,0.69,3.69,45.63,3.04
0.00,0.00,77.19,3.25,-138.81,30.44,-7.38,-5.38,46.25,3.06
0.00,1.00,279.94,-0.44,-75.94,-3.31,1.12,0.00,46.25,3.06
0.00,2.00,301.62,-18.38,5.56,-0.44,-0.88,4.88,46.25,3.06
0.00,0.00,77.44,3.06,-139.38,29.50,-7.19,-5.88,46.88,3.08
0.00,1.00,279.94,-0.44,-75.94,-2.88,0.75,-0.12,46.88,3.08
0.00,2.00,301.56,-18.38,5.56,-2.00,0.06,4.88,46.88,3.08
0.00,0.00,77.31,2.88,-139.94,28.38,-5.38,-6.56,47.45,3.10
0.00,1.00,279.88,-0.44,-75.88,-2.00,1.19,-0.50,47.45,3.10
0.00,2.00,301.44,-18.38,5.50,0.19,-0.12,4.19,47.45,3.10
0.00,0.00,77.19,2.75,-140.50,29.62,-4.12,-5.75,48.02,3.12
0.00,1.00,279.88,-0.44,-75.81,-1.56,1.06,-0.12,48.02,3.12
0.00,2.00,301.38,-18.38,5.50,0.75,-0.81,4.44,48.02,3.12
0.00,0.00,77.38,2.69,-141.12,30.31,-2.62,-4.44,48.63,3.14
0.00,1.00,279.88,-0.44,-75.81,-1.88,1.25,0.62,48.63,3.14
0.00,2.00,301.25,-18.44,5.44,0.19,-0.44,5.31,48.63,3.14
0.00,0.00,77.31,2.56,-141.69,29.88,-2.56,-4.19,49.28,3.16
0.00,1.00,279.81,-0.44,-75.75,-2.88,1.38,0.56,49.28,3.16
0.00,2.00,301.19,-18.38,5.44,-2.62,-2.00,5.25,49.28,3.16
0.00,0.00,77.44,2.50,-142.25,29.19,-1.06,-5.00,49.88,3.18
0.00,1.00,279.81,-0.44,-75.69,-2.62,2.12,0.31,49.88,3.18
0.00,2.00,301.06,-18.38,5.44,-0.88,-2.19,4.12,49.88,3.18
0.00,0.00,77.31,2.44,-142.81,29.12,-1.44,-5.31,50.46,3.20
0.00,1.00,279.81,-0.44,-75.69,-1.31,0.44,-0.06,50.46,3.20
0.00,2.00,301.00,-18.31,5.44,-0.06,-1.56,4.00,50.46,3.20
0.00,0.00,77.19,2.31,-143.38,28.25,-1.19,-5.56,51.00,3.22
0.00,1.00,279.81,-0.44,-75.62,-1.19,0.94,0.19,51.00,3.22
0.00,2.00,300.94,-18.31,5.38,1.12,-0.88,4.00,51.00,3.22
0.00,0.00,77.19,2.25,-143.88,26.25,0.31,-5.31,51.47,3.24
0.00,1.00,279.75,-0.44,-75.62,-1.25,0.62,0.31,51.47,3.24
0.00,2.00,300.81,-18.31,5.31,2.81,-0.75,4.75,51.47,3.24
0.00,0.00,77.06,2.19,-144.38,26.00,-1.00,-4.94,51.96,3.26
0.00,1.00,279.75,-0.44,-75.62,-0.94,1.38,0.81,51.96,3.26
0.00,2.00,300.75,-18.31,5.25,1.81,-1.06,5.38,51.96,3.26
0.00,0.00,77.19,2.12,-144.94,28.62,-1.38,-3.44,52.52,3.28
0.00,1.00,279.69,-0.44,-75.56,-2.44,1.88,1.00,52.52,3.28
0.00,2.00,300.62,-18.25,5.19,0.50,-3.50,5.06,52.52,3.28
0.00,0.00,77.12,2.12,-145.50,29.50,0.88,-2.75,53.09,3.30
0.00,1.00,279.62,-0.44,-75.50,-2.06,1.56,1.25,53.09,3.30
0.00,2.00,300.56,-18.19,5.19,0.75,-4.31,4.94,53.09,3.30
0.00,0.00,77.06,2.12,-146.00,27.38,1.00,-4.31,53.59,3.32
0.00,1.00,279.62,-0.44,-75.50,-1.56,1.12,0.94,53.59,3.32
0.00,2.00,300.44,-18.12,5.12,2.31,-3.44,4.94,53.59,3.32
0.00,0.00,76.94,2.12,-146.50,24.38,2.94,-5.31,54.00,3.34
0.00,1.00,279.62,-0.38,-75.50,0.25,-1.38,0.88,54.00,3.34
0.00,2.00,300.38,-18.06,5.00,4.06,-3.31,3.94,54.00,3.34
0.00,0.00,76.75,2.12,-146.88,21.75,4.88,-6.50,54.34,3.36
0.00,1.00,279.56,-0.38,-75.50,0.31,-0.75,1.06,54.34,3.36
0.00,2.00,300.31,-18.00,4.88,4.56,-3.38,4.50,54.34,3.36
0.00,0.00,76.62,2.12,-147.31,21.25,3.12,-5.69,54.68,3.38
0.00,1.00,279.56,-0.38,-75.50,-0.25,0.12,1.62,54.68,3.38
0.00,2.00,300.19,-17.94,4.81,4.31,-4.06,5.19,54.68,3.38
0.00,0.00,76.50,2.12,-147.75,22.88,3.12,-5.00,55.06,3.40
0.00,1.00,279.50,-0.31,-75.50,-1.50,0.94,1.69,55.06,3.40
0.00,2.00,300.12,-17.88,4.69,3.81,-5.00,5.25,55.06,3.40
0.00,0.00,76.38,2.06,-148.19,24.38,1.62,-5.81,55.48,3.42
0.00,1.00,279.50,-0.31,-75.44,-2.00,0.94,1.56,55.48,3.42
0.00,2.00,300.00,-17.75,4.56,3.44,-5.31,5.12,55.48,3.42
0.00,0.00,76.31,2.06,-148.69,25.31,0.56,-6.12,55.89,3.44
0.00,1.00,279.44,-0.25,-75.44,-0.88,-0.38,1.31,55.89,3.44
0.00,2.00,299.94,-17.69,4.44,5.06,-3.56,5.56,55.89,3.44
0.00,0.00,76.12,2.00,-149.12,24.62,1.75,-6.50,56.30,3.46
0.00,1.00,279.44,-0.25,-75.44,-0.62,-0.75,1.19,56.30,3.46
0.00,2.00,299.81,-17.62,4.31,4.00,-2.69,5.25,56.30,3.46
0.00,0.00,76.00,2.00,-149.56,20.88,3.62,-8.31,56.65,3.48
0.00,1.00,279.38,-0.25,-75.38,-0.94,0.06,1.19,56.65,3.48
0.00,2.00,299.75,-17.62,4.25,3.38,-2.50,5.50,56.65,3.48
0.00,0.00,75.75,1.94,-149.94,18.56,3.88,-8.81,56.94,3.50
0.00,1.00,279.38,-0.19,-75.38,-0.25,0.94,1.69,56.94,3.50
0.00,2.00,299.62,-17.56,4.12,4.12,-2.25,6.25,56.94,3.50
0.00,0.00,75.62,1.94,-150.31,19.69,3.75,-6.81,57.26,3.52
0.00,1.00,279.31,-0.19,-75.38,-0.81,1.44,2.06,57.26,3.52
0.00,2.00,299.50,-17.56,4.00,3.62,-1.56,6.88,57.26,3.52
0.00,0.00,75.56,1.94,-150.69,21.62,4.00,-4.50,57.66,3.54
0.00,1.00,279.25,-0.12,-75.31,-2.38,1.94,2.25,57.66,3.54
0.00,2.00,299.38,-17.50,3.94,1.69,-2.50,7.38,57.66,3.54
0.00,0.00,75.44,2.00,-151.06,19.50,5.75,-5.62,58.05,3.56
0.00,1.00,279.12,-0.06,-75.31,-2.62,2.38,2.88,58.05,3.56
0.00,2.00,299.25,-17.44,3.88,0.12,-3.19,6.81,58.05,3.56
0.00,0.00,75.25,2.06,-151.44,17.50,6.50,-6.19,58.38,3.58
0.00,1.00,279.06,-0.06,-75.19,-3.56,1.62,2.75,58.38,3.58
0.00,2.00,299.12,-17.44,3.81,0.69,-2.50,6.38,58.38,3.58
0.00,0.00,75.06,2.19,-151.69,12.62,9.56,-7.25,58.61,3.60
0.00,1.00,279.00,0.00,-75.19,-2.56,1.56,2.88,58.61,3.60
0.00,2.00,299.00,-17.38,3.75,1.44,-3.00,7.31,58.61,3.60
0.00,0.00,74.88,2.25,-151.88,12.31,9.19,-6.75,58.83,3.62
0.00,1.00,278.94,0.00,-75.12,-2.69,2.12,3.12,58.83,3.62
0.00,2.00,298.81,-17.31,3.69,1.38,-3.25,7.06,58.83,3.62
0.00,0.00,74.75,2.44,-152.12,14.44,10.69,-3.56,59.07,3.64
0.00,1.00,278.81,0.06,-75.06,-2.75,2.81,3.50,59.07,3.64
0.00,2.00,298.69,-17.25,3.56,2.12,-3.38,8.12,59.07,3.64
0.00,0.00,74.62,2.56,-152.44,14.44,8.56,-2.31,59.38,3.66
0.00,1.00,278.69,0.06,-75.00,-3.50,3.06,3.19,59.38,3.66
0.00,2.00,298.56,-17.19,3.56,-0.88,-2.44,7.50,59.38,3.66
0.00,0.00,74.56,2.62,-152.62,10.25,6.88,-3.12,59.62,3.68
0.00,1.00,278.56,0.12,-74.94,-3.75,3.81,3.19,59.62,3.68
0.00,2.00,298.44,-17.19,3.56,-2.06,-1.44,6.44,59.62,3.68
0.00,0.00,74.44,2.75,-152.75,6.31,8.38,-2.88,59.77,3.70
0.00,1.00,278.44,0.19,-74.88,-3.19,3.69,3.31,59.77,3.70
0.00,2.00,298.69,-17.19,3.50,-1.19,-1.31,7.25,59.77,3.70
0.00,0.00,74.38,2.88,-152.88,3.25,9.31,-0.88,59.88,3.72
0.00,1.00,278.31,0.19,-74.81,-1.50,4.69,4.19,59.88,3.72
0.00,2.00,298.56,-17.12,3.50,-1.81,-2.38,8.56,59.88,3.72
0.00,0.00,74.31,3.00,-152.88,1.06,10.00,1.44,59.96,3.74
0.00,1.00,278.12,0.25,-74.75,-2.38,6.25,4.69,59.96,3.74
0.00,2.00,298.38,-17.06,3.50,-3.25,-2.56,7.31,59.96,3.74
0.00,0.00,74.31,3.31,-152.81,-3.06,10.12,2.12,60.02,3.76
0.00,1.00,277.94,0.31,-74.69,-4.19,7.31,3.81,60.02,3.76
0.00,2.00,298.31,-17.06,3.56,-5.94,-0.81,6.06,60.02,3.76
0.00,0.00,74.31,3.38,-152.75,-6.81,10.31,2.12,60.02,3.78
0.00,1.00,277.75,0.31,-74.62,-5.31,7.50,3.19,60.02,3.78
0.00,2.00,298.19,-17.06,3.62,-6.75,-0.38,5.19,60.02,3.78
0.00,0.00,74.31,3.62,-152.56,-14.50,10.12,0.50,59.85,3.80
0.00,1.00,277.62,0.38,-74.50,-4.69,7.31,3.50,59.85,3.80
0.00,2.00,298.19,-17.06,3.75,-6.31,-0.44,6.25,59.85,3.80
0.00,0.00,74.31,3.75,-152.25,-17.44,8.06,1.50,59.65,3.82
0.00,1.00,277.44,0.38,-74.44,-4.50,7.50,3.94,59.65,3.82
0.00,2.00,298.06,-17.06,3.81,-7.31,0.56,6.19,59.65,3.82
0.00,0.00,74.38,3.94,-151.94,-17.31,5.50,3.75,59.52,3.84
0.00,1.00,277.25,0.44,-74.31,-5.75,8.19,3.69,59.52,3.84
0.00,2.00,297.94,-17.12,3.94,-10.75,1.75,5.75,59.52,3.84
0.00,0.00,74.44,4.06,-151.56,-19.12,2.25,3.44,59.37,3.86
0.00,1.00,277.00,0.44,-74.19,-7.75,8.94,3.69,59.37,3.86
0.00,2.00,297.81,-17.12,4.12,-11.50,1.94,5.88,59.37,3.86
0.00,0.00,74.50,4.06,-151.19,-23.31,-0.88,1.50,59.16,3.88
0.00,1.00,276.81,0.44,-74.00,-8.38,9.50,3.31,59.16,3.88
0.00,2.00,297.69,-17.19,4.31,-12.75,2.50,5.88,59.16,3.88
0.00,0.00,74.56,4.06,-150.69,-26.69,-2.81,0.00,58.87,3.90
0.00,1.00,276.62,0.50,-73.88,-7.25,8.31,2.81,58.87,3.90
0.00,2.00,297.69,-17.25,4.56,-12.56,2.88,5.38,58.87,3.90
0.00,0.00,74.62,4.00,-150.19,-28.44,-3.75,-0.12,58.56,3.92
0.00,1.00,276.50,0.50,-73.75,-6.56,7.44,2.50,58.56,3.92
0.00,2.00,297.56,-17.38,4.75,-12.50,5.06,4.88,58.56,3.92
0.00,0.00,74.62,3.94,-149.62,-28.62,-4.19,0.00,58.24,3.94
0.00,1.00,276.31,0.50,-73.56,-7.62,8.12,2.38,58.24,3.94
0.00,2.00,297.38,-17.50,4.94,-12.88,6.12,5.25,58.24,3.94
0.00,0.00,74.69,3.88,-149.06,-28.38,-3.88,0.31,57.95,3.96
0.00,1.00,276.12,0.50,-73.44,-9.31,9.00,2.31,57.95,3.96
0.00,2.00,297.38,-17.62,5.19,-13.69,7.44,5.44,57.95,3.96
0.00,0.00,74.75,3.81,-148.56,-28.38,-4.44,-0.06,57.65,3.98
0.00,1.00,275.94,0.44,-73.19,-9.75,10.31,2.00,57.65,3.98
0.00,2.00,297.25,-17.75,5.44,-13.62,6.25,5.62,57.65,3.98
0.00,0.00,74.75,3.69,-148.00,-27.25,-3.38,0.62,57.37,4.00
0.00,1.00,275.81,0.44,-73.06,-8.38,8.81,1.19,57.37,4.00
0.00,2.00,297.25,-17.88,5.62,-13.19,5.56,5.19,57.37,4.00
0.00,0.00,74.81,3.69,-147.50,-27.50,-3.44,-0.06,57.04,4.02
0.00,1.00,275.69,0.38,-72.88,-6.88,7.81,0.50,57.04,4.02
0.00,2.00,297.19,-18.00,5.88,-10.94,6.94,3.50,57.04,4.02
0.00,0.00,74.75,3.62,-146.94,-27.50,-3.50,-0.50,56.65,4.04
0.00,1.00,275.62,0.38,-72.81,-6.19,7.19,0.31,56.65,4.04
0.00,2.00,297.06,-18.19,6.00,-8.00,8.12,3.62,56.65,4.04
0.00,0.00,74.75,3.56,-146.44,-28.25,-1.25,-1.25,56.22,4.06
0.00,1.00,275.44,0.31,-72.69,-6.31,6.44,0.88,56.22,4.06
0.00,2.00,297.00,-18.31,6.12,-6.62,9.00,4.75,56.22,4.06
0.00,0.00,74.75,3.50,-145.88,-29.00,-0.44,-1.75,55.79,4.08
0.00,1.00,275.38,0.31,-72.62,-6.81,7.69,1.44,55.79,4.08
0.00,2.00,296.94,-18.50,6.25,-7.44,8.19,5.38,55.79,4.08
0.00,0.00,74.75,3.50,-145.31,-27.50,-0.69,-1.88,55.44,4.10
0.00,1.00,275.19,0.31,-72.38,-7.06,7.06,0.69,55.44,4.10
0.00,2.00,297.06,-18.62,6.38,-10.06,5.56,4.44,55.44,4.10
0.00,0.00,74.75,3.50,-144.88,-23.69,-0.25,-0.81,55.13,4.12
0.00,1.00,275.12,0.25,-72.25,-5.75,5.81,0.00,55.13,4.12
0.00,2.00,296.94,-18.75,6.56,-8.25,5.75,3.31,55.13,4.12
0.00,0.00,74.81,3.50,-144.44,-22.06,0.25,-0.12,54.80,4.14
0.00,1.00,275.06,0.25,-72.25,-4.50,4.31,0.25,54.80,4.14
0.00,2.00,296.88,-18.88,6.62,-5.56,7.50,3.44,54.80,4.14
0.00,0.00,74.81,3.50,-144.06,-20.88,1.38,0.81,54.50,4.16
0.00,1.00,275.00,0.19,-72.06,-5.38,4.75,0.62,54.50,4.16
0.00,2.00,296.94,-19.06,6.75,-6.00,8.19,3.50,54.50,4.16
0.00,0.00,74.81,3.62,-143.62,-21.88,4.62,1.50,54.18,4.18
0.00,1.00,274.94,0.19,-72.00,-6.81,6.44,1.25,54.18,4.18
0.00,2.00,296.88,-19.19,6.81,-5.81,8.25,4.50,54.18,4.18
0.00,0.00,74.81,3.69,-143.12,-25.19,4.56,-0.19,53.74,4.20
0.00,1.00,274.75,0.19,-71.81,-6.56,7.75,1.69,53.74,4.20
0.00,2.00,296.94,-19.38,6.88,-3.38,7.56,5.38,53.74,4.20
0.00,0.00,74.75,3.69,-142.62,-26.12,2.94,-2.06,53.36,4.22
0.00,1.00,274.62,0.12,-71.69,-5.88,6.94,1.19,53.36,4.22
0.00,2.00,296.81,-19.50,6.94,-6.75,5.50,4.25,53.36,4.22
0.00,0.00,74.94,3.69,-142.19,-21.00,0.50,-0.38,53.09,4.24
0.00,1.00,274.56,0.12,-71.62,-5.62,5.38,-0.31,53.09,4.24
0.00,2.00,296.75,-19.56,7.06,-7.94,4.25,2.75,53.09,4.24
0.00,0.00,74.94,3.75,-141.88,-18.69,1.19,1.06,52.83,4.26
0.00,1.00,274.50,0.06,-71.50,-4.94,4.00,-1.06,52.83,4.26
0.00,2.00,297.06,-19.69,7.19,-5.31,5.56,1.19,52.83,4.26
0.00,0.00,75.00,3.75,-141.56,-16.38,-1.12,1.25,52.58,4.28
0.00,1.00,274.50,0.06,-71.44,-4.12,3.69,-1.25,52.58,4.28
0.00,2.00,297.06,-19.81,7.31,-3.88,5.75,0.81,52.58,4.28
0.00,0.00,75.12,3.81,-141.25,-15.31,2.56,2.06,52.34,4.30
0.00,1.00,274.44,0.00,-71.31,-4.56,3.88,-1.06,52.34,4.30
0.00,2.00,297.00,-19.88,7.38,-3.50,4.69,1.06,52.34,4.30
0.00,0.00,75.12,3.88,-140.94,-14.94,4.75,1.56,52.10,4.32
0.00,1.00,274.38,0.00,-71.25,-3.88,2.94,-1.06,52.10,4.32
0.00,2.00,297.00,-20.00,7.44,-3.12,4.31,1.19,52.10,4.32
0.00,0.00,75.12,4.00,-140.69,-13.69,4.19,1.25,51.89,4.34
0.00,1.00,274.38,0.00,-71.19,-3.38,2.00,-0.94,51.89,4.34
0.00,2.00,297.00,-20.06,7.50,-3.00,3.12,0.00,51.89,4.34
0.00,0.00,75.12,4.06,-140.44,-12.56,5.25,0.69,51.70,4.36
0.00,1.00,274.38,-0.06,-71.12,-3.62,1.81,-1.06,51.70,4.36
0.00,2.00,297.00,-20.06,7.56,-2.81,3.44,-0.25,51.70,4.36
0.00,0.00,75.12,4.12,-140.19,-11.38,4.12,0.50,51.52,4.38
0.00,1.00,274.38,-0.06,-71.06,-3.50,0.81,-1.06,51.52,4.38
0.00,2.00,297.00,-20.12,7.62,-2.56,2.75,-0.25,51.52,4.38
0.00,0.00,75.31,4.19,-139.94,-12.06,3.44,0.06,51.29,4.40
0.00,1.00,274.44,-0.12,-71.00,-1.56,0.00,-0.81,51.29,4.40
0.00,2.00,297.06,-20.19,7.69,-0.44,4.12,-0.12,51.29,4.40
0.00,0.00,75.31,4.19,-139.69,-13.50,1.56,-0.19,51.03,4.42
0.00,1.00,274.44,-0.12,-70.94,-1.44,0.69,0.00,51.03,4.42
0.00,2.00,297.06,-20.31,7.69,-0.69,5.31,-0.06,51.03,4.42
0.00,0.00,75.44,4.19,-139.38,-14.81,-1.06,-0.25,50.79,4.44
0.00,1.00,274.44,-0.19,-70.94,-1.94,1.69,0.31,50.79,4.44
0.00,2.00,297.06,-20.44,7.75,-2.94,5.31,0.94,50.79,4.44
0.00,0.00,75.44,4.19,-139.06,-16.62,-1.12,-0.50,50.55,4.46
0.00,1.00,274.38,-0.19,-70.88,-4.56,4.06,1.19,50.55,4.46
0.00,2.00,297.50,-20.56,7.81,-4.31,6.06,1.88,50.55,4.46
0.00,0.00,75.44,4.12,-138.75,-19.69,-1.06,-1.00,50.26,4.48
0.00,1.00,274.31,-0.19,-70.75,-5.00,4.88,1.12,50.26,4.48
0.00,2.00,297.44,-20.62,7.88,-5.19,5.75,2.31,50.26,4.48
0.00,0.00,75.62,4.12,-138.31,-21.06,-0.31,-0.62,49.93,4.50
0.00,1.00,274.25,-0.19,-70.69,-4.56,4.62,0.69,49.93,4.50
0.00,2.00,297.62,-20.75,7.94,-4.62,5.81,1.75,49.93,4.50
0.00,0.00,75.69,4.19,-137.94,-20.62,1.50,0.69,49.60,4.52
0.00,1.00,274.19,-0.25,-70.62,-3.88,4.00,-0.12,49.60,4.52
0.00,2.00,297.62,-20.88,8.06,-4.19,6.62,0.56,49.60,4.52
0.00,0.00,75.69,4.25,-137.56,-19.50,3.31,2.12,49.29,4.54
0.00,1.00,274.12,-0.25,-70.50,-4.06,4.06,-0.50,49.29,4.54
0.00,2.00,297.56,-21.00,8.12,-4.12,7.06,1.62,49.29,4.54
0.00,0.00,75.75,4.38,-137.19,-20.00,4.62,2.81,48.97,4.56
0.00,1.00,274.06,-0.31,-70.44,-4.31,4.00,-0.38,48.97,4.56
0.00,2.00,297.75,-21.19,8.19,-3.75,7.38,2.06,48.97,4.56
0.00,0.00,75.75,4.44,-136.75,-22.06,5.00,2.81,48.59,4.58
0.00,1.00,274.00,-0.31,-70.31,-4.44,4.69,0.56,48.59,4.58
0.00,2.00,297.69,-21.31,8.25,-3.31,7.50,3.25,48.59,4.58
0.00,0.00,75.88,4.56,-136.31,-24.12,5.50,3.25,48.20,4.60
0.00,1.00,273.88,-0.38,-70.25,-5.44,6.31,1.06,48.20,4.60
0.00,2.00,297.69,-21.44,8.25,-4.44,7.94,4.06,48.20,4.60
0.00,0.00,75.94,4.69,-135.81,-24.88,4.50,3.19,47.84,4.62
0.00,1.00,273.75,-0.38,-70.12,-6.19,7.81,1.25,47.84,4.62
0.00,2.00,297.62,-21.62,8.38,-7.12,7.12,3.19,47.84,4.62
0.00,0.00,76.19,4.81,-135.31,-24.94,3.50,2.56,47.52,4.64
0.00,1.00,273.62,-0.44,-70.00,-7.31,8.12,1.31,47.52,4.64
0.00,2.00,297.56,-21.69,8.50,-8.88,4.81,2.62,47.52,4.64
0.00,0.00,242.50,4.88,-134.88,-24.81,2.81,2.12,47.20,4.66
0.00,1.00,273.50,-0.44,-69.88,-7.31,7.06,1.06,47.20,4.66
0.00,2.00,297.50,-21.81,8.69,-8.56,4.62,1.94,47.20,4.66
0.00,0.00,242.44,4.94,-134.38,-24.38,3.44,1.50,46.82,4.68
0.00,1.00,273.44,-0.44,-69.75,-6.38,6.19,1.06,46.82,4.68
0.00,2.00,297.44,-21.94,8.75,-5.69,7.06,2.38,46.82,4.68
0.00,0.00,242.56,4.94,-133.94,-24.31,3.62,0.69,46.43,4.70
0.00,1.00,273.31,-0.50,-69.62,-6.12,5.62,0.75,46.43,4.70
0.00,2.00,297.38,-22.06,8.88,-4.69,7.25,3.06,46.43,4.70
0.00,0.00,242.56,5.00,-133.44,-24.38,3.75,0.06,46.03,4.72
0.00,1.00,273.25,-0.50,-69.50,-5.31,5.12,0.62,46.03,4.72
0.00,2.00,297.31,-22.25,8.94,-4.38,8.62,3.62,46.03,4.72
0.00,0.00,242.69,5.06,-133.00,-22.62,3.94,0.62,45.68,4.74
0.00,1.00,273.19,-0.56,-69.38,-5.38,5.75,0.94,45.68,4.74
0.00,2.00,297.25,-22.44,9.00,-5.00,9.12,3.75,45.68,4.74
0.00,0.00,242.69,5.12,-132.62,-21.75,3.06,0.81,45.36,4.76
0.00,1.00,273.06,-0.56,-69.25,-6.31,7.56,0.94,45.36,4.76
0.00,2.00,297.19,-22.56,9.06,-6.00,7.69,4.12,45.36,4.76
0.00,0.00,242.69,5.19,-132.19,-22.06,3.06,0.44,45.03,4.78
0.00,1.00,272.94,-0.62,-69.12,-6.25,8.06,0.94,45.03,4.78
0.00,2.00,297.06,-22.69,9.19,-5.50,7.12,4.50,45.03,4.78
0.00,0.00,242.69,5.19,-131.75,-22.81,3.00,-0.31,44.68,4.80
0.00,1.00,272.81,-0.69,-69.06,-5.38,7.75,1.25,44.68,4.80
0.00,2.00,297.31,-22.88,9.25,-5.19,6.88,3.88,44.68,4.80
0.00,0.00,242.69,5.25,-131.31,-22.56,3.38,-1.44,44.35,4.82
0.00,1.00,272.69,-0.69,-68.94,-5.81,8.19,1.31,44.35,4.82
0.00,2.00,297.25,-23.00,9.31,-5.94,6.75,3.50,44.35,4.82
0.00,0.00,242.75,5.25,-130.88,-20.88,3.00,-1.44,44.05,4.84
0.00,1.00,272.50,-0.75,-68.81,-6.25,7.94,1.44,44.05,4.84
0.00,2.00,297.19,-23.12,9.44,-6.06,6.88,4.12,44.05,4.84
0.00,0.00,242.69,5.31,-130.56,-18.19,3.44,-0.38,43.80,4.86
0.00,1.00,272.38,-0.75,-68.69,-6.50,7.56,1.38,43.80,4.86
0.00,2.00,297.12,-23.25,9.50,-5.75,6.56,3.94,43.80,4.86
0.00,0.00,242.62,5.31,-130.25,-17.81,4.69,-0.75,43.56,4.88
0.00,1.00,272.31,-0.81,-68.56,-7.00,7.12,1.25,43.56,4.88
0.00,2.00,297.06,-23.38,9.62,-5.56,6.50,3.81,43.56,4.88
0.00,0.00,242.62,5.38,-129.88,-17.44,5.38,-1.06,43.31,4.90
0.00,1.00,272.19,-0.81,-68.44,-6.25,6.31,0.88,43.31,4.90
0.00,2.00,296.94,-23.50,9.69,-5.00,6.38,3.88,43.31,4.90
0.00,0.00,242.50,5.44,-129.56,-15.56,5.12,-0.56,43.10,4.92
0.00,1.00,272.06,-0.88,-68.31,-5.94,6.06,0.81,43.10,4.92
0.00,2.00,296.88,-23.62,9.75,-5.06,5.69,3.00,43.10,4.92
0.00,0.00,242.62,5.50,-129.31,-12.62,3.56,-0.44,42.96,4.94
0.00,1.00,272.00,-0.94,-68.19,-5.69,7.19,0.69,42.96,4.94
0.00,2.00,296.81,-23.75,9.88,-5.69,4.62,3.44,42.96,4.94
0.00,0.00,242.56,5.50,-129.12,-12.38,3.38,-0.69,42.83,4.96
0.00,1.00,271.88,-0.94,-68.12,-5.19,6.69,0.88,42.83,4.96
0.00,2.00,297.00,-23.81,9.94,-5.69,3.94,3.56,42.83,4.96
0.00,0.00,242.50,5.56,-128.88,-13.25,2.56,-1.06,42.66,4.98
0.00,1.00,271.81,-1.00,-68.00,-4.88,6.00,1.00,42.66,4.98
0.00,2.00,296.88,-23.88,10.00,-4.81,3.50,4.19,42.66,4.98
0.00,0.00,242.62,5.56,-128.56,-13.75,1.69,-1.12,42.46,5.00
0.00,1.00,271.69,-1.00,-67.94,-4.56,5.56,1.25,42.46,5.00
0.00,2.00,297.00,-24.00,10.06,-3.75,3.88,4.12,42.46,5.00
0.00,0.00,242.69,5.56,-128.31,-13.00,1.25,-0.44,42.28,5.02
0.00,1.00,271.56,-1.06,-67.81,-4.44,6.25,1.81,42.28,5.02
0.00,2.00,296.88,-24.06,10.12,-4.31,3.94,3.88,42.28,5.02
0.00,0.00,242.94,5.56,-128.06,-11.75,0.31,0.00,42.16,5.04
0.00,1.00,271.44,-1.06,-67.75,-4.75,6.94,2.06,42.16,5.04
0.00,2.00,296.81,-24.12,10.19,-5.81,3.19,3.31,42.16,5.04
0.00,0.00,242.94,5.56,-127.81,-14.06,1.88,-1.25,41.98,5.06
0.00,1.00,271.31,-1.06,-67.62,-4.62,6.56,1.69,41.98,5.06
0.00,2.00,296.81,-24.19,10.25,-4.62,3.31,3.19,41.98,5.06
0.00,0.00,242.94,5.56,-127.50,-15.62,2.50,-1.88,41.73,5.08
0.00,1.00,271.25,-1.12,-67.56,-4.25,4.94,1.38,41.73,5.08
0.00,2.00,296.75,-24.25,10.31,-3.25,4.12,3.56,41.73,5.08
0.00,0.00,243.00,5.56,-127.25,-13.25,1.94,-0.69,41.53,5.10
0.00,1.00,271.19,-1.12,-67.50,-4.31,4.81,1.00,41.53,5.10
0.00,2.00,296.75,-24.38,10.38,-3.44,4.50,3.31,41.53,5.10
0.00,0.00,243.00,5.62,-127.06,-12.06,2.12,0.56,41.39,5.12
0.00,1.00,271.06,-1.12,-67.38,-5.12,6.06,1.25,41.39,5.12
0.00,2.00,296.69,-24.44,10.44,-4.75,4.06,3.06,41.39,5.12
0.00,0.00,243.00,5.62,-126.75,-13.88,3.19,0.19,41.21,5.14
0.00,1.00,270.94,-1.19,-67.31,-5.88,5.94,2.00,41.21,5.14
0.00,2.00,296.56,-24.56,10.50,-5.25,3.94,3.50,41.21,5.14
0.00,0.00,242.88,5.69,-126.44,-15.94,4.50,-0.62,41.00,5.16
0.00,1.00,270.88,-1.19,-67.19,-6.00,5.81,2.00,41.00,5.16
0.00,2.00,296.62,-24.62,10.56,-5.12,4.06,4.38,41.00,5.16
0.00,0.00,242.75,5.75,-126.19,-14.69,5.00,0.38,40.81,5.18
0.00,1.00,270.75,-1.19,-67.06,-6.00,6.31,2.12,40.81,5.18
0.00,2.00,296.56,-24.69,10.62,-5.38,3.69,4.06,40.81,5.18
0.00,0.00,242.62,5.88,-125.88,-12.62,5.94,1.44,40.67,5.20
0.00,1.00,270.62,-1.19,-66.94,-6.38,6.25,2.31,40.67,5.20
0.00,2.00,296.81,-24.81,10.75,-5.69,3.75,3.88,40.67,5.20
0.00,0.00,242.38,5.94,-125.69,-11.69,6.56,2.44,40.55,5.22
0.00,1.00,270.50,-1.25,-66.81,-6.12,6.38,2.00,40.55,5.22
0.00,2.00,296.69,-24.88,10.81,-5.44,3.69,3.69,40.55,5.22
0.00,0.00,242.19,6.00,-125.56,-11.38,7.56,2.25,40.42,5.24
0.00,1.00,270.38,-1.25,-66.69,-5.69,6.31,1.38,40.42,5.24
0.00,2.00,296.62,-24.94,10.88,-5.00,3.31,3.38,40.42,5.24
0.00,0.00,241.88,6.19,-125.25,-9.56,6.81,2.25,40.32,5.26
0.00,1.00,270.31,-1.31,-66.62,-5.06,5.50,1.12,40.32,5.26
0.00,2.00,296.56,-25.00,10.94,-4.75,2.69,3.12,40.32,5.26
0.00,0.00,241.69,6.31,-125.12,-7.31,6.12,2.25,40.26,5.28
0.00,1.00,270.19,-1.31,-66.50,-4.69,5.19,1.19,40.26,5.28
0.00,2.00,296.50,-25.00,11.00,-3.94,2.25,3.00,40.26,5.28
0.00,0.00,241.56,6.38,-125.06,-7.56,5.69,1.12,40.18,5.30
0.00,1.00,270.12,-1.31,-66.44,-4.38,4.50,1.06,40.18,5.30
0.00,2.00,296.56,-25.06,11.06,-3.94,1.81,2.88,40.18,5.30
0.00,0.00,241.31,6.44,-124.81,-9.31,5.31,0.00,40.04,5.32
0.00,1.00,270.06,-1.38,-66.31,-4.56,4.19,0.88,40.04,5.32
0.00,2.00,296.50,-25.06,11.06,-2.19,2.25,2.56,40.04,5.32
0.00,0.00,241.25,6.50,-124.69,-10.88,3.19,-1.75,39.89,5.34
0.00,1.00,269.94,-1.38,-66.25,-5.25,5.31,1.69,39.89,5.34
0.00,2.00,296.44,-25.12,11.12,-3.50,2.12,3.25,39.89,5.34
0.00,0.00,241.31,6.44,-124.50,-12.38,1.44,-2.50,39.76,5.36
0.00,1.00,269.81,-1.38,-66.12,-6.62,6.06,2.75,39.76,5.36
0.00,2.00,296.50,-25.19,11.19,-5.88,1.19,4.81,39.76,5.36
0.00,0.00,241.38,6.44,-124.25,-11.38,-0.50,-2.06,39.66,5.38
0.00,1.00,269.69,-1.38,-66.00,-7.06,6.19,3.06,39.66,5.38
0.00,2.00,296.38,-25.25,11.25,-6.06,2.31,4.56,39.66,5.38
0.00,0.00,241.44,6.38,-124.00,-10.00,0.19,-0.94,39.57,5.40
0.00,1.00,269.56,-1.38,-65.88,-7.06,6.00,2.50,39.57,5.40
0.00,2.00,296.31,-25.31,11.38,-5.75,4.25,4.12,39.57,5.40
0.00,0.00,241.50,6.38,-123.81,-9.94,2.12,-0.56,39.49,5.42
0.00,1.00,269.44,-1.38,-65.75,-6.81,6.38,1.50,39.49,5.42
0.00,2.00,296.19,-25.44,11.44,-5.81,4.94,3.56,39.49,5.42
0.00,0.00,241.50,6.38,-123.62,-10.50,2.81,-0.81,39.38,5.44
0.00,1.00,269.31,-1.44,-65.56,-6.88,6.94,0.62,39.38,5.44
0.00,2.00,296.12,-25.50,11.50,-5.00,5.38,3.25,39.38,5.44
0.00,0.00,241.44,6.44,-123.44,-10.31,3.62,-0.94,39.28,5.46
0.00,1.00,269.25,-1.50,-65.44,-7.38,6.88,0.31,39.28,5.46
0.00,2.00,296.19,-25.62,11.62,-5.38,4.94,3.88,39.28,5.46
0.00,0.00,241.38,6.44,-123.19,-9.81,2.19,-1.25,39.21,5.48
0.00,1.00,269.12,-1.56,-65.31,-7.62,6.88,0.31,39.21,5.48
0.00,2.00,296.06,-25.69,11.69,-6.38,4.38,3.56,39.21,5.48
0.00,0.00,241.38,6.44,-123.00,-9.69,1.88,-1.75,39.16,5.50
0.00,1.00,269.06,-1.56,-65.19,-7.75,6.69,0.06,39.16,5.50
0.00,2.00,296.19,-25.81,11.81,-6.94,4.44,3.19,39.16,5.50
0.00,0.00,241.44,6.44,-122.88,-8.19,1.12,-2.50,39.12,5.52
0.00,1.00,269.00,-1.62,-65.00,-7.38,6.31,-0.19,39.12,5.52
0.00,2.00,296.12,-25.88,11.94,-6.19,5.31,2.62,39.12,5.52
0.00,0.00,241.50,6.38,-122.69,-7.44,0.94,-2.56,39.07,5.54
0.00,1.00,268.94,-1.69,-64.88,-6.19,5.44,-0.75,39.07,5.54
0.00,2.00,296.06,-26.00,12.00,-5.31,5.25,2.38,39.07,5.54
0.00,0.00,241.50,6.38,-122.56,-5.75,0.25,-2.38,39.06,5.56
0.00,1.00,268.88,-1.75,-64.81,-5.62,4.69,-0.88,39.06,5.56
0.00,2.00,296.06,-26.12,12.12,-4.88,4.94,1.81,39.06,5.56
0.00,0.00,241.62,6.31,-122.44,-5.50,0.00,-2.94,39.04,5.58
0.00,1.00,268.81,-1.81,-64.69,-5.81,4.94,-0.81,39.04,5.58
0.00,2.00,296.06,-26.19,12.19,-4.69,4.50,1.69,39.04,5.58
0.00,0.00,241.69,6.25,-122.38,-5.62,-0.62,-3.12,39.03,5.60
0.00,1.00,268.75,-1.88,-64.56,-6.06,4.88,-0.81,39.03,5.60
0.00,2.00,296.19,-26.25,12.31,-4.88,3.62,1.56,39.03,5.60
0.00,0.00,241.81,6.19,-122.25,-4.38,-1.62,-3.38,39.02,5.62
0.00,1.00,268.75,-1.94,-64.44,-5.88,3.88,-1.00,39.02,5.62
0.00,2.00,296.19,-26.31,12.38,-4.25,3.50,1.00,39.02,5.62
0.00,0.00,241.94,6.12,-122.19,-3.75,-2.44,-3.06,39.01,5.64
0.00,1.00,268.75,-2.00,-64.31,-5.31,3.00,-1.50,39.01,5.64
0.00,2.00,296.19,-26.38,12.44,-3.00,3.75,0.06,39.01,5.64
0.00,0.00,242.06,6.06,-122.12,-2.50,-2.06,-2.50,39.02,5.66
0.00,1.00,268.75,-2.06,-64.25,-4.88,2.50,-1.62,39.02,5.66
0.00,2.00,296.19,-26.44,12.50,-2.88,3.25,-0.44,39.02,5.66
0.00,0.00,242.12,6.00,-122.12,-2.12,-1.12,-1.38,39.05,5.68
0.00,1.00,268.75,-2.12,-64.12,-5.56,2.25,-1.19,39.05,5.68
0.00,2.00,296.19,-26.50,12.56,-3.62,1.56,-0.06,39.05,5.68
0.00,0.00,242.12,6.00,-122.06,-2.50,0.50,-0.81,39.05,5.70
0.00,1.00,268.75,-2.19,-64.00,-4.62,2.19,-1.00,39.05,5.70
0.00,2.00,296.19,-26.50,12.62,-2.56,1.12,-0.19,39.05,5.70
0.00,0.00,242.12,6.06,-122.00,-2.56,1.38,-0.88,39.03,5.72
0.00,1.00,268.75,-2.19,-63.94,-4.19,1.31,-0.69,39.03,5.72
0.00,2.00,296.19,-26.50,12.69,-1.75,1.25,-0.56,39.03,5.72
0.00,0.00,242.12,6.00,-121.94,-2.38,0.88,-1.06,39.04,5.74
0.00,1.00,268.75,-2.25,-63.88,-4.81,1.69,-0.25,39.04,5.74
0.00,2.00,296.19,-26.50,12.75,-3.00,0.56,0.00,39.04,5.74
0.00,0.00,242.12,6.00,-121.94,-1.69,0.25,-0.81,39.05,5.76
0.00,1.00,268.75,-2.25,-63.75,-4.06,1.56,-0.38,39.05,5.76
0.00,2.00,296.12,-26.50,12.81,-2.19,0.19,-0.06,39.05,5.76
0.00,0.00,242.12,6.00,-121.88,-1.94,0.81,-0.94,39.05,5.78
0.00,1.00,268.75,-2.31,-63.69,-3.88,1.12,-0.25,39.05,5.78
0.00,2.00,296.12,-26.50,12.81,-1.94,0.69,0.06,39.05,5.78
0.00,0.00,242.12,6.00,-121.88,-2.06,0.94,-1.06,39.06,5.80
0.00,1.00,268.75,-2.31,-63.62,-4.50,1.44,-0.50,39.06,5.80
0.00,2.00,296.12,-26.56,12.88,-2.56,1.81,-0.06,39.06,5.80
0.00,0.00,242.12,6.00,-121.81,-1.81,1.31,-0.69,39.09,5.82
0.00,1.00,268.69,-2.31,-63.50,-4.50,1.50,-0.56,39.09,5.82
0.00,2.00,296.12,-26.56,12.94,-3.19,1.56,-0.06,39.09,5.82
0.00,0.00,242.12,6.00,-121.81,-1.38,1.38,-0.31,39.12,5.84
0.00,1.00,268.69,-2.38,-63.44,-3.81,1.75,-0.62,39.12,5.84
0.00,2.00,296.12,-26.62,13.00,-2.62,1.94,-0.06,39.12,5.84
0.00,0.00,242.12,6.00,-121.75,-1.88,0.31,-0.56,39.15,5.86
0.00,1.00,268.69,-2.38,-63.38,-4.69,2.56,-0.38,39.15,5.86
0.00,2.00,296.12,-26.62,13.06,-3.50,2.06,0.25,39.15,5.86
0.00,0.00,242.12,6.00,-121.69,-3.31,-0.56,-1.25,39.17,5.88
0.00,1.00,268.62,-2.44,-63.25,-5.56,3.44,-0.06,39.17,5.88
0.00,2.00,296.06,-26.69,13.12,-4.62,1.81,0.62,39.17,5.88
0.00,0.00,242.25,5.94,-121.62,-4.00,-1.38,-2.00,39.19,5.90
0.00,1.00,268.62,-2.44,-63.19,-5.38,3.19,-0.12,39.19,5.90
0.00,2.00,296.06,-26.69,13.25,-4.94,2.06,0.75,39.19,5.90
0.00,0.00,242.38,5.88,-121.56,-3.50,-1.88,-2.25,39.21,5.92
0.00,1.00,268.56,-2.50,-63.06,-4.69,2.88,-0.25,39.21,5.92
0.00,2.00,296.00,-26.75,13.31,-4.50,2.06,0.75,39.21,5.92
0.00,0.00,242.50,5.81,-121.50,-2.25,-2.50,-2.06,39.25,5.94
0.00,1.00,268.56,-2.50,-63.00,-4.81,2.44,-0.88,39.25,5.94
0.00,2.00,296.00,-26.75,13.44,-4.31,2.81,0.31,39.25,5.94
0.00,0.00,243.06,5.81,-121.50,-1.19,-2.00,-1.19,39.32,5.96
0.00,1.00,268.56,-2.56,-62.88,-4.94,2.31,-0.88,39.32,5.96
0.00,2.00,296.00,-26.81,13.50,-4.50,3.06,0.19,39.32,5.96
0.00,0.00,243.12,5.75,-121.50,-0.62,-1.00,-0.75,39.39,5.98
0.00,1.00,268.50,-2.62,-62.75,-4.62,2.94,-0.94,39.39,5.98
0.00,2.00,296.00,-26.88,13.62,-3.88,2.38,0.00,39.39,5.98
0.00,0.00,243.44,5.75,-121.44,-0.88,-1.12,-1.12,39.45,6.00
0.00,1.00,268.50,-2.62,-62.69,-4.06,3.06,-0.75,39.45,6.00
0.00,2.00,295.94,-26.88,13.69,-4.06,2.06,0.56,39.45,6.00
0.00,0.00,243.56,5.69,-121.44,-1.69,-1.00,-1.62,39.48,6.02
0.00,1.00,268.50,-2.69,-62.62,-3.19,2.88,-0.88,39.48,6.02
0.00,2.00,295.94,-26.94,13.75,-3.38,1.81,0.69,39.48,6.02
0.00,0.00,243.62,5.69,-121.38,-1.75,-1.56,-1.12,39.50,6.04
0.00,1.00,268.50,-2.69,-62.56,-2.56,2.75,-0.69,39.50,6.04
0.00,2.00,295.94,-26.94,13.81,-2.69,1.31,0.62,39.50,6.04
0.00,0.00,244.00,5.62,-121.38,-1.88,-1.44,-1.12,39.52,6.06
0.00,1.00,268.44,-2.75,-62.56,-3.12,3.19,-0.44,39.52,6.06
0.00,2.00,295.88,-26.94,13.81,-2.62,0.81,0.38,39.52,6.06
0.00,0.00,244.06,5.62,-121.31,-2.44,-0.50,-1.19,39.54,6.08
0.00,1.00,268.38,-2.81,-62.44,-3.69,3.62,0.12,39.54,6.08
0.00,2.00,295.88,-27.00,13.88,-3.50,1.62,0.88,39.54,6.08
0.00,0.00,244.31,5.62,-121.25,-3.06,0.50,-1.12,39.56,6.10
0.00,1.00,268.38,-2.81,-62.38,-4.62,3.19,0.00,39.56,6.10
0.00,2.00,295.81,-27.00,13.94,-4.31,0.88,0.88,39.56,6.10
0.00,0.00,244.31,5.62,-121.19,-3.25,2.31,-0.94,39.57,6.12
0.00,1.00,268.31,-2.81,-62.31,-4.50,3.50,0.12,39.57,6.12
0.00,2.00,295.81,-27.00,14.00,-3.75,0.81,0.88,39.57,6.12
0.00,0.00,244.19,5.69,-121.12,-3.69,4.19,-0.88,39.57,6.14
0.00,1.00,268.31,-2.88,-62.25,-3.62,3.44,0.50,39.57,6.14
0.00,2.00,295.75,-27.06,14.06,-3.81,1.00,1.38,39.57,6.14
0.00,0.00,244.12,5.69,-121.06,-3.62,5.19,-0.19,39.58,6.16
0.00,1.00,268.25,-2.94,-62.19,-3.69,3.69,0.56,39.58,6.16
0.00,2.00,295.69,-27.06,14.12,-4.12,1.19,1.50,39.58,6.16
0.00,0.00,244.00,5.75,-121.00,-3.12,4.50,0.25,39.63,6.18
0.00,1.00,268.19,-3.00,-62.06,-3.88,3.31,0.56,39.63,6.18
0.00,2.00,295.69,-27.06,14.25,-5.19,1.25,0.56,39.63,6.18
0.00,0.00,244.31,5.75,-120.94,-1.69,1.75,-0.56,39.67,6.20
0.00,1.00,268.19,-3.00,-62.00,-2.69,1.88,0.19,39.67,6.20
0.00,2.00,295.69,-27.12,14.31,-3.94,1.12,-0.31,39.67,6.20
0.00,0.00,244.38,5.75,-120.88,-1.50,-1.00,-1.38,39.69,6.22
0.00,1.00,268.19,-3.06,-61.94,-2.44,1.62,0.12,39.69,6.22
0.00,2.00,295.69,-27.12,14.38,-2.50,2.19,-0.69,39.69,6.22
0.00,0.00,244.50,5.69,-120.88,-1.69,-2.25,-1.56,39.72,6.24
0.00,1.00,268.19,-3.06,-61.88,-3.19,2.19,-0.44,39.72,6.24
0.00,2.00,295.69,-27.19,14.50,-3.00,1.62,-0.56,39.72,6.24
0.00,0.00,244.75,5.62,-120.81,-2.06,-0.38,-1.81,39.73,6.26
0.00,1.00,268.12,-3.12,-61.81,-2.06,1.50,-0.06,39.73,6.26
0.00,2.00,295.62,-27.19,14.56,-2.88,1.12,0.00,39.73,6.26
0.00,0.00,244.69,5.62,-120.75,-2.19,3.19,-1.44,39.73,6.28
0.00,1.00,268.12,-3.12,-61.75,-1.38,1.62,0.00,39.73,6.28
0.00,2.00,295.62,-27.19,14.56,-2.06,1.06,-0.12,39.73,6.28
0.00,0.00,244.75,5.69,-120.75,-1.81,7.44,0.38,39.75,6.30
0.00,1.00,268.12,-3.19,-61.75,-1.50,1.56,0.38,39.75,6.30
0.00,2.00,295.62,-27.25,14.62,-2.62,1.62,0.00,39.75,6.30
0.00,0.00,244.50,5.81,-120.69,-1.69,7.75,0.62,39.77,6.32
0.00,1.00,268.06,-3.19,-61.69,-2.06,1.81,0.69,39.77,6.32
0.00,2.00,295.62,-27.25,14.69,-2.94,1.06,-0.31,39.77,6.32
0.00,0.00,244.31,5.88,-120.69,-0.88,4.19,1.12,39.82,6.34
0.00,1.00,268.06,-3.19,-61.69,-2.88,2.56,1.06,39.82,6.34
0.00,2.00,295.62,-27.25,14.75,-3.44,0.56,-0.38,39.82,6.34
0.00,0.00,244.69,5.88,-120.62,-1.81,1.88,0.06,39.87,6.36
0.00,1.00,268.00,-3.19,-61.62,-3.50,2.56,1.38,39.87,6.36
0.00,2.00,295.56,-27.25,14.81,-4.19,-0.62,-0.50,39.87,6.36
0.00,0.00,244.69,5.88,-120.62,-1.81,0.12,-0.12,39.90,6.38
0.00,1.00,267.94,-3.19,-61.56,-2.81,1.69,1.50,39.90,6.38
0.00,2.00,295.56,-27.25,14.88,-3.50,-1.19,-0.75,39.90,6.38
0.00,0.00,244.69,5.88,-120.56,-1.75,1.94,-0.31,39.93,6.40
0.00,1.00,267.88,-3.19,-61.50,-2.12,0.88,2.06,39.93,6.40
0.00,2.00,296.00,-27.19,14.94,-2.94,-0.19,-0.56,39.93,6.40
0.00,0.00,244.62,5.94,-120.50,-1.31,2.38,0.19,39.99,6.42
0.00,1.00,267.88,-3.19,-61.44,-2.25,0.75,2.56,39.99,6.42
0.00,2.00,296.00,-27.19,15.00,-4.31,-0.56,-0.19,39.99,6.42
0.00,0.00,244.56,5.94,-120.50,-0.94,1.75,1.06,40.06,6.44
0.00,1.00,267.81,-3.12,-61.38,-2.44,0.75,2.31,40.06,6.44
0.00,2.00,296.00,-27.19,15.12,-4.44,-0.75,-0.12,40.06,6.44
0.00,0.00,244.69,6.00,-120.50,-0.88,0.62,1.19,40.11,6.46
0.00,1.00,267.75,-3.12,-61.38,-0.69,-0.25,1.88,40.11,6.46
0.00,2.00,296.25,-27.19,15.19,-3.25,-0.38,-0.50,40.11,6.46
0.00,0.00,244.69,6.00,-120.50,-0.81,-0.81,1.69,40.12,6.48
0.00,1.00,267.75,-3.12,-61.38,0.19,-0.44,1.00,40.12,6.48
0.00,2.00,296.25,-27.12,15.25,-1.69,0.06,-0.94,40.12,6.48
0.00,0.00,244.69,6.06,-120.50,0.00,-0.88,2.19,40.14,6.50
0.00,1.00,267.75,-3.12,-61.31,0.31,-1.00,-0.12,40.14,6.50
0.00,2.00,296.38,-27.12,15.31,-0.69,-0.12,-0.62,40.14,6.50
0.00,0.00,244.62,6.12,-120.50,0.31,0.38,3.25,40.13,6.52
0.00,1.00,267.81,-3.12,-61.31,0.88,-1.19,-0.81,40.13,6.52
0.00,2.00,296.38,-27.12,15.31,0.75,-0.31,-1.31,40.13,6.52
0.00,0.00,244.56,6.19,-120.50,-0.44,0.12,4.19,40.10,6.54
0.00,1.00,267.81,-3.12,-61.38,1.12,-1.38,-0.62,40.10,6.54
0.00,2.00,296.44,-27.12,15.31,0.81,0.44,-1.69,40.10,6.54
0.00,0.00,244.69,6.25,-120.50,-1.06,0.06,4.81,40.09,6.56
0.00,1.00,267.81,-3.12,-61.38,-0.25,-0.94,-0.69,40.09,6.56
0.00,2.00,296.56,-27.12,15.31,-0.25,-0.19,-2.00,40.09,6.56
0.00,0.00,244.56,6.38,-120.44,-1.75,1.25,4.81,40.04,6.58
0.00,1.00,267.88,-3.12,-61.38,-0.19,-1.06,-0.81,40.04,6.58
0.00,2.00,296.62,-27.06,15.38,0.50,-1.88,-2.69,40.04,6.58
0.00,0.00,244.50,6.44,-120.44,-2.06,1.12,3.31,39.97,6.60
0.00,1.00,267.88,-3.19,-61.31,0.31,-0.94,-1.06,39.97,6.60
0.00,2.00,296.69,-27.00,15.38,1.38,-2.69,-2.75,39.97,6.60
0.00,0.00,244.44,6.44,-120.38,-2.19,0.50,1.25,39.88,6.62
0.00,1.00,267.94,-3.19,-61.31,0.88,-1.81,-1.31,39.88,6.62
0.00,2.00,296.69,-26.94,15.38,2.31,-1.88,-2.44,39.88,6.62
0.00,0.00,244.44,6.44,-120.31,-2.19,-1.12,0.19,39.81,6.64
0.00,1.00,268.44,-3.19,-61.38,0.69,-3.06,-1.31,39.81,6.64
0.00,2.00,296.75,-26.94,15.31,1.62,0.81,-2.50,39.81,6.64
0.00,0.00,244.94,6.44,-120.31,-0.88,-3.00,-0.25,39.78,6.66
0.00,1.00,268.50,-3.19,-61.31,-0.19,-2.12,-1.62,39.78,6.66
0.00,2.00,296.94,-26.94,15.38,0.44,1.88,-2.81,39.78,6.66
0.00,0.00,245.00,6.44,-120.31,0.50,-1.69,-0.19,39.78,6.68
0.00,1.00,269.06,-3.19,-61.31,-0.25,-1.56,-1.62,39.78,6.68
0.00,2.00,297.00,-26.94,15.38,0.38,2.88,-1.94,39.78,6.68
0.00,0.00,245.25,6.44,-120.38,0.75,-0.56,-0.12,39.79,6.70
0.00,1.00,269.06,-3.25,-61.31,-0.19,-0.62,-1.62,39.79,6.70
0.00,2.00,297.06,-27.00,15.38,0.25,3.50,-1.62,39.79,6.70
0.00,0.00,245.25,6.44,-120.38,0.75,-0.19,0.00,39.81,6.72
0.00,1.00,269.12,-3.25,-61.31,-0.88,1.19,-1.44,39.81,6.72
0.00,2.00,297.12,-27.00,15.38,0.06,2.94,-0.31,39.81,6.72
0.00,0.00,245.19,6.44,-120.44,0.62,0.00,0.25,39.81,6.74
0.00,1.00,269.25,-3.25,-61.31,-0.88,2.62,-0.56,39.81,6.74
0.00,2.00,297.12,-27.12,15.38,0.25,3.81,0.44,39.81,6.74
0.00,0.00,245.38,6.44,-120.44,0.50,0.12,0.62,39.84,6.76
0.00,1.00,269.19,-3.31,-61.31,-0.75,4.50,0.50,39.84,6.76
0.00,2.00,297.12,-27.12,15.38,-1.00,2.06,1.44,39.84,6.76
0.00,0.00,245.31,6.50,-120.44,0.62,1.56,0.12,39.90,6.78
0.00,1.00,269.38,-3.31,-61.31,-0.81,3.75,0.88,39.90,6.78
0.00,2.00,297.12,-27.19,15.38,-2.19,-0.12,3.25,39.90,6.78
0.00,0.00,245.25,6.50,-120.44,0.38,1.81,-0.38,39.92,6.80
0.00,1.00,269.31,-3.38,-61.25,0.44,1.75,0.25,39.92,6.80
0.00,2.00,297.06,-27.19,15.38,-0.62,-0.56,2.31,39.92,6.80
0.00,0.00,245.44,6.50,-120.44,0.75,2.19,-0.69,39.90,6.82
0.00,1.00,269.31,-3.38,-61.31,2.06,0.69,-0.69,39.90,6.82
0.00,2.00,297.00,-27.19,15.31,1.88,-0.19,0.62,39.90,6.82
0.00,0.00,245.38,6.50,-120.44,1.25,2.06,-0.75,39.86,6.84
0.00,1.00,269.38,-3.44,-61.38,2.19,1.00,-1.31,39.86,6.84
0.00,2.00,297.06,-27.19,15.31,3.31,-0.50,0.25,39.86,6.84
0.00,0.00,245.44,6.56,-120.50,2.06,2.81,-0.12,39.82,6.86
0.00,1.00,269.38,-3.50,-61.38,2.56,0.38,-1.62,39.82,6.86
0.00,2.00,297.12,-27.19,15.19,4.12,0.62,-0.25,39.82,6.86
0.00,0.00,245.38,6.56,-120.56,3.44,0.75,0.50,39.80,6.88
0.00,1.00,269.62,-3.50,-61.44,2.62,-0.25,-2.31,39.80,6.88
0.00,2.00,297.12,-27.19,15.19,4.12,1.94,-0.94,39.80,6.88
0.00,0.00,245.56,6.56,-120.62,4.88,-0.25,0.88,39.84,6.90
0.00,1.00,269.69,-3.56,-61.50,3.12,-0.75,-2.62,39.84,6.90
0.00,2.00,297.31,-27.25,15.06,3.00,1.12,-1.56,39.84,6.90
0.00,0.00,245.56,6.56,-120.69,5.62,0.56,0.50,39.93,6.92
0.00,1.00,269.75,-3.62,-61.56,3.38,-1.75,-2.81,39.93,6.92
0.00,2.00,297.31,-27.25,15.06,1.31,0.50,-1.44,39.93,6.92
