Iteration,IMUNo,OrientationX (deg),OrientationY,OrientationZ,GyroX (20rad/sec),GyroY,GyroZ,Elbow_Pos (rad),Time (sec)
15.00,0.00,243.38,3.88,-99.19,0.38,0.00,1.56,-0.02,1.00
15.00,1.00,259.44,2.06,-75.44,2.38,-0.50,1.56,-0.02,1.00
15.00,2.00,271.44,-20.62,9.00,1.38,-0.56,-0.31,-0.02,1.02
15.00,0.00,243.38,3.88,-99.19,0.44,0.38,1.62,-0.04,1.02
15.00,1.00,259.38,2.06,-75.44,1.88,-0.56,1.50,-0.04,1.02
15.00,2.00,271.44,-20.56,9.00,1.19,-1.19,-0.69,-0.04,1.02
15.00,0.00,243.31,3.94,-99.19,0.19,0.25,1.69,-0.05,1.04
15.00,1.00,259.38,2.12,-75.50,1.56,-0.12,1.81,-0.05,1.04
15.00,2.00,271.50,-20.56,9.00,0.94,-1.56,-1.00,-0.05,1.04
15.00,0.00,243.31,3.94,-99.19,0.12,0.44,1.81,-0.06,1.06
15.00,1.00,259.31,2.12,-75.50,1.19,0.12,1.81,-0.06,1.06
15.00,2.00,271.50,-20.56,9.00,0.38,-0.94,-0.44,-0.06,1.06
15.00,0.00,243.25,4.00,-99.19,0.19,0.75,1.81,-0.05,1.08
15.00,1.00,259.31,2.19,-75.56,1.50,0.12,1.88,-0.05,1.08
15.00,2.00,271.50,-20.50,9.00,0.00,-0.69,-0.12,-0.05,1.08
15.00,0.00,243.19,4.06,-99.19,-0.06,0.88,1.75,-0.05,1.10
15.00,1.00,259.25,2.19,-75.56,1.69,-0.31,2.06,-0.05,1.10
15.00,2.00,271.50,-20.50,9.00,-0.06,-1.06,-0.06,-0.05,1.10
15.00,0.00,243.12,4.06,-99.19,-0.12,1.06,1.69,-0.06,1.12
15.00,1.00,259.25,2.25,-75.62,1.88,-0.12,1.88,-0.06,1.12
15.00,2.00,271.50,-20.50,9.00,0.00,-1.25,0.00,-0.06,1.12
15.00,0.00,243.06,4.12,-99.19,0.00,1.00,1.69,-0.06,1.14
15.00,1.00,259.19,2.25,-75.62,1.75,0.44,1.81,-0.06,1.14
15.00,2.00,271.50,-20.44,9.00,0.19,-1.06,0.00,-0.06,1.14
15.00,0.00,243.00,4.12,-99.19,0.19,0.94,1.88,-0.06,1.16
15.00,1.00,259.12,2.31,-75.69,2.06,0.25,1.81,-0.06,1.16
15.00,2.00,271.50,-20.44,9.00,0.25,-1.12,0.06,-0.06,1.16
15.00,0.00,243.00,4.19,-99.19,0.44,0.50,2.38,-0.07,1.18
15.00,1.00,259.12,2.31,-75.75,3.06,0.00,1.12,-0.07,1.18
15.00,2.00,271.50,-20.38,8.94,1.00,-1.94,-0.31,-0.07,1.18
15.00,0.00,242.94,4.25,-99.19,0.56,0.38,2.25,-0.10,1.20
15.00,1.00,259.12,2.31,-75.81,4.38,0.00,1.00,-0.10,1.20
15.00,2.00,271.50,-20.38,8.94,1.81,-2.12,-0.19,-0.10,1.20
15.00,0.00,242.88,4.31,-99.19,0.62,0.12,2.50,-0.12,1.22
15.00,1.00,259.12,2.38,-75.94,4.44,0.12,1.00,-0.12,1.22
15.00,2.00,271.50,-20.31,8.88,1.62,-1.75,0.06,-0.12,1.22
15.00,0.00,242.81,4.31,-99.19,0.50,-0.75,2.56,-0.15,1.24
15.00,1.00,259.06,2.38,-76.00,4.12,0.19,1.25,-0.15,1.24
15.00,2.00,271.50,-20.31,8.88,1.75,-1.44,-0.25,-0.15,1.24
15.00,0.00,242.81,4.38,-99.19,0.31,-1.31,2.50,-0.21,1.26
15.00,1.00,259.06,2.38,-76.06,3.06,0.81,1.19,-0.21,1.26
15.00,2.00,271.50,-20.25,8.81,3.25,-2.38,-1.06,-0.21,1.26
15.00,0.00,242.75,4.44,-99.25,0.50,-0.31,2.38,-0.27,1.28
15.00,1.00,259.00,2.38,-76.12,1.88,0.88,0.94,-0.27,1.28
15.00,2.00,271.50,-20.19,8.75,3.31,-2.94,-1.12,-0.27,1.28
15.00,0.00,242.69,4.44,-99.25,0.25,2.19,2.81,-0.34,1.30
15.00,1.00,259.00,2.38,-76.12,2.38,0.25,0.81,-0.34,1.30
15.00,2.00,271.56,-20.12,8.69,3.19,-2.69,-0.12,-0.34,1.30
15.00,0.00,242.56,4.56,-99.25,0.62,4.56,3.38,-0.37,1.32
15.00,1.00,259.00,2.38,-76.19,2.56,-0.19,0.81,-0.37,1.32
15.00,2.00,271.56,-20.12,8.62,2.06,-1.56,0.56,-0.37,1.32
15.00,0.00,242.44,4.62,-99.25,1.50,4.38,3.38,-0.37,1.34
15.00,1.00,259.00,2.44,-76.25,2.31,0.25,1.38,-0.37,1.34
15.00,2.00,271.56,-20.12,8.62,1.62,-0.38,-0.12,-0.37,1.34
15.00,0.00,242.25,4.69,-99.25,2.94,2.88,3.44,-0.30,1.36
15.00,1.00,258.94,2.44,-76.31,0.88,-1.25,1.19,-0.30,1.36
15.00,2.00,271.56,-20.06,8.62,-0.12,-2.56,-1.06,-0.30,1.36
15.00,0.00,242.12,4.75,-99.31,5.19,1.31,3.88,-0.20,1.38
15.00,1.00,259.00,2.44,-76.31,3.62,-4.38,-0.25,-0.20,1.38
15.00,2.00,271.62,-19.94,8.62,0.31,-6.25,-2.44,-0.20,1.38
15.00,0.00,242.00,4.88,-99.44,8.75,0.12,5.31,-0.09,1.40
15.00,1.00,259.19,2.38,-76.50,7.06,-7.69,-1.69,-0.09,1.40
15.00,2.00,271.69,-19.81,8.56,3.62,-4.62,-3.62,-0.09,1.40
15.00,0.00,241.88,4.94,-99.62,13.75,2.75,7.44,0.12,1.42
15.00,1.00,259.38,2.38,-76.69,9.12,-10.00,-1.62,0.12,1.42
15.00,2.00,271.75,-19.75,8.50,4.19,-2.25,-4.50,0.12,1.42
15.00,0.00,241.56,5.12,-99.94,18.62,7.81,9.81,0.39,1.44
15.00,1.00,259.50,2.38,-76.75,7.88,-10.06,-2.31,0.39,1.44
15.00,2.00,271.88,-19.69,8.44,5.81,-3.88,-3.62,0.39,1.44
15.00,0.00,241.12,5.38,-100.31,21.81,11.88,11.50,0.68,1.46
15.00,1.00,259.69,2.38,-76.88,8.25,-11.75,-3.12,0.68,1.46
15.00,2.00,271.94,-19.56,8.38,8.19,-6.88,-3.06,0.68,1.46
15.00,0.00,240.56,5.62,-100.75,24.00,13.06,12.00,0.95,1.48
15.00,1.00,259.94,2.31,-77.06,11.00,-14.06,-3.56,0.95,1.48
15.00,2.00,272.06,-19.44,8.25,11.44,-8.81,-3.75,0.95,1.48
15.00,0.00,239.94,5.94,-101.25,35.38,10.12,13.38,1.39,1.50
15.00,1.00,260.25,2.31,-77.31,12.81,-15.56,-4.75,1.39,1.50
15.00,2.00,272.19,-19.25,8.06,14.88,-8.38,-5.31,1.39,1.50
15.00,0.00,239.38,6.19,-102.00,46.56,2.19,14.38,2.01,1.52
15.00,1.00,260.81,2.25,-77.69,12.88,-15.94,-6.25,2.01,1.52
15.00,2.00,272.38,-19.06,7.75,17.31,-8.25,-7.31,2.01,1.52
15.00,0.00,239.00,6.50,-102.94,51.31,-0.94,14.25,2.65,1.54
15.00,1.00,261.00,2.19,-77.81,13.75,-16.50,-7.56,2.65,1.54
15.00,2.00,272.56,-18.88,7.44,21.50,-6.44,-8.94,2.65,1.54
15.00,0.00,238.69,6.75,-104.06,61.81,-9.25,13.69,3.46,1.56
15.00,1.00,261.38,2.12,-78.12,14.31,-16.44,-7.25,3.46,1.56
15.00,2.00,272.81,-18.75,7.00,23.88,-6.12,-9.00,3.46,1.56
15.00,0.00,238.50,6.94,-105.31,66.12,-12.56,14.12,4.38,1.58
15.00,1.00,261.75,2.06,-78.38,13.88,-15.06,-7.12,4.38,1.58
15.00,2.00,273.06,-18.62,6.62,23.12,-7.50,-8.56,4.38,1.58
15.00,0.00,238.38,7.12,-106.75,74.88,-15.19,14.88,5.54,1.60
15.00,1.00,262.12,1.94,-78.69,14.44,-15.00,-7.38,5.54,1.60
15.00,2.00,273.25,-18.44,6.25,20.88,-9.44,-7.75,5.54,1.60
15.00,0.00,238.25,7.31,-108.25,76.44,-15.69,14.06,6.73,1.62
15.00,1.00,262.69,1.81,-79.06,13.44,-13.81,-7.62,6.73,1.62
15.00,2.00,273.50,-18.19,5.88,20.88,-9.38,-7.56,6.73,1.62
15.00,0.00,238.50,7.44,-109.81,79.31,-16.81,12.62,7.99,1.64
15.00,1.00,262.88,1.81,-79.25,12.62,-12.56,-7.06,7.99,1.64
15.00,2.00,273.69,-18.00,5.50,20.31,-9.38,-6.81,7.99,1.64
15.00,0.00,238.38,7.56,-111.50,81.75,-16.75,13.62,9.32,1.66
15.00,1.00,263.19,1.69,-79.50,11.81,-10.31,-5.62,9.32,1.66
15.00,2.00,273.81,-17.81,5.19,19.81,-10.19,-5.19,9.32,1.66
15.00,0.00,238.25,7.69,-113.12,83.56,-15.69,15.00,10.73,1.68
15.00,1.00,263.44,1.69,-79.69,11.81,-8.69,-4.06,10.73,1.68
15.00,2.00,273.94,-17.62,4.81,17.50,-11.69,-2.44,10.73,1.68
15.00,0.00,238.06,7.88,-114.81,86.25,-15.38,16.88,12.30,1.70
15.00,1.00,263.62,1.62,-79.94,11.12,-8.44,-3.25,12.30,1.70
15.00,2.00,274.00,-17.31,4.56,13.06,-14.38,-0.25,12.30,1.70
15.00,0.00,237.75,8.06,-116.56,87.06,-13.12,17.75,13.89,1.72
15.00,1.00,263.81,1.62,-80.19,10.31,-7.88,-2.94,13.89,1.72
15.00,2.00,274.00,-17.06,4.31,12.75,-14.31,-0.75,13.89,1.72
15.00,0.00,237.31,8.25,-118.31,86.94,-11.94,16.19,15.41,1.74
15.00,1.00,264.00,1.56,-80.38,10.44,-7.56,-2.88,15.41,1.74
15.00,2.00,274.06,-16.81,4.00,15.94,-13.50,0.25,15.41,1.74
15.00,0.00,236.94,8.44,-120.06,87.25,-10.69,15.38,16.91,1.76
15.00,1.00,264.12,1.56,-80.56,12.31,-5.12,-3.12,16.91,1.76
15.00,2.00,274.06,-16.50,3.69,16.94,-15.56,1.50,16.91,1.76
15.00,0.00,236.38,8.56,-121.81,87.19,-7.94,15.25,18.49,1.78
15.00,1.00,264.25,1.50,-80.88,13.50,-4.88,-3.00,18.49,1.78
15.00,2.00,274.06,-16.19,3.38,13.31,-15.94,1.81,18.49,1.78
15.00,0.00,235.88,8.69,-123.50,86.50,-8.44,13.44,20.13,1.80
15.00,1.00,264.38,1.50,-81.12,12.88,-5.06,-2.31,20.13,1.80
15.00,2.00,274.06,-15.88,3.12,9.88,-13.81,2.50,20.13,1.80
15.00,0.00,235.31,8.81,-125.25,87.12,-8.31,13.44,21.81,1.82
15.00,1.00,264.50,1.44,-81.38,10.62,-3.56,-1.19,21.81,1.82
15.00,2.00,274.00,-15.62,2.88,8.94,-13.44,3.50,21.81,1.82
15.00,0.00,234.75,8.94,-126.94,86.25,-7.69,11.75,23.48,1.84
15.00,1.00,264.56,1.44,-81.56,9.38,-3.25,-0.62,23.48,1.84
15.00,2.00,273.94,-15.38,2.69,7.88,-13.19,4.31,23.48,1.84
15.00,0.00,234.25,9.00,-128.62,85.00,-9.56,8.25,25.18,1.86
15.00,1.00,264.62,1.44,-81.75,10.44,-2.62,-1.25,25.18,1.86
15.00,2.00,273.81,-15.12,2.56,5.88,-11.75,4.75,25.18,1.86
15.00,0.00,233.94,8.94,-130.31,83.31,-12.12,5.31,26.84,1.88
15.00,1.00,264.69,1.44,-82.00,11.75,-2.75,-1.19,26.84,1.88
15.00,2.00,273.75,-14.94,2.38,5.75,-12.12,5.62,26.84,1.88
15.00,0.00,233.69,8.81,-131.94,81.19,-13.44,2.81,28.41,1.90
15.00,1.00,264.75,1.44,-82.25,14.38,-2.25,-1.12,28.41,1.90
15.00,2.00,273.62,-14.69,2.19,7.44,-10.56,5.94,28.41,1.90
15.00,0.00,233.56,8.62,-133.50,79.12,-13.75,1.12,29.94,1.92
15.00,1.00,264.75,1.44,-82.56,17.94,-2.00,-1.06,29.94,1.92
15.00,2.00,273.50,-14.56,2.00,7.81,-8.94,7.38,29.94,1.92
15.00,0.00,233.38,8.50,-135.06,78.62,-12.50,1.19,31.43,1.94
15.00,1.00,264.81,1.38,-82.94,17.19,-1.75,-1.44,31.43,1.94
15.00,2.00,273.38,-14.38,1.81,9.06,-9.25,8.31,31.43,1.94
15.00,0.00,77.31,8.31,-136.56,76.31,-11.62,-0.06,32.90,1.96
15.00,1.00,264.88,1.38,-83.25,17.88,0.50,-1.75,32.90,1.96
15.00,2.00,273.25,-14.19,1.62,7.44,-8.88,8.75,32.90,1.96
15.00,0.00,77.25,8.19,-138.06,76.00,-9.31,0.19,34.36,1.98
15.00,1.00,264.88,1.31,-83.62,15.50,1.50,-2.19,34.36,1.98
15.00,2.00,273.06,-14.06,1.38,8.12,-8.50,9.88,34.36,1.98
15.00,0.00,77.44,8.06,-139.50,74.31,-5.38,0.31,35.80,2.00
15.00,1.00,264.88,1.25,-83.88,16.62,2.06,-2.69,35.80,2.00
15.00,2.00,272.88,-13.88,1.19,6.69,-8.25,10.75,35.80,2.00
15.00,0.00,77.38,8.06,-140.94,71.75,-2.88,0.38,37.15,2.02
15.00,1.00,264.88,1.19,-84.25,17.31,3.00,-2.56,37.15,2.02
15.00,2.00,272.69,-13.75,0.94,8.88,-8.12,11.31,37.15,2.02
15.00,0.00,77.31,8.00,-142.31,69.19,-1.88,-0.12,38.45,2.04
15.00,1.00,264.88,1.12,-84.56,18.00,3.38,-2.00,38.45,2.04
15.00,2.00,272.44,-13.56,0.75,8.31,-7.75,11.75,38.45,2.04
15.00,0.00,77.25,8.00,-143.56,66.75,0.06,0.69,39.65,2.06
15.00,1.00,264.81,1.12,-84.94,17.38,3.56,-0.69,39.65,2.06
15.00,2.00,272.25,-13.44,0.50,10.75,-6.19,12.12,39.65,2.06
15.00,0.00,77.19,8.00,-144.88,64.50,-0.62,1.19,40.77,2.08
15.00,1.00,264.75,1.12,-85.25,17.56,3.06,-0.25,40.77,2.08
15.00,2.00,272.06,-13.31,0.19,12.00,-4.94,12.38,40.77,2.08
15.00,0.00,77.12,8.00,-146.06,62.62,-0.44,0.50,41.83,2.10
15.00,1.00,264.69,1.12,-85.56,14.50,4.25,-0.44,41.83,2.10
15.00,2.00,271.81,-13.25,-0.06,13.06,-6.00,13.00,41.83,2.10
15.00,0.00,77.00,8.00,-147.25,59.81,1.50,-0.38,42.85,2.12
15.00,1.00,264.56,1.12,-85.81,10.94,3.62,-0.31,42.85,2.12
15.00,2.00,271.56,-13.12,-0.38,12.44,-5.44,13.38,42.85,2.12
15.00,0.00,76.88,8.06,-148.38,57.25,1.94,-1.00,43.84,2.14
15.00,1.00,264.56,1.06,-86.00,10.25,2.69,-0.62,43.84,2.14
15.00,2.00,271.38,-13.00,-0.62,10.69,-3.94,13.19,43.84,2.14
15.00,0.00,76.75,8.12,-149.44,56.38,3.31,0.19,44.84,2.16
15.00,1.00,264.50,1.06,-86.19,8.06,2.69,-1.25,44.84,2.16
15.00,2.00,271.12,-12.94,-0.88,9.81,-3.44,12.06,44.84,2.16
15.00,0.00,76.69,8.19,-150.50,53.12,4.06,0.56,45.76,2.18
15.00,1.00,264.44,1.00,-86.38,6.81,5.12,-2.00,45.76,2.18
15.00,2.00,270.94,-12.88,-1.19,10.31,-4.19,11.88,45.76,2.18
15.00,0.00,76.62,8.25,-151.50,50.19,2.75,0.94,46.60,2.20
15.00,1.00,264.44,1.00,-86.50,8.44,2.50,-1.00,46.60,2.20
15.00,2.00,270.75,-12.75,-1.44,10.69,-6.06,11.50,46.60,2.20
15.00,0.00,76.56,8.31,-152.44,48.62,4.06,2.38,47.48,2.22
15.00,1.00,264.38,0.94,-86.62,5.44,2.69,-0.19,47.48,2.22
15.00,2.00,270.50,-12.62,-1.62,7.44,-7.44,11.94,47.48,2.22
15.00,0.00,76.50,8.44,-153.38,47.25,5.31,1.75,48.34,2.24
15.00,1.00,264.38,0.94,-86.69,0.94,2.06,0.75,48.34,2.24
15.00,2.00,270.31,-12.44,-1.81,7.25,-9.81,12.00,48.34,2.24
15.00,0.00,76.44,8.50,-154.25,44.62,4.75,1.00,49.14,2.26
15.00,1.00,264.38,0.94,-86.75,3.12,-0.38,0.88,49.14,2.26
15.00,2.00,270.12,-12.19,-2.00,7.44,-10.31,11.38,49.14,2.26
15.00,0.00,76.31,8.62,-155.06,42.44,7.31,0.62,49.92,2.28
15.00,1.00,264.38,0.94,-86.81,2.94,-1.25,1.31,49.92,2.28
15.00,2.00,269.94,-12.00,-2.19,5.94,-9.50,9.81,49.92,2.28
15.00,0.00,76.25,8.81,-155.81,41.12,8.81,0.19,50.70,2.30
15.00,1.00,264.31,1.00,-86.88,1.19,0.44,2.06,50.70,2.30
15.00,2.00,269.75,-11.81,-2.31,4.56,-9.88,10.44,50.70,2.30
15.00,0.00,76.12,8.94,-156.56,36.56,6.56,-1.25,51.39,2.32
15.00,1.00,264.25,1.06,-86.88,0.44,1.25,3.31,51.39,2.32
15.00,2.00,269.50,-11.62,-2.50,4.25,-10.75,11.50,51.39,2.32
15.00,0.00,76.00,9.00,-157.25,35.19,4.75,-0.75,52.08,2.34
15.00,1.00,264.19,1.12,-86.81,-1.69,1.50,3.50,52.08,2.34
15.00,2.00,269.31,-11.44,-2.56,3.00,-8.88,10.75,52.08,2.34
15.00,0.00,75.94,9.06,-157.88,33.38,4.88,-1.25,52.84,2.36
15.00,1.00,264.12,1.19,-86.81,-3.06,0.38,2.94,52.84,2.36
15.00,2.00,269.12,-11.31,-2.62,-2.25,-5.12,10.38,52.84,2.36
15.00,0.00,75.81,9.19,-158.50,29.50,5.19,-2.06,53.59,2.38
15.00,1.00,264.06,1.19,-86.69,-5.50,2.12,2.81,53.59,2.38
15.00,2.00,268.94,-11.19,-2.56,-5.38,-3.69,10.12,53.59,2.38
15.00,0.00,75.69,9.25,-158.81,23.19,5.69,-2.38,54.21,2.40
15.00,1.00,263.88,1.25,-86.56,-9.69,4.19,3.75,54.21,2.40
15.00,2.00,268.69,-11.12,-2.50,-5.88,-2.25,12.31,54.21,2.40
15.00,0.00,75.62,9.38,-159.06,15.19,7.44,-1.81,54.66,2.42
15.00,1.00,263.69,1.31,-86.38,-9.25,6.69,4.31,54.66,2.42
15.00,2.00,268.44,-11.06,-2.50,-5.69,-0.94,12.94,54.66,2.42
15.00,0.00,75.56,9.56,-159.25,6.88,9.50,-1.69,54.99,2.44
15.00,1.00,263.50,1.44,-86.19,-11.38,7.50,5.75,54.99,2.44
15.00,2.00,268.12,-11.06,-2.50,-8.75,1.56,12.38,54.99,2.44
15.00,0.00,75.50,9.69,-159.25,-3.00,9.62,-1.31,55.15,2.46
15.00,1.00,263.19,1.56,-85.88,-15.56,12.56,7.12,55.15,2.46
15.00,2.00,267.88,-11.12,-2.50,-10.38,3.75,12.19,55.15,2.46
15.00,0.00,75.44,9.94,-158.81,-15.25,9.69,-2.62,55.13,2.48
15.00,1.00,262.69,1.69,-85.50,-19.88,16.50,9.50,55.13,2.48
15.00,2.00,267.62,-11.19,-2.25,-14.44,5.62,10.88,55.13,2.48
15.00,0.00,75.31,10.06,-158.25,-26.62,9.12,-5.56,55.05,2.50
15.00,1.00,262.12,1.88,-85.00,-27.31,22.44,11.94,55.05,2.50
15.00,2.00,267.38,-11.31,-1.94,-22.69,8.12,10.62,55.05,2.50
15.00,0.00,75.19,10.19,-157.56,-34.38,9.75,-7.88,54.91,2.52
15.00,1.00,261.44,2.06,-84.38,-32.88,29.25,10.31,54.91,2.52
15.00,2.00,267.06,-11.44,-1.44,-28.06,3.81,13.50,54.91,2.52
15.00,0.00,75.06,10.31,-156.75,-43.25,11.19,-8.94,54.56,2.54
15.00,1.00,260.94,2.12,-83.81,-25.56,21.31,6.25,54.56,2.54
15.00,2.00,266.81,-11.50,-0.94,-26.88,4.31,10.75,54.56,2.54
15.00,0.00,74.94,10.44,-155.81,-46.62,8.25,-10.25,54.10,2.56
15.00,1.00,260.62,2.19,-83.38,-20.69,12.94,3.44,54.10,2.56
15.00,2.00,266.62,-11.69,-0.50,-25.00,11.75,4.19,54.10,2.56
15.00,0.00,74.81,10.44,-154.81,-48.25,6.19,-10.81,53.61,2.58
15.00,1.00,260.31,2.19,-82.94,-24.69,17.88,1.19,53.61,2.58
15.00,2.00,266.50,-12.00,0.00,-25.56,18.19,2.81,53.61,2.58
15.00,0.00,74.31,10.38,-153.81,-52.38,2.38,-12.88,53.09,2.60
15.00,1.00,260.00,2.12,-82.31,-30.44,18.19,0.88,53.09,2.60
15.00,2.00,266.38,-12.38,0.44,-27.69,21.12,4.38,53.09,2.60
15.00,0.00,74.06,10.25,-152.62,-57.38,-0.69,-16.94,52.53,2.62
15.00,1.00,259.69,2.12,-81.69,-31.69,20.06,0.50,52.53,2.62
15.00,2.00,266.19,-12.75,1.00,-31.62,16.38,6.25,52.53,2.62
15.00,0.00,73.50,10.06,-151.50,-58.56,-4.19,-17.12,52.05,2.64
15.00,1.00,259.38,2.06,-81.06,-31.88,17.12,-0.69,52.05,2.64
15.00,2.00,266.12,-13.06,1.69,-35.81,17.44,0.50,52.05,2.64
15.00,0.00,73.31,9.81,-150.31,-59.19,-5.12,-16.06,51.47,2.66
15.00,1.00,259.19,2.00,-80.44,-30.69,15.19,-1.62,51.47,2.66
15.00,2.00,266.06,-13.44,2.38,-32.31,19.00,-1.12,51.47,2.66
15.00,0.00,73.12,9.56,-149.12,-60.12,-5.38,-16.56,50.74,2.68
15.00,1.00,259.00,1.88,-79.88,-29.44,13.62,-2.44,50.74,2.68
15.00,2.00,266.00,-13.81,2.88,-26.06,20.44,-0.44,50.74,2.68
15.00,0.00,72.50,9.31,-147.81,-63.94,-3.94,-17.06,49.96,2.70
15.00,1.00,258.88,1.81,-79.31,-27.06,11.44,-2.31,49.96,2.70
15.00,2.00,265.94,-14.19,3.44,-27.44,18.56,0.94,49.96,2.70
15.00,0.00,72.31,9.12,-146.56,-64.81,-2.19,-16.31,49.14,2.72
15.00,1.00,258.75,1.75,-78.81,-26.88,12.06,-0.94,49.14,2.72
15.00,2.00,265.88,-14.50,3.94,-26.56,16.25,0.69,49.14,2.72
15.00,0.00,72.00,8.88,-145.31,-59.38,-4.25,-12.94,48.46,2.74
15.00,1.00,258.56,1.62,-78.25,-27.12,12.12,-0.38,48.46,2.74
15.00,2.00,265.81,-14.81,4.50,-27.56,17.12,-0.75,48.46,2.74
15.00,0.00,71.88,8.69,-144.25,-56.31,-3.94,-12.00,47.82,2.76
15.00,1.00,258.44,1.56,-77.69,-28.94,10.06,-0.50,47.82,2.76
15.00,2.00,265.81,-15.12,5.00,-26.38,16.75,-1.75,47.82,2.76
15.00,0.00,71.75,8.50,-143.12,-54.62,-5.00,-12.50,47.14,2.78
15.00,1.00,258.38,1.44,-77.12,-28.56,6.88,-1.19,47.14,2.78
15.00,2.00,265.81,-15.50,5.50,-22.69,17.44,-2.31,47.14,2.78
15.00,0.00,71.44,8.38,-142.62,-52.38,-2.44,-10.69,46.42,2.80
15.00,1.00,258.38,1.44,-76.62,-26.50,4.81,-1.50,46.42,2.80
15.00,2.00,265.81,-15.81,5.94,-19.00,16.56,-2.62,46.42,2.80
15.00,0.00,71.25,8.19,-141.12,-48.00,1.81,-8.00,45.84,2.82
15.00,1.00,258.38,1.31,-76.12,-23.50,4.50,-1.88,45.84,2.82
15.00,2.00,265.81,-16.06,6.31,-20.62,14.56,-2.38,45.84,2.82
15.00,0.00,71.12,8.12,-140.25,-44.19,3.12,-6.75,45.31,2.84
15.00,1.00,258.38,1.25,-75.69,-21.25,3.50,-2.50,45.31,2.84
15.00,2.00,265.81,-16.31,6.75,-19.56,13.12,-3.44,45.31,2.84
15.00,0.00,71.06,8.12,-139.38,-41.19,5.56,-5.88,44.81,2.86
15.00,1.00,258.38,1.12,-75.31,-20.44,3.44,-2.88,44.81,2.86
15.00,2.00,265.88,-16.56,7.12,-17.81,13.38,-5.00,44.81,2.86
15.00,0.00,71.00,8.19,-138.62,-38.81,7.06,-4.62,44.33,2.88
15.00,1.00,258.44,1.06,-74.88,-20.56,1.56,-1.94,44.33,2.88
15.00,2.00,265.94,-16.81,7.50,-16.38,12.81,-5.38,44.33,2.88
15.00,0.00,71.00,8.19,-138.25,-37.31,6.88,-3.94,43.87,2.90
15.00,1.00,258.50,1.00,-74.50,-20.00,1.38,-1.12,43.87,2.90
15.00,2.00,266.00,-17.00,7.81,-16.00,9.88,-3.88,43.87,2.90
15.00,0.00,70.94,8.25,-137.50,-36.75,6.12,-3.38,43.43,2.92
15.00,1.00,258.50,0.94,-74.12,-20.38,2.25,-0.31,43.43,2.92
15.00,2.00,266.00,-17.19,8.19,-16.00,7.50,-2.94,43.43,2.92
15.00,0.00,70.88,8.31,-136.81,-35.88,6.38,-2.50,42.99,2.94
15.00,1.00,258.50,0.94,-73.69,-19.88,1.50,0.56,42.99,2.94
15.00,2.00,266.06,-17.31,8.56,-15.25,6.62,-4.19,42.99,2.94
15.00,0.00,70.94,8.38,-136.06,-35.56,6.75,-2.88,42.53,2.96
15.00,1.00,258.44,0.94,-73.31,-19.00,0.75,0.88,42.53,2.96
15.00,2.00,266.12,-17.38,8.88,-14.31,6.38,-4.69,42.53,2.96
15.00,0.00,227.00,8.44,-135.38,-34.69,8.06,-2.44,42.04,2.98
15.00,1.00,258.50,0.88,-72.94,-17.25,-0.12,0.50,42.04,2.98
15.00,2.00,266.19,-17.50,9.19,-11.69,6.12,-4.38,42.04,2.98
15.00,0.00,227.06,8.50,-134.69,-33.00,9.44,-0.94,41.55,3.00
15.00,1.00,258.50,0.88,-72.62,-15.88,-1.06,0.75,41.55,3.00
15.00,2.00,266.25,-17.62,9.44,-9.88,6.50,-4.56,41.55,3.00
15.00,0.00,226.94,8.62,-134.06,-31.12,9.25,-0.06,41.09,3.02
15.00,1.00,258.50,0.94,-72.31,-16.94,0.19,1.62,41.09,3.02
15.00,2.00,266.31,-17.75,9.69,-9.75,6.31,-3.81,41.09,3.02
15.00,0.00,226.81,8.75,-133.44,-30.75,9.19,-0.19,40.68,3.04
15.00,1.00,258.44,0.94,-72.00,-17.94,1.62,2.00,40.68,3.04
15.00,2.00,266.38,-17.81,9.88,-11.62,5.00,-2.75,40.68,3.04
15.00,0.00,226.75,8.81,-132.88,-28.31,7.75,-0.38,40.36,3.06
15.00,1.00,258.38,1.00,-71.62,-17.12,1.88,1.44,40.36,3.06
15.00,2.00,266.38,-17.94,10.19,-13.44,4.81,-2.38,40.36,3.06
15.00,0.00,226.69,8.94,-132.38,-25.56,6.69,0.94,40.07,3.08
15.00,1.00,258.31,1.00,-71.31,-15.19,1.69,0.88,40.07,3.08
15.00,2.00,266.38,-18.00,10.44,-12.06,5.81,-3.06,40.07,3.08
15.00,0.00,226.62,9.00,-131.94,-24.94,5.69,1.31,39.75,3.10
15.00,1.00,258.31,0.94,-71.06,-13.62,2.12,0.00,39.75,3.10
15.00,2.00,266.44,-18.12,10.69,-9.88,7.06,-2.81,39.75,3.10
15.00,0.00,226.62,9.12,-131.50,-23.44,4.81,1.75,39.46,3.12
15.00,1.00,258.31,0.94,-70.81,-12.12,2.12,-0.25,39.46,3.12
15.00,2.00,266.44,-18.25,10.88,-9.94,6.94,-2.62,39.46,3.12
15.00,0.00,226.56,9.19,-131.00,-23.12,4.75,1.75,39.18,3.14
15.00,1.00,258.25,0.94,-70.56,-12.50,2.81,-0.56,39.18,3.14
15.00,2.00,266.50,-18.38,11.12,-9.88,6.19,-2.25,39.18,3.14
15.00,0.00,226.56,9.25,-130.62,-20.88,2.56,1.94,38.96,3.16
15.00,1.00,258.19,0.94,-70.31,-12.81,3.62,-0.25,38.96,3.16
15.00,2.00,266.50,-18.44,11.31,-10.88,5.38,-1.50,38.96,3.16
15.00,0.00,226.62,9.31,-130.25,-21.25,1.94,1.31,38.75,3.18
15.00,1.00,258.19,0.88,-70.06,-12.69,3.56,0.44,38.75,3.18
15.00,2.00,266.50,-18.56,11.56,-11.06,3.88,-1.25,38.75,3.18
15.00,0.00,226.75,9.38,-129.81,-21.50,1.69,0.81,38.52,3.20
15.00,1.00,258.12,0.88,-69.81,-12.44,3.25,0.62,38.52,3.20
15.00,2.00,266.50,-18.56,11.81,-10.94,3.88,-1.88,38.52,3.20
15.00,0.00,226.88,9.38,-129.44,-20.81,1.25,0.81,38.30,3.22
15.00,1.00,258.06,0.88,-69.62,-11.06,2.00,0.31,38.30,3.22
15.00,2.00,266.56,-18.69,12.06,-10.38,4.44,-2.62,38.30,3.22
15.00,0.00,227.00,9.38,-129.06,-19.69,0.81,0.94,38.06,3.24
15.00,1.00,258.06,0.81,-69.38,-10.44,1.50,0.19,38.06,3.24
15.00,2.00,266.56,-18.75,12.25,-8.56,5.44,-3.06,38.06,3.24
15.00,0.00,227.44,9.44,-128.69,-19.06,-0.56,1.19,37.82,3.26
15.00,1.00,258.06,0.81,-69.19,-10.81,2.31,0.75,37.82,3.26
15.00,2.00,266.62,-18.81,12.44,-7.75,4.88,-3.19,37.82,3.26
15.00,0.00,227.62,9.38,-128.31,-19.44,-1.75,1.00,37.60,3.28
15.00,1.00,258.00,0.81,-69.00,-11.44,2.94,1.38,37.60,3.28
15.00,2.00,266.69,-18.88,12.62,-9.38,4.00,-3.00,37.60,3.28
15.00,0.00,228.19,9.38,-127.88,-21.19,-2.31,0.31,37.39,3.30
15.00,1.00,257.88,0.81,-68.75,-13.88,4.38,2.50,37.39,3.30
15.00,2.00,266.69,-18.94,12.88,-11.31,4.00,-2.00,37.39,3.30
15.00,0.00,228.44,9.38,-127.50,-22.75,-2.12,-0.56,37.14,3.32
15.00,1.00,257.75,0.88,-68.44,-13.88,5.12,2.88,37.14,3.32
15.00,2.00,266.69,-19.00,13.12,-11.25,4.19,-1.06,37.14,3.32
15.00,0.00,228.69,9.31,-127.00,-24.00,-1.19,-1.44,36.85,3.34
15.00,1.00,257.62,0.88,-68.19,-14.19,5.88,3.00,36.85,3.34
15.00,2.00,266.69,-19.12,13.31,-10.06,5.25,-0.56,36.85,3.34
15.00,0.00,229.44,9.31,-126.56,-24.44,-0.56,-0.81,36.55,3.36
15.00,1.00,257.50,0.88,-67.94,-13.50,6.62,2.69,36.55,3.36
15.00,2.00,266.69,-19.19,13.50,-10.50,5.69,-1.12,36.55,3.36
15.00,0.00,229.56,9.31,-126.06,-24.12,0.75,-0.62,36.28,3.38
15.00,1.00,257.38,0.88,-67.62,-14.75,6.69,2.38,36.28,3.38
15.00,2.00,266.69,-19.31,13.75,-11.44,5.56,-1.06,36.28,3.38
15.00,0.00,229.88,9.31,-125.62,-24.94,3.06,-1.06,36.00,3.40
15.00,1.00,257.31,0.88,-67.50,-14.44,6.50,1.75,36.00,3.40
15.00,2.00,266.62,-19.44,14.00,-11.88,5.94,-0.44,36.00,3.40
15.00,0.00,229.88,9.38,-125.12,-25.94,5.50,-1.31,35.71,3.42
15.00,1.00,257.12,0.81,-67.06,-13.75,6.75,1.81,35.71,3.42
15.00,2.00,266.62,-19.50,14.25,-12.38,6.12,0.25,35.71,3.42
15.00,0.00,229.88,9.38,-124.62,-26.12,7.19,-2.25,35.41,3.44
15.00,1.00,257.06,0.81,-66.94,-13.62,8.06,2.06,35.41,3.44
15.00,2.00,266.56,-19.62,14.50,-12.25,5.81,1.12,35.41,3.44
15.00,0.00,230.19,9.44,-124.12,-25.38,7.75,-2.50,35.12,3.46
15.00,1.00,256.88,0.75,-66.56,-13.62,8.00,1.69,35.12,3.46
15.00,2.00,266.50,-19.75,14.75,-12.06,7.56,1.94,35.12,3.46
15.00,0.00,230.12,9.50,-123.62,-24.75,8.75,-2.38,34.85,3.48
15.00,1.00,256.75,0.75,-66.31,-13.69,8.38,1.19,34.85,3.48
15.00,2.00,266.44,-19.94,14.94,-11.75,7.12,2.56,34.85,3.48
15.00,0.00,230.50,9.50,-123.19,-24.38,9.19,-3.12,34.58,3.50
15.00,1.00,256.69,0.69,-66.19,-13.62,8.50,1.25,34.58,3.50
15.00,2.00,266.38,-20.06,15.19,-11.69,6.75,2.44,34.58,3.50
15.00,0.00,230.50,9.56,-122.69,-24.19,9.00,-4.06,34.32,3.52
15.00,1.00,256.50,0.62,-65.75,-13.81,8.31,1.19,34.32,3.52
15.00,2.00,266.31,-20.19,15.38,-12.19,6.75,2.12,34.32,3.52
15.00,0.00,230.44,9.56,-122.25,-22.56,8.88,-4.25,34.11,3.54
15.00,1.00,256.44,0.62,-65.62,-13.75,8.06,0.88,34.11,3.54
15.00,2.00,266.25,-20.31,15.62,-12.81,6.81,2.62,34.11,3.54
15.00,0.00,230.50,9.56,-121.88,-20.44,8.88,-3.88,33.94,3.56
15.00,1.00,256.31,0.56,-65.38,-13.81,7.94,1.06,33.94,3.56
15.00,2.00,266.12,-20.50,15.88,-12.44,6.50,2.94,33.94,3.56
15.00,0.00,230.44,9.56,-121.56,-18.19,8.19,-4.00,33.81,3.58
15.00,1.00,256.19,0.50,-65.00,-13.38,6.94,0.88,33.81,3.58
15.00,2.00,266.06,-20.62,16.12,-12.00,5.88,2.44,33.81,3.58
15.00,0.00,230.56,9.56,-121.25,-16.25,7.31,-4.00,33.71,3.60
15.00,1.00,256.12,0.44,-64.88,-12.75,6.12,0.25,33.71,3.60
15.00,2.00,266.00,-20.75,16.38,-11.56,5.75,1.81,33.71,3.60
15.00,0.00,230.56,9.56,-120.94,-14.69,6.38,-4.19,33.61,3.62
15.00,1.00,256.06,0.38,-64.50,-12.19,5.88,0.12,33.61,3.62
15.00,2.00,265.94,-20.81,16.56,-10.38,5.31,1.19,33.61,3.62
15.00,0.00,230.50,9.56,-120.69,-14.00,6.81,-4.75,33.51,3.64
15.00,1.00,256.00,0.31,-64.38,-11.31,5.38,0.31,33.51,3.64
15.00,2.00,265.94,-20.94,16.75,-9.19,4.81,1.50,33.51,3.64
15.00,0.00,230.75,9.56,-120.44,-12.31,5.69,-4.38,33.43,3.66
15.00,1.00,255.94,0.31,-64.12,-11.06,5.12,0.31,33.43,3.66
15.00,2.00,265.88,-21.00,16.94,-8.56,3.75,2.19,33.43,3.66
15.00,0.00,230.69,9.50,-120.25,-9.19,4.19,-2.94,33.40,3.68
15.00,1.00,255.88,0.19,-63.88,-9.81,5.44,0.44,33.40,3.68
15.00,2.00,265.81,-21.06,17.06,-8.00,3.50,2.00,33.40,3.68
15.00,0.00,230.94,9.56,-120.12,-8.19,3.88,-2.25,33.38,3.70
15.00,1.00,255.81,0.19,-63.75,-9.12,5.50,0.62,33.38,3.70
15.00,2.00,265.75,-21.19,17.19,-6.88,3.88,1.75,33.38,3.70
15.00,0.00,230.88,9.56,-119.94,-9.19,4.44,-2.06,33.34,3.72
15.00,1.00,255.75,0.12,-63.62,-9.38,5.56,0.81,33.34,3.72
15.00,2.00,265.69,-21.25,17.38,-7.62,3.94,1.81,33.34,3.72
15.00,0.00,230.81,9.56,-119.75,-9.38,4.44,-1.69,33.33,3.74
15.00,1.00,255.69,0.06,-63.44,-10.12,6.75,1.00,33.33,3.74
15.00,2.00,265.62,-21.31,17.50,-8.56,2.81,1.75,33.33,3.74
15.00,0.00,231.00,9.56,-119.50,-9.75,2.88,-1.00,33.31,3.76
15.00,1.00,255.56,0.06,-63.25,-10.38,6.88,0.94,33.31,3.76
15.00,2.00,265.56,-21.38,17.62,-8.81,2.88,1.62,33.31,3.76
15.00,0.00,231.00,9.56,-119.31,-9.44,1.81,-0.31,33.31,3.78
15.00,1.00,255.50,0.00,-63.00,-10.62,5.94,0.50,33.31,3.78
15.00,2.00,265.50,-21.44,17.81,-9.44,2.56,1.38,33.31,3.78
15.00,0.00,231.31,9.56,-119.12,-9.38,1.31,-0.12,33.30,3.80
15.00,1.00,255.44,0.00,-62.81,-10.50,5.88,0.44,33.30,3.80
15.00,2.00,265.50,-21.50,18.00,-9.19,3.00,0.94,33.30,3.80
15.00,0.00,231.31,9.62,-118.94,-10.12,0.69,-0.38,33.27,3.82
15.00,1.00,255.38,-0.06,-62.62,-9.88,5.06,0.25,33.27,3.82
15.00,2.00,265.44,-21.56,18.19,-8.50,3.56,0.56,33.27,3.82
15.00,0.00,231.38,9.56,-118.75,-10.00,-0.06,-0.19,33.23,3.84
15.00,1.00,255.31,-0.12,-62.44,-10.44,4.56,0.19,33.23,3.84
15.00,2.00,265.44,-21.62,18.38,-8.50,3.81,0.12,33.23,3.84
15.00,0.00,231.88,9.56,-118.56,-9.94,-0.75,0.12,33.21,3.86
15.00,1.00,255.25,-0.12,-62.25,-10.56,4.50,-0.19,33.21,3.86
15.00,2.00,265.44,-21.69,18.56,-8.81,3.50,-0.25,33.21,3.86
15.00,0.00,231.94,9.56,-118.38,-10.38,-1.56,-0.06,33.17,3.88
15.00,1.00,255.19,-0.19,-62.06,-10.44,4.75,-0.19,33.17,3.88
15.00,2.00,265.38,-21.75,18.75,-8.44,3.69,-0.88,33.17,3.88
15.00,0.00,232.44,9.56,-118.19,-10.69,-2.31,-0.31,33.13,3.90
15.00,1.00,255.12,-0.25,-61.81,-10.94,5.00,-0.50,33.13,3.90
15.00,2.00,265.38,-21.81,18.94,-9.06,3.06,-1.06,33.13,3.90
15.00,0.00,232.62,9.50,-117.94,-11.00,-3.75,-0.81,33.09,3.92
15.00,1.00,255.12,-0.31,-61.62,-11.38,4.62,-0.44,33.09,3.92
15.00,2.00,265.38,-21.81,19.12,-9.06,3.12,-1.31,33.09,3.92
15.00,0.00,232.88,9.44,-117.75,-10.94,-5.00,-0.81,33.05,3.94
15.00,1.00,255.06,-0.38,-61.38,-10.69,4.44,-0.94,33.05,3.94
15.00,2.00,265.38,-21.88,19.31,-9.00,2.69,-0.88,33.05,3.94
15.00,0.00,233.50,9.38,-117.56,-10.81,-4.81,-1.06,32.99,3.96
15.00,1.00,255.06,-0.44,-61.19,-10.44,3.94,-1.31,32.99,3.96
15.00,2.00,265.44,-21.94,19.50,-8.00,3.81,-1.88,32.99,3.96
15.00,0.00,233.69,9.31,-117.38,-10.19,-3.88,-0.75,32.94,3.98
15.00,1.00,255.06,-0.50,-61.00,-10.62,3.06,-1.88,32.94,3.98
15.00,2.00,265.44,-22.00,19.69,-7.62,4.12,-1.88,32.94,3.98
15.00,0.00,234.25,9.31,-117.25,-8.25,-2.50,0.06,32.91,4.00
15.00,1.00,255.06,-0.56,-60.81,-10.19,3.50,-2.81,32.91,4.00
15.00,2.00,265.44,-22.06,19.88,-7.19,5.06,-2.06,32.91,4.00
15.00,0.00,234.38,9.31,-117.06,-6.75,-1.69,0.62,32.94,4.02
15.00,1.00,255.06,-0.62,-60.56,-10.38,3.38,-3.19,32.94,4.02
15.00,2.00,265.50,-22.12,20.06,-7.81,4.38,-2.50,32.94,4.02
15.00,0.00,234.44,9.31,-117.00,-5.56,-1.56,0.69,32.98,4.04
15.00,1.00,255.12,-0.75,-60.38,-10.19,2.88,-3.50,32.98,4.04
15.00,2.00,265.50,-22.19,20.25,-7.50,4.56,-2.19,32.98,4.04
15.00,0.00,234.94,9.31,-116.94,-4.06,-2.00,0.69,33.05,4.06
15.00,1.00,255.12,-0.81,-60.19,-9.50,2.62,-3.31,33.05,4.06
15.00,2.00,265.56,-22.25,20.38,-7.38,3.88,-1.81,33.05,4.06
15.00,0.00,235.00,9.25,-116.88,-3.44,-2.44,0.25,33.12,4.08
15.00,1.00,255.12,-0.88,-60.06,-8.69,2.44,-2.12,33.12,4.08
15.00,2.00,265.56,-22.31,20.56,-6.94,3.19,-1.88,33.12,4.08
15.00,0.00,235.44,9.25,-116.81,-3.31,-2.25,-0.31,33.20,4.10
15.00,1.00,255.12,-0.94,-59.88,-9.12,2.19,-1.50,33.20,4.10
15.00,2.00,265.56,-22.31,20.69,-6.75,2.00,-1.50,33.20,4.10
15.00,0.00,235.56,9.19,-116.75,-3.31,-2.00,-1.06,33.26,4.12
15.00,1.00,255.19,-1.00,-59.69,-8.69,1.94,-1.19,33.26,4.12
15.00,2.00,265.56,-22.38,20.88,-6.31,1.50,-1.38,33.26,4.12
15.00,0.00,235.69,9.12,-116.69,-3.19,-1.44,-1.69,33.31,4.14
15.00,1.00,255.12,-1.00,-59.56,-7.81,1.94,-0.88,33.31,4.14
15.00,2.00,265.62,-22.38,21.00,-5.56,1.50,-1.25,33.31,4.14
15.00,0.00,236.12,9.12,-116.62,-2.50,-0.94,-1.69,33.37,4.16
15.00,1.00,255.12,-1.06,-59.38,-7.06,2.06,-0.69,33.37,4.16
15.00,2.00,265.62,-22.38,21.06,-5.12,0.81,-0.62,33.37,4.16
15.00,0.00,236.19,9.06,-116.56,-1.94,-0.62,-1.31,33.43,4.18
15.00,1.00,255.12,-1.06,-59.25,-6.31,1.88,-0.50,33.43,4.18
15.00,2.00,265.56,-22.38,21.19,-4.62,0.81,-0.12,33.43,4.18
15.00,0.00,236.69,9.06,-116.56,-1.94,-0.12,-1.44,33.47,4.20
15.00,1.00,255.12,-1.12,-59.12,-5.38,2.25,0.06,33.47,4.20
15.00,2.00,265.56,-22.38,21.25,-3.94,0.81,0.12,33.47,4.20
15.00,0.00,236.69,9.06,-116.50,-1.88,0.69,-1.38,33.51,4.22
15.00,1.00,255.06,-1.12,-59.00,-4.81,2.38,0.25,33.51,4.22
15.00,2.00,265.56,-22.44,21.38,-4.00,1.19,0.81,33.51,4.22
15.00,0.00,236.69,9.00,-116.44,-1.88,1.00,-1.25,33.55,4.24
15.00,1.00,255.06,-1.19,-58.94,-4.44,2.62,0.81,33.55,4.24
15.00,2.00,265.50,-22.44,21.44,-3.62,0.94,1.50,33.55,4.24
15.00,0.00,237.12,9.00,-116.44,-1.94,2.12,-1.19,33.58,4.26
15.00,1.00,255.00,-1.19,-58.81,-4.38,3.38,1.12,33.58,4.26
15.00,2.00,265.50,-22.50,21.50,-3.25,0.50,1.69,33.58,4.26
15.00,0.00,237.06,9.00,-116.38,-2.38,2.88,-1.06,33.58,4.28
15.00,1.00,254.94,-1.25,-58.75,-3.75,3.31,1.19,33.58,4.28
15.00,2.00,265.44,-22.50,21.50,-2.25,0.75,2.06,33.58,4.28
15.00,0.00,237.50,9.06,-116.31,-2.75,3.38,-0.31,33.57,4.30
15.00,1.00,254.88,-1.25,-58.69,-3.38,3.62,1.81,33.57,4.30
15.00,2.00,265.38,-22.50,21.56,-2.62,0.56,1.81,33.57,4.30
15.00,0.00,237.50,9.06,-116.19,-2.75,0.69,-0.94,33.58,4.32
15.00,1.00,254.81,-1.31,-58.56,-3.81,2.88,2.50,33.58,4.32
15.00,2.00,265.31,-22.50,21.62,-3.06,-0.88,1.94,33.58,4.32
15.00,0.00,237.50,9.00,-116.19,-2.25,0.62,0.38,33.60,4.34
15.00,1.00,254.75,-1.31,-58.50,-4.56,3.62,3.06,33.60,4.34
15.00,2.00,265.25,-22.50,21.62,-2.94,-1.19,2.25,33.60,4.34
15.00,0.00,237.75,9.06,-116.12,-4.25,2.31,-0.75,33.58,4.36
15.00,1.00,254.62,-1.25,-58.44,-4.56,3.62,3.56,33.58,4.36
15.00,2.00,265.19,-22.50,21.69,-3.31,-2.44,2.94,33.58,4.36
15.00,0.00,237.81,9.00,-116.00,-4.62,0.12,-1.19,33.56,4.38
15.00,1.00,254.56,-1.25,-58.31,-4.38,3.62,3.75,33.56,4.38
15.00,2.00,265.12,-22.44,21.69,-3.94,-3.69,2.56,33.56,4.38
15.00,0.00,237.81,9.00,-115.94,-4.94,1.12,-0.94,33.54,4.40
15.00,1.00,254.44,-1.25,-58.25,-4.38,3.75,3.69,33.54,4.40
15.00,2.00,265.06,-22.38,21.81,-4.00,-3.75,2.25,33.54,4.40
15.00,0.00,238.19,9.00,-115.75,-4.50,-0.19,-0.06,33.52,4.42
15.00,1.00,254.38,-1.25,-58.12,-3.44,3.06,3.56,33.52,4.42
15.00,2.00,265.00,-22.38,21.88,-3.69,-2.44,1.88,33.52,4.42
15.00,0.00,238.25,8.94,-115.62,-3.50,-1.56,0.88,33.52,4.44
15.00,1.00,254.25,-1.25,-58.06,-2.19,1.75,3.69,33.52,4.44
15.00,2.00,264.94,-22.38,21.94,-3.19,-1.81,1.56,33.52,4.44
15.00,0.00,238.69,8.94,-115.62,-4.31,-2.25,0.94,33.47,4.46
15.00,1.00,254.19,-1.19,-58.00,-3.06,0.56,5.12,33.47,4.46
15.00,2.00,264.88,-22.31,21.94,-2.00,-1.69,1.56,33.47,4.46
15.00,0.00,238.81,8.94,-115.50,-7.81,-3.06,0.56,33.37,4.48
15.00,1.00,254.00,-1.12,-57.88,-6.88,6.50,6.88,33.37,4.48
15.00,2.00,264.81,-22.31,21.94,-3.19,-2.81,3.06,33.37,4.48
15.00,0.00,238.94,8.94,-115.38,-14.06,-2.88,0.56,33.25,4.50
15.00,1.00,253.75,-1.06,-57.81,-6.25,7.38,8.75,33.25,4.50
15.00,2.00,264.69,-22.25,22.06,-8.75,-4.06,4.38,33.25,4.50
15.00,0.00,239.50,8.94,-115.06,-16.25,0.00,0.31,33.16,4.52
15.00,1.00,253.50,-1.00,-57.62,-7.81,7.12,9.25,33.16,4.52
15.00,2.00,264.56,-22.19,22.25,-11.75,-4.88,3.69,33.16,4.52
15.00,0.00,239.56,8.94,-114.75,-14.44,4.19,0.56,33.06,4.54
15.00,1.00,253.25,-0.94,-57.50,-7.31,6.69,8.12,33.06,4.54
15.00,2.00,264.44,-22.19,22.38,-9.88,-3.25,2.44,33.06,4.54
15.00,0.00,239.88,8.94,-114.50,-12.62,3.94,1.12,32.90,4.56
15.00,1.00,253.06,-0.88,-57.44,-4.25,3.44,6.69,32.90,4.56
15.00,2.00,264.38,-22.12,22.50,-4.88,-1.75,1.62,32.90,4.56
15.00,0.00,239.81,9.00,-114.25,-13.19,3.12,0.81,32.54,4.58
15.00,1.00,252.94,-0.75,-57.31,-3.69,1.44,7.81,32.54,4.58
15.00,2.00,264.31,-22.12,22.44,3.25,-0.31,2.12,32.54,4.58
15.00,0.00,239.75,9.06,-113.94,-16.19,3.38,0.12,32.18,4.60
15.00,1.00,252.69,-0.69,-57.25,-7.12,6.94,9.25,32.18,4.60
15.00,2.00,264.25,-22.12,22.38,0.75,-3.25,5.88,32.18,4.60
15.00,0.00,240.00,9.06,-113.62,-16.00,4.12,1.19,31.99,4.62
15.00,1.00,252.38,-0.62,-57.06,-9.88,8.25,10.12,31.99,4.62
15.00,2.00,264.06,-22.12,22.38,-7.19,-6.00,8.88,31.99,4.62
15.00,0.00,239.94,9.12,-113.31,-11.69,5.38,3.25,31.93,4.64
15.00,1.00,252.12,-0.56,-56.88,-9.56,8.75,9.06,31.93,4.64
15.00,2.00,263.81,-22.06,22.50,-8.81,-5.56,7.69,31.93,4.64
15.00,0.00,240.12,9.25,-113.06,-9.06,4.81,3.81,31.85,4.66
15.00,1.00,251.88,-0.50,-56.75,-5.25,7.56,7.06,31.85,4.66
15.00,2.00,263.75,-22.06,22.56,-5.38,-3.12,5.56,31.85,4.66
15.00,0.00,240.06,9.31,-113.00,-3.94,-0.56,3.69,31.78,4.68
15.00,1.00,251.75,-0.50,-56.69,-0.56,4.75,4.44,31.78,4.68
15.00,2.00,263.56,-22.06,22.56,-0.44,-0.50,3.81,31.78,4.68
15.00,0.00,240.00,9.38,-112.88,-2.94,1.75,4.69,31.70,4.70
15.00,1.00,251.62,-0.44,-56.75,1.19,3.69,2.75,31.70,4.70
15.00,2.00,263.50,-22.06,22.56,0.56,0.12,3.25,31.70,4.70
15.00,0.00,240.12,9.56,-112.88,-2.25,6.00,5.88,31.66,4.72
15.00,1.00,251.56,-0.44,-56.75,1.19,2.50,1.75,31.66,4.72
15.00,2.00,263.44,-22.12,22.50,-0.50,-0.56,2.81,31.66,4.72
15.00,0.00,239.88,9.69,-112.81,-0.62,2.00,6.69,31.66,4.74
15.00,1.00,251.50,-0.50,-56.81,1.88,1.88,0.94,31.66,4.74
15.00,2.00,263.44,-22.12,22.56,-0.25,-1.12,1.75,31.66,4.74
15.00,0.00,240.06,9.81,-112.75,0.56,2.00,7.75,31.66,4.76
15.00,1.00,251.50,-0.50,-56.81,3.31,1.25,-0.06,31.66,4.76
15.00,2.00,263.44,-22.06,22.62,0.44,-0.94,0.12,31.66,4.76
15.00,0.00,239.88,10.00,-112.81,1.75,2.19,7.69,31.66,4.78
15.00,1.00,251.56,-0.56,-56.88,4.69,-1.06,-0.50,31.66,4.78
15.00,2.00,263.50,-22.00,22.62,1.88,-1.25,-2.50,31.66,4.78
15.00,0.00,239.69,10.12,-112.81,3.00,1.06,6.38,31.62,4.80
15.00,1.00,251.62,-0.56,-56.94,4.75,-2.62,-1.12,31.62,4.80
15.00,2.00,263.56,-21.94,22.62,4.50,-1.12,-3.75,31.62,4.80
15.00,0.00,240.00,10.19,-112.88,3.56,1.94,5.56,31.58,4.82
15.00,1.00,251.69,-0.56,-57.06,5.31,-4.62,-1.50,31.58,4.82
15.00,2.00,263.62,-21.88,22.50,5.50,-2.81,-3.56,31.58,4.82
15.00,0.00,239.81,10.31,-112.94,3.25,2.19,4.56,31.53,4.84
15.00,1.00,251.75,-0.56,-57.12,5.25,-5.19,-1.69,31.53,4.84
15.00,2.00,263.75,-21.81,22.44,5.56,-2.75,-3.75,31.53,4.84
15.00,0.00,240.00,10.44,-113.06,4.12,2.44,4.94,31.52,4.86
15.00,1.00,251.88,-0.50,-57.25,4.19,-4.94,-1.62,31.52,4.86
15.00,2.00,263.75,-21.75,22.38,4.56,-2.75,-3.69,31.52,4.86
15.00,0.00,239.75,10.56,-113.12,5.25,3.06,5.94,31.54,4.88
15.00,1.00,252.00,-0.56,-57.25,1.19,-4.56,-2.00,31.54,4.88
15.00,2.00,263.88,-21.62,22.25,4.50,-4.56,-2.69,31.54,4.88
15.00,0.00,239.50,10.69,-113.25,5.56,3.56,5.88,31.57,4.90
15.00,1.00,252.12,-0.56,-57.25,2.06,-6.44,-3.00,31.57,4.90
15.00,2.00,263.94,-21.50,22.19,4.31,-5.81,-2.56,31.57,4.90
15.00,0.00,239.50,10.81,-113.38,6.44,3.56,6.88,31.55,4.92
15.00,1.00,252.25,-0.56,-57.31,5.69,-8.19,-4.69,31.55,4.92
15.00,2.00,264.00,-21.44,22.06,7.00,-3.50,-4.75,31.55,4.92
