Iteration,IMUNo,OrientationX (deg),OrientationY,OrientationZ,GyroX (20rad/sec),GyroY,GyroZ,Elbow_Pos (rad),Time (sec)
33.00,0.00,234.06,5.06,-90.31,0.00,0.12,0.00,0.00,1.00
33.00,1.00,246.25,2.19,-78.81,0.62,0.38,0.44,0.00,1.02
33.00,2.00,267.88,-19.50,9.50,-0.06,0.00,0.38,0.00,1.02
33.00,0.00,234.06,5.06,-90.31,0.00,0.19,-0.06,0.00,1.02
33.00,1.00,246.25,2.19,-78.81,0.62,0.25,0.31,0.00,1.02
33.00,2.00,267.88,-19.50,9.50,0.19,0.06,0.38,0.00,1.04
33.00,0.00,234.06,5.06,-90.31,0.12,0.06,-0.06,-0.01,1.04
33.00,1.00,246.25,2.19,-78.88,0.62,0.00,0.00,-0.01,1.04
33.00,2.00,267.88,-19.50,9.50,0.44,0.31,0.31,-0.01,1.04
33.00,0.00,234.06,5.06,-90.31,0.31,-0.25,0.00,-0.01,1.06
33.00,1.00,246.25,2.19,-78.88,0.44,0.50,0.06,-0.01,1.06
33.00,2.00,267.88,-19.50,9.50,0.06,0.00,0.12,-0.01,1.06
33.00,0.00,234.06,5.06,-90.31,0.31,-0.31,-0.12,0.00,1.08
33.00,1.00,246.25,2.19,-78.88,0.69,0.56,0.06,0.00,1.08
33.00,2.00,267.88,-19.50,9.50,0.19,0.19,0.25,0.00,1.08
33.00,0.00,234.06,5.06,-90.31,0.50,-0.12,-0.12,0.00,1.10
33.00,1.00,246.25,2.19,-78.88,0.50,0.31,0.12,0.00,1.10
33.00,2.00,267.88,-19.50,9.50,0.31,0.31,0.25,0.00,1.10
33.00,0.00,234.06,5.06,-90.31,0.31,0.19,0.00,0.01,1.12
33.00,1.00,246.25,2.19,-78.88,1.00,0.75,0.12,0.01,1.12
33.00,2.00,267.88,-19.50,9.50,0.00,0.31,0.88,0.01,1.12
33.00,0.00,234.06,5.06,-90.31,0.31,0.31,0.00,0.03,1.14
33.00,1.00,246.25,2.19,-78.88,1.06,0.44,-0.19,0.03,1.14
33.00,2.00,267.81,-19.50,9.50,-0.06,0.19,0.88,0.03,1.14
33.00,0.00,234.00,5.06,-90.31,0.75,0.75,0.31,0.04,1.16
33.00,1.00,246.25,2.19,-78.88,0.94,0.44,-0.25,0.04,1.16
33.00,2.00,267.81,-19.50,9.50,0.25,0.12,0.62,0.04,1.16
33.00,0.00,234.00,5.06,-90.38,1.12,0.56,0.38,0.08,1.18
33.00,1.00,246.25,2.12,-78.88,0.75,0.44,0.00,0.08,1.18
33.00,2.00,267.81,-19.50,9.50,-0.12,0.12,0.50,0.08,1.18
33.00,0.00,234.00,5.06,-90.38,1.19,0.31,0.31,0.12,1.20
33.00,1.00,246.25,2.12,-78.88,0.81,0.44,0.00,0.12,1.20
33.00,2.00,267.81,-19.50,9.50,0.06,0.12,0.62,0.12,1.20
33.00,0.00,234.00,5.06,-90.38,1.19,0.75,0.44,0.17,1.22
33.00,1.00,246.25,2.12,-78.94,0.88,0.44,0.25,0.17,1.22
33.00,2.00,267.81,-19.50,9.50,-0.31,0.25,1.00,0.17,1.22
33.00,0.00,233.94,5.06,-90.44,1.38,1.25,0.56,0.21,1.24
33.00,1.00,246.25,2.12,-78.94,0.88,0.50,0.00,0.21,1.24
33.00,2.00,267.81,-19.50,9.50,0.12,0.19,0.94,0.21,1.24
33.00,0.00,233.94,5.06,-90.44,1.44,1.69,0.62,0.23,1.26
33.00,1.00,246.25,2.12,-78.94,1.31,0.38,0.12,0.23,1.26
33.00,2.00,267.75,-19.50,9.50,0.69,-0.25,1.19,0.23,1.26
33.00,0.00,233.88,5.06,-90.44,1.38,1.38,0.56,0.19,1.28
33.00,1.00,246.25,2.12,-78.94,0.31,0.19,-0.31,0.19,1.28
33.00,2.00,267.75,-19.50,9.44,2.50,-1.75,1.06,0.19,1.28
33.00,0.00,233.81,5.12,-90.50,1.69,2.00,1.25,0.13,1.30
33.00,1.00,246.25,2.12,-78.94,0.00,-0.50,-0.06,0.13,1.30
33.00,2.00,267.75,-19.44,9.38,3.69,-2.94,1.31,0.13,1.30
33.00,0.00,233.69,5.19,-90.56,2.50,3.56,2.75,0.15,1.32
33.00,1.00,246.25,2.12,-78.94,0.19,-1.69,0.56,0.15,1.32
33.00,2.00,267.69,-19.38,9.31,1.75,-3.75,1.31,0.15,1.32
33.00,0.00,233.50,5.25,-90.69,5.25,6.06,4.31,0.32,1.34
33.00,1.00,246.31,2.12,-78.94,2.88,-2.94,0.00,0.32,1.34
33.00,2.00,267.69,-19.31,9.25,0.19,-4.44,1.56,0.32,1.34
33.00,0.00,233.19,5.38,-90.81,9.00,8.00,6.19,0.44,1.36
33.00,1.00,246.38,2.12,-78.94,1.94,-3.81,-2.00,0.44,1.36
33.00,2.00,267.62,-19.19,9.19,5.19,-9.06,0.75,0.44,1.36
33.00,0.00,232.88,5.50,-91.00,13.25,8.19,7.25,0.35,1.38
33.00,1.00,246.50,2.06,-78.94,-1.94,-6.62,-4.31,0.35,1.38
33.00,2.00,267.69,-18.88,8.94,16.06,-18.62,-1.25,0.35,1.38
33.00,0.00,232.50,5.69,-91.31,17.75,12.00,9.25,0.35,1.40
33.00,1.00,246.69,2.00,-78.88,0.50,-5.94,-2.88,0.35,1.40
33.00,2.00,267.69,-18.56,8.56,17.56,-14.75,1.38,0.35,1.40
33.00,0.00,231.88,5.94,-91.75,24.38,18.38,10.75,0.66,1.42
33.00,1.00,246.88,2.00,-78.88,1.44,-7.50,-1.62,0.66,1.42
33.00,2.00,267.62,-18.31,8.19,14.75,-10.12,5.81,0.66,1.42
33.00,0.00,231.25,6.06,-92.31,36.06,22.06,7.81,1.32,1.44
33.00,1.00,247.00,2.00,-78.94,2.75,-6.25,-1.25,1.32,1.44
33.00,2.00,267.56,-18.19,7.88,15.31,-9.44,6.62,1.32,1.44
33.00,0.00,230.50,6.31,-93.12,45.75,24.94,10.06,2.19,1.46
33.00,1.00,247.12,1.94,-79.06,7.44,-7.38,-2.19,2.19,1.46
33.00,2.00,267.50,-18.00,7.50,18.62,-10.44,4.31,2.19,1.46
33.00,0.00,229.56,6.50,-94.12,58.44,22.62,10.12,3.26,1.48
33.00,1.00,247.38,1.94,-79.31,14.88,-11.00,-4.56,3.26,1.48
33.00,2.00,267.50,-17.81,7.06,24.75,-10.00,2.81,3.26,1.48
33.00,0.00,228.75,6.75,-95.44,72.00,16.62,11.94,4.66,1.50
33.00,1.00,247.69,1.88,-79.69,18.12,-15.00,-5.88,4.66,1.50
33.00,2.00,267.56,-17.62,6.50,28.19,-8.44,1.69,4.66,1.50
33.00,0.00,227.88,7.00,-96.94,81.88,13.31,10.56,6.38,1.52
33.00,1.00,248.00,1.81,-80.00,18.00,-14.25,-5.94,6.38,1.52
33.00,2.00,267.56,-17.50,5.94,28.06,-8.31,2.00,6.38,1.52
33.00,0.00,227.31,7.19,-98.62,90.38,6.31,8.69,8.46,1.54
33.00,1.00,248.38,1.75,-80.38,15.75,-14.69,-5.06,8.46,1.54
33.00,2.00,267.62,-17.31,5.44,25.12,-9.06,2.19,8.46,1.54
33.00,0.00,226.81,7.31,-100.44,94.44,3.31,5.94,10.77,1.56
33.00,1.00,248.62,1.75,-80.69,15.75,-13.50,-3.06,10.77,1.56
33.00,2.00,267.62,-17.12,4.94,22.25,-10.56,2.81,10.77,1.56
33.00,0.00,226.44,7.44,-102.31,96.69,-0.62,3.94,13.22,1.58
33.00,1.00,248.88,1.69,-80.94,15.00,-13.00,-2.75,13.22,1.58
33.00,2.00,267.56,-16.88,4.50,19.75,-12.94,4.62,13.22,1.58
33.00,0.00,226.12,7.44,-104.19,96.88,-4.75,2.62,15.71,1.60
33.00,1.00,249.12,1.69,-81.25,15.69,-12.50,-2.44,15.71,1.60
33.00,2.00,267.50,-16.62,4.12,19.00,-13.06,4.81,15.71,1.60
33.00,0.00,225.88,7.50,-106.06,97.00,-6.19,4.50,18.21,1.62
33.00,1.00,249.38,1.69,-81.56,18.06,-13.31,-1.94,18.21,1.62
33.00,2.00,267.50,-16.44,3.69,18.75,-12.75,4.50,18.21,1.62
33.00,0.00,225.56,7.56,-108.00,96.62,-3.88,6.25,20.75,1.64
33.00,1.00,249.62,1.69,-81.94,17.56,-10.81,-1.94,20.75,1.64
33.00,2.00,267.44,-16.19,3.31,16.88,-12.56,6.31,20.75,1.64
33.00,0.00,225.12,7.69,-109.81,94.62,-3.00,7.06,23.31,1.66
33.00,1.00,249.81,1.69,-82.25,16.12,-8.75,-2.56,23.31,1.66
33.00,2.00,267.31,-15.94,3.00,14.56,-14.06,8.62,23.31,1.66
33.00,0.00,224.75,7.81,-111.56,88.62,-3.12,5.62,25.75,1.68
33.00,1.00,250.00,1.62,-82.56,14.81,-6.19,-2.94,25.75,1.68
33.00,2.00,267.12,-15.62,2.62,12.12,-14.94,9.19,25.75,1.68
33.00,0.00,224.25,7.94,-113.25,85.75,0.44,8.00,28.21,1.70
33.00,1.00,250.12,1.62,-82.81,14.19,-6.88,-1.31,28.21,1.70
33.00,2.00,267.00,-15.31,2.31,8.75,-17.62,8.38,28.21,1.70
33.00,0.00,223.62,8.06,-114.94,85.81,0.75,9.00,30.75,1.72
33.00,1.00,250.25,1.62,-83.06,12.00,-6.06,-0.69,30.75,1.72
33.00,2.00,266.81,-15.00,2.06,6.25,-18.19,9.12,30.75,1.72
33.00,0.00,223.19,8.19,-116.62,84.19,-4.88,7.31,33.23,1.74
33.00,1.00,250.31,1.62,-83.25,9.19,-5.06,-0.62,33.23,1.74
33.00,2.00,266.62,-14.62,1.94,6.38,-18.12,8.38,33.23,1.74
33.00,0.00,222.81,8.25,-118.19,80.69,-4.75,5.75,35.61,1.76
33.00,1.00,250.44,1.62,-83.44,8.25,-5.38,-0.31,35.61,1.76
33.00,2.00,266.50,-14.31,1.75,6.06,-16.19,6.69,35.61,1.76
33.00,0.00,222.56,8.25,-119.75,77.50,-7.56,3.50,37.87,1.78
33.00,1.00,250.56,1.62,-83.56,7.12,-5.25,-0.94,37.87,1.78
33.00,2.00,266.44,-14.00,1.56,7.00,-15.62,6.50,37.87,1.78
33.00,0.00,222.38,8.19,-121.25,74.75,-9.06,1.81,40.01,1.80
33.00,1.00,250.69,1.62,-83.75,8.25,-7.31,-1.00,40.01,1.80
33.00,2.00,266.31,-13.75,1.38,7.50,-12.75,4.94,40.01,1.80
33.00,0.00,222.44,8.06,-122.69,74.44,-17.25,0.81,42.23,1.82
33.00,1.00,250.81,1.62,-83.88,6.19,-8.12,-0.75,42.23,1.82
33.00,2.00,266.25,-13.56,1.25,5.06,-9.44,4.69,42.23,1.82
33.00,0.00,222.62,7.88,-124.12,71.56,-18.31,-0.06,44.41,1.84
33.00,1.00,251.00,1.62,-84.00,6.06,-5.75,-1.00,44.41,1.84
33.00,2.00,266.19,-13.38,1.19,3.12,-7.94,3.88,44.41,1.84
33.00,0.00,222.94,7.62,-125.50,66.44,-19.12,-2.31,46.43,1.86
33.00,1.00,251.06,1.56,-84.06,3.69,-5.06,-1.31,46.43,1.86
33.00,2.00,266.06,-13.25,1.00,3.06,-6.44,4.19,46.43,1.86
33.00,0.00,223.44,7.31,-126.75,61.00,-21.44,-4.12,48.33,1.88
33.00,1.00,251.19,1.56,-84.19,3.94,-5.00,-1.50,48.33,1.88
33.00,2.00,266.00,-13.12,0.88,1.62,-6.00,3.56,48.33,1.88
33.00,0.00,223.94,7.00,-127.88,56.25,-18.94,-4.25,50.16,1.90
33.00,1.00,251.31,1.56,-84.25,2.88,-3.56,-0.81,50.16,1.90
33.00,2.00,265.94,-13.00,0.81,-1.00,-6.62,4.56,50.16,1.90
33.00,0.00,224.12,6.88,-128.44,50.81,-15.69,-4.19,51.86,1.92
33.00,1.00,251.31,1.56,-84.25,2.50,-2.69,-0.19,51.86,1.92
33.00,2.00,265.81,-12.94,0.75,-2.50,-5.56,5.44,51.86,1.92
33.00,0.00,224.75,6.50,-129.88,45.81,-15.00,-3.62,53.46,1.94
33.00,1.00,251.38,1.56,-84.31,0.94,-2.12,0.69,53.46,1.94
33.00,2.00,265.69,-12.81,0.75,-4.31,-5.38,5.31,53.46,1.94
33.00,0.00,225.06,6.31,-130.69,41.00,-12.75,-3.12,54.90,1.96
33.00,1.00,251.38,1.56,-84.31,-0.88,-1.19,1.06,54.90,1.96
33.00,2.00,265.56,-12.69,0.81,-4.19,-5.69,5.38,54.90,1.96
33.00,0.00,225.44,6.12,-131.31,36.75,-11.62,-3.56,56.21,1.98
33.00,1.00,251.38,1.62,-84.31,-0.06,-0.94,0.94,56.21,1.98
33.00,2.00,265.44,-12.62,0.81,-4.12,-6.50,5.69,56.21,1.98
33.00,0.00,225.56,6.00,-131.62,32.62,-10.31,-3.50,57.35,2.00
33.00,1.00,251.44,1.62,-84.31,1.75,-2.44,1.44,57.35,2.00
33.00,2.00,265.31,-12.50,0.88,-3.06,-6.00,5.12,57.35,2.00
33.00,0.00,225.88,5.81,-132.25,29.50,-9.06,-4.38,58.36,2.02
33.00,1.00,251.44,1.62,-84.31,1.31,-3.56,1.81,58.36,2.02
33.00,2.00,265.25,-12.38,0.88,-2.31,-4.75,4.19,58.36,2.02
33.00,0.00,226.19,5.69,-132.81,27.06,-7.00,-4.25,59.30,2.04
33.00,1.00,251.50,1.69,-84.38,1.38,-3.19,1.94,59.30,2.04
33.00,2.00,265.19,-12.31,0.94,-2.50,-4.62,3.44,59.30,2.04
33.00,0.00,226.38,5.50,-133.31,23.69,-5.31,-4.69,60.18,2.06
33.00,1.00,251.50,1.75,-84.38,-0.12,-3.31,2.44,60.18,2.06
33.00,2.00,265.12,-12.25,0.94,-3.69,-4.06,3.31,60.18,2.06
33.00,0.00,226.56,5.38,-133.75,21.94,-3.31,-3.44,61.01,2.08
33.00,1.00,251.50,1.75,-84.38,0.19,-2.94,2.31,61.01,2.08
33.00,2.00,265.00,-12.12,1.00,-4.12,-3.94,3.56,61.01,2.08
33.00,0.00,226.62,5.31,-134.19,18.81,0.50,-3.31,61.70,2.10
33.00,1.00,251.50,1.81,-84.38,0.38,-2.50,2.50,61.70,2.10
33.00,2.00,264.94,-12.06,1.06,-2.94,-3.31,4.12,61.70,2.10
33.00,0.00,226.50,5.31,-134.50,16.88,2.19,-2.12,62.30,2.12
33.00,1.00,251.50,1.88,-84.38,0.88,-1.81,2.75,62.30,2.12
33.00,2.00,264.81,-12.00,1.06,-1.69,-3.62,4.31,62.30,2.12
33.00,0.00,226.12,5.38,-134.81,15.88,7.06,0.19,62.86,2.14
33.00,1.00,251.44,1.94,-84.38,0.81,-0.81,3.50,62.86,2.14
33.00,2.00,264.75,-11.94,1.06,-1.62,-4.25,5.00,62.86,2.14
33.00,0.00,225.50,5.56,-135.12,15.00,10.62,2.62,63.42,2.16
33.00,1.00,251.38,2.00,-84.38,0.00,-0.81,3.19,63.42,2.16
33.00,2.00,264.62,-11.88,1.06,-2.75,-5.31,5.19,63.42,2.16
33.00,0.00,61.25,5.81,-135.38,14.19,12.19,3.25,63.98,2.18
33.00,1.00,251.31,2.06,-84.38,0.56,-0.44,3.25,63.98,2.18
33.00,2.00,264.50,-11.75,1.06,-3.38,-5.69,5.12,63.98,2.18
33.00,0.00,61.19,6.06,-135.56,9.19,16.38,2.00,64.38,2.20
33.00,1.00,251.25,2.12,-84.38,-0.12,0.12,3.38,64.38,2.20
33.00,2.00,264.44,-11.62,1.12,-3.38,-6.56,4.81,64.38,2.20
33.00,0.00,61.12,6.31,-135.75,8.31,15.62,1.38,64.78,2.22
33.00,1.00,251.19,2.19,-84.38,-0.69,0.94,3.69,64.78,2.22
33.00,2.00,264.31,-11.50,1.12,-3.94,-8.06,6.12,64.78,2.22
33.00,0.00,61.00,6.56,-135.88,8.25,15.00,0.94,65.18,2.24
33.00,1.00,251.06,2.31,-84.38,-2.06,2.12,4.25,65.18,2.24
33.00,2.00,264.12,-11.31,1.19,-4.38,-7.88,7.06,65.18,2.24
33.00,0.00,60.88,6.75,-136.00,6.69,12.38,-0.25,65.53,2.26
33.00,1.00,250.94,2.38,-84.31,-1.81,1.88,4.62,65.53,2.26
33.00,2.00,264.00,-11.19,1.19,-4.31,-8.00,8.00,65.53,2.26
33.00,0.00,60.25,6.94,-136.06,5.62,11.00,-1.00,65.85,2.28
33.00,1.00,250.81,2.44,-84.25,-2.62,2.38,5.31,65.85,2.28
33.00,2.00,263.81,-11.06,1.25,-4.38,-6.06,7.88,65.85,2.28
33.00,0.00,60.12,6.94,-136.12,3.12,9.75,-2.06,66.10,2.30
33.00,1.00,250.62,2.56,-84.19,-4.00,4.38,5.81,66.10,2.30
33.00,2.00,263.62,-10.94,1.25,-4.75,-4.50,8.38,66.10,2.30
33.00,0.00,59.94,7.00,-136.06,-1.62,8.50,-3.12,66.32,2.32
33.00,1.00,250.44,2.69,-84.12,-4.44,5.25,6.25,66.32,2.32
33.00,2.00,263.50,-10.88,1.38,-8.62,-2.69,8.25,66.32,2.32
33.00,0.00,59.50,7.06,-135.94,-6.88,7.38,-4.12,66.46,2.34
33.00,1.00,250.19,2.81,-84.00,-7.00,7.50,6.06,66.46,2.34
33.00,2.00,263.25,-10.88,1.56,-11.25,-0.50,8.75,66.46,2.34
33.00,0.00,59.38,7.12,-135.69,-11.19,7.31,-4.25,66.48,2.36
33.00,1.00,249.94,2.88,-83.81,-8.69,8.56,5.00,66.48,2.36
33.00,2.00,263.12,-10.88,1.69,-11.75,1.12,7.38,66.48,2.36
33.00,0.00,58.69,7.12,-135.50,-11.31,6.94,-3.00,66.47,2.38
33.00,1.00,249.69,2.94,-83.62,-9.44,9.69,4.44,66.47,2.38
33.00,2.00,262.94,-10.94,1.88,-11.00,1.56,7.94,66.47,2.38
33.00,0.00,218.12,7.25,-135.25,-11.31,7.12,-1.38,66.54,2.40
33.00,1.00,249.44,3.00,-83.44,-9.81,11.31,4.50,66.54,2.40
33.00,2.00,262.75,-10.94,2.00,-13.56,1.75,9.12,66.54,2.40
33.00,0.00,217.75,7.38,-135.00,-14.81,10.69,-0.50,66.54,2.42
33.00,1.00,249.19,3.06,-83.19,-10.75,11.88,4.50,66.54,2.42
33.00,2.00,262.50,-10.94,2.25,-14.75,1.75,9.25,66.54,2.42
33.00,0.00,217.19,7.50,-134.62,-19.88,11.56,-2.19,66.38,2.44
33.00,1.00,248.88,3.12,-82.94,-12.25,12.50,4.50,66.38,2.44
33.00,2.00,262.31,-11.00,2.50,-14.81,2.19,8.38,66.38,2.44
33.00,0.00,216.94,7.56,-134.19,-21.56,9.12,-2.75,66.19,2.46
33.00,1.00,248.56,3.19,-82.69,-13.50,13.25,4.56,66.19,2.46
33.00,2.00,262.12,-11.06,2.75,-15.62,2.44,8.00,66.19,2.46
33.00,0.00,216.38,7.69,-133.75,-19.06,6.62,-1.88,66.07,2.48
33.00,1.00,248.25,3.25,-82.38,-13.75,12.75,4.75,66.07,2.48
33.00,2.00,261.94,-11.12,3.00,-15.44,1.25,8.00,66.07,2.48
33.00,0.00,216.38,7.69,-133.44,-16.12,3.81,-2.06,66.02,2.50
33.00,1.00,248.00,3.25,-82.12,-13.50,12.88,4.50,66.02,2.50
33.00,2.00,261.81,-11.12,3.31,-14.31,0.62,7.62,66.02,2.50
33.00,0.00,216.38,7.69,-133.12,-15.31,3.19,-2.50,65.90,2.52
33.00,1.00,247.75,3.31,-81.88,-11.94,11.25,4.62,65.90,2.52
33.00,2.00,261.69,-11.12,3.38,-11.75,0.06,7.44,65.90,2.52
33.00,0.00,215.94,7.69,-132.81,-15.44,4.81,-3.38,65.75,2.54
33.00,1.00,247.50,3.38,-81.62,-10.12,9.81,4.56,65.75,2.54
33.00,2.00,261.44,-11.12,3.69,-10.56,-0.81,7.62,65.75,2.54
33.00,0.00,215.88,7.75,-132.50,-12.75,6.06,-3.56,65.65,2.56
33.00,1.00,247.25,3.44,-81.44,-8.81,8.25,4.44,65.65,2.56
33.00,2.00,261.31,-11.12,3.88,-9.56,-0.31,6.94,65.65,2.56
33.00,0.00,215.38,7.81,-132.31,-8.81,7.19,-2.44,65.65,2.58
33.00,1.00,247.06,3.50,-81.25,-8.62,6.94,4.06,65.65,2.58
33.00,2.00,261.25,-11.12,3.94,-8.81,-0.25,6.56,65.65,2.58
33.00,0.00,215.19,7.88,-132.19,-5.88,7.62,-2.25,65.71,2.60
33.00,1.00,246.88,3.56,-81.06,-7.81,6.50,3.94,65.71,2.60
33.00,2.00,261.00,-11.12,4.19,-7.81,-0.31,5.88,65.71,2.60
33.00,0.00,214.94,7.88,-132.06,-4.12,6.94,-2.50,65.79,2.62
33.00,1.00,246.75,3.56,-80.88,-7.25,5.75,4.00,65.79,2.62
33.00,2.00,260.94,-11.19,4.25,-6.88,-0.38,5.88,65.79,2.62
33.00,0.00,214.44,7.94,-132.00,-3.25,6.50,-2.56,65.88,2.64
33.00,1.00,246.56,3.62,-80.75,-7.19,6.12,4.06,65.88,2.64
33.00,2.00,260.75,-11.12,4.44,-5.94,-1.12,6.44,65.88,2.64
33.00,0.00,214.25,8.00,-131.94,-3.06,6.69,-2.44,65.97,2.66
33.00,1.00,246.38,3.69,-80.56,-5.81,5.62,4.06,65.97,2.66
33.00,2.00,260.62,-11.12,4.50,-5.94,-1.69,6.56,65.97,2.66
33.00,0.00,213.94,8.06,-131.81,-5.25,7.50,-3.19,65.98,2.68
33.00,1.00,246.25,3.75,-80.44,-6.69,6.12,4.19,65.98,2.68
33.00,2.00,260.50,-11.12,4.56,-5.62,-1.81,6.50,65.98,2.68
33.00,0.00,213.75,8.06,-131.69,-5.19,6.25,-3.06,66.03,2.70
33.00,1.00,246.06,3.81,-80.31,-6.88,5.75,3.88,66.03,2.70
33.00,2.00,260.38,-11.06,4.69,-6.50,-1.38,5.81,66.03,2.70
33.00,0.00,213.56,8.12,-131.62,-3.44,6.12,-1.50,66.13,2.72
33.00,1.00,245.88,3.88,-80.12,-7.38,6.44,3.88,66.13,2.72
33.00,2.00,260.25,-11.06,4.81,-6.62,-0.62,5.94,66.13,2.72
33.00,0.00,213.06,8.19,-131.50,-3.75,5.44,-1.50,66.23,2.74
33.00,1.00,245.75,3.94,-80.00,-7.06,6.69,3.56,66.23,2.74
33.00,2.00,260.06,-11.06,4.94,-6.81,-0.88,5.94,66.23,2.74
33.00,0.00,213.00,8.19,-131.44,-4.75,3.88,-2.25,66.29,2.76
33.00,1.00,245.56,3.94,-79.81,-6.56,6.00,3.56,66.29,2.76
33.00,2.00,260.00,-11.06,5.06,-6.75,0.56,5.50,66.29,2.76
33.00,0.00,212.81,8.19,-131.31,-5.12,4.56,-2.50,66.33,2.78
33.00,1.00,245.44,4.00,-79.69,-7.31,5.94,3.06,66.33,2.78
33.00,2.00,259.88,-11.12,5.12,-6.38,0.69,5.62,66.33,2.78
33.00,0.00,212.69,8.25,-131.19,-4.81,4.81,-2.00,66.38,2.80
33.00,1.00,245.31,4.00,-79.50,-7.44,6.19,2.62,66.38,2.80
33.00,2.00,259.75,-11.12,5.25,-6.50,-0.62,5.62,66.38,2.80
33.00,0.00,212.62,8.25,-131.06,-4.31,3.62,-1.00,66.41,2.82
33.00,1.00,245.19,4.00,-79.38,-6.75,5.94,2.00,66.41,2.82
33.00,2.00,259.62,-11.12,5.38,-5.25,0.44,4.75,66.41,2.82
33.00,0.00,212.38,8.31,-131.00,-3.56,4.56,-0.62,66.44,2.84
33.00,1.00,245.06,4.00,-79.25,-5.69,5.69,1.56,66.44,2.84
33.00,2.00,259.50,-11.12,5.44,-4.38,1.06,4.75,66.44,2.84
33.00,0.00,212.25,8.38,-130.94,-3.69,4.81,-0.38,66.48,2.86
33.00,1.00,244.94,4.00,-79.06,-5.31,4.94,1.88,66.48,2.86
33.00,2.00,259.44,-11.19,5.50,-4.94,0.44,4.75,66.48,2.86
33.00,0.00,211.81,8.38,-130.81,-3.88,3.81,-0.31,66.55,2.88
33.00,1.00,244.81,4.06,-78.94,-5.62,5.12,2.50,66.55,2.88
33.00,2.00,259.31,-11.19,5.62,-6.19,0.12,5.06,66.55,2.88
33.00,0.00,211.75,8.44,-130.75,-4.31,4.00,-0.44,66.60,2.90
33.00,1.00,244.69,4.06,-78.81,-5.62,4.75,2.50,66.60,2.90
33.00,2.00,259.19,-11.19,5.75,-5.88,1.25,4.44,66.60,2.90
33.00,0.00,211.69,8.44,-130.62,-4.38,3.00,-0.62,66.63,2.92
33.00,1.00,244.62,4.06,-78.69,-5.00,4.50,2.44,66.63,2.92
33.00,2.00,259.12,-11.25,5.81,-5.31,1.38,4.00,66.63,2.92
33.00,0.00,211.56,8.44,-130.56,-4.19,1.62,-0.69,66.65,2.94
33.00,1.00,244.50,4.12,-78.62,-4.94,3.81,2.12,66.65,2.94
33.00,2.00,259.06,-11.25,5.94,-4.88,1.44,3.06,66.65,2.94
33.00,0.00,211.62,8.44,-130.44,-4.44,0.75,-0.38,66.67,2.96
33.00,1.00,244.44,4.12,-78.50,-4.69,3.56,1.69,66.67,2.96
33.00,2.00,259.00,-11.31,6.00,-4.81,1.25,2.25,66.67,2.96
33.00,0.00,211.31,8.44,-130.38,-4.56,-0.19,-0.31,66.67,2.98
33.00,1.00,244.38,4.12,-78.38,-4.94,3.69,1.50,66.67,2.98
33.00,2.00,259.00,-11.31,6.06,-4.62,0.94,2.25,66.67,2.98
33.00,0.00,211.38,8.44,-130.25,-4.88,-0.19,-0.94,66.65,3.00
33.00,1.00,244.31,4.12,-78.31,-4.12,3.31,1.31,66.65,3.00
33.00,2.00,258.88,-11.38,6.19,-4.31,0.88,2.50,66.65,3.00
33.00,0.00,211.44,8.44,-130.12,-4.75,-0.19,-0.94,66.62,3.02
33.00,1.00,244.25,4.12,-78.19,-4.25,3.25,1.31,66.62,3.02
33.00,2.00,258.88,-11.38,6.25,-3.81,1.00,2.06,66.62,3.02
33.00,0.00,211.38,8.44,-130.06,-4.50,0.00,-0.56,66.60,3.04
33.00,1.00,244.19,4.12,-78.12,-4.19,2.69,1.12,66.60,3.04
33.00,2.00,258.81,-11.38,6.31,-4.00,0.94,1.38,66.60,3.04
33.00,0.00,211.38,8.44,-130.00,-4.00,0.50,0.19,66.59,3.06
33.00,1.00,244.12,4.12,-78.00,-4.00,2.38,0.69,66.59,3.06
33.00,2.00,258.81,-11.44,6.44,-3.56,1.81,1.19,66.59,3.06
33.00,0.00,211.25,8.44,-129.94,-3.50,1.94,0.81,66.59,3.08
33.00,1.00,244.06,4.12,-77.94,-3.38,2.38,0.62,66.59,3.08
33.00,2.00,258.75,-11.44,6.44,-3.38,1.38,1.25,66.59,3.08
33.00,0.00,211.12,8.50,-129.81,-3.56,3.19,0.25,66.59,3.10
33.00,1.00,244.06,4.12,-77.88,-3.75,2.50,1.00,66.59,3.10
33.00,2.00,258.75,-11.44,6.50,-3.69,1.00,1.12,66.59,3.10
33.00,0.00,211.06,8.50,-129.75,-4.00,3.19,-0.06,66.60,3.12
33.00,1.00,244.00,4.12,-77.81,-4.44,2.31,1.00,66.60,3.12
33.00,2.00,258.69,-11.50,6.56,-4.38,1.12,1.19,66.60,3.12
33.00,0.00,210.88,8.56,-129.69,-3.38,3.62,0.31,66.60,3.14
33.00,1.00,243.94,4.12,-77.69,-4.50,2.44,0.69,66.60,3.14
33.00,2.00,258.69,-11.50,6.69,-3.31,2.12,1.25,66.60,3.14
33.00,0.00,210.75,8.56,-129.62,-2.69,3.12,0.38,66.59,3.16
33.00,1.00,243.94,4.12,-77.62,-3.25,2.38,0.50,66.59,3.16
33.00,2.00,258.62,-11.56,6.75,-2.50,1.12,2.00,66.59,3.16
33.00,0.00,210.62,8.62,-129.56,-2.06,2.12,0.12,66.62,3.18
33.00,1.00,243.88,4.12,-77.56,-3.81,3.31,0.62,66.62,3.18
33.00,2.00,258.56,-11.56,6.81,-3.00,0.31,2.25,66.62,3.18
33.00,0.00,210.62,8.62,-129.56,-1.75,2.56,-0.62,66.65,3.20
33.00,1.00,243.81,4.12,-77.44,-3.69,3.25,0.88,66.65,3.20
33.00,2.00,258.56,-11.56,6.81,-2.62,0.12,2.25,66.65,3.20
33.00,0.00,210.56,8.62,-129.50,-2.00,2.75,-0.69,66.70,3.22
33.00,1.00,243.75,4.12,-77.38,-3.69,2.56,0.94,66.70,3.22
33.00,2.00,258.50,-11.56,6.88,-3.56,0.12,2.06,66.70,3.22
33.00,0.00,210.44,8.62,-129.44,-0.94,3.12,-0.88,66.77,3.24
33.00,1.00,243.69,4.12,-77.31,-3.31,2.56,0.88,66.77,3.24
33.00,2.00,258.44,-11.56,6.94,-3.12,0.50,2.56,66.77,3.24
33.00,0.00,210.31,8.69,-129.44,-0.19,3.75,-1.19,66.84,3.26
33.00,1.00,243.69,4.12,-77.19,-2.06,2.38,1.19,66.84,3.26
33.00,2.00,258.38,-11.62,7.00,-2.44,0.38,2.69,66.84,3.26
33.00,0.00,209.94,8.69,-129.44,-0.06,3.50,-1.06,66.92,3.28
33.00,1.00,243.62,4.12,-77.19,-1.56,2.19,1.50,66.92,3.28
33.00,2.00,258.31,-11.62,7.06,-2.56,0.00,2.75,66.92,3.28
33.00,0.00,209.81,8.75,-129.44,0.00,4.19,-0.88,67.02,3.30
33.00,1.00,243.56,4.19,-77.12,-1.94,2.50,1.56,67.02,3.30
33.00,2.00,258.31,-11.62,7.06,-3.12,-0.31,3.50,67.02,3.30
33.00,0.00,209.62,8.81,-129.44,0.06,4.94,-0.44,67.12,3.32
33.00,1.00,243.50,4.19,-77.06,-2.31,2.69,1.50,67.12,3.32
33.00,2.00,258.19,-11.62,7.12,-2.94,-0.19,3.81,67.12,3.32
33.00,0.00,209.19,8.88,-129.44,0.38,5.44,-0.12,67.19,3.34
33.00,1.00,243.44,4.19,-77.00,-1.94,2.81,1.50,67.19,3.34
33.00,2.00,258.12,-11.62,7.12,-1.94,0.50,3.31,67.19,3.34
33.00,0.00,209.00,8.94,-129.44,0.75,5.06,0.31,67.26,3.36
33.00,1.00,243.31,4.19,-77.00,-1.88,2.94,1.50,67.26,3.36
33.00,2.00,258.00,-11.62,7.19,-1.44,0.62,3.50,67.26,3.36
33.00,0.00,208.69,8.94,-129.38,0.56,2.56,0.06,67.34,3.38
33.00,1.00,243.25,4.25,-76.94,-2.19,3.50,1.62,67.34,3.38
33.00,2.00,257.94,-11.62,7.19,-1.81,-0.19,3.12,67.34,3.38
33.00,0.00,208.69,8.94,-129.44,1.19,-1.38,0.88,67.45,3.40
33.00,1.00,243.19,4.25,-76.88,-2.75,3.44,1.88,67.45,3.40
33.00,2.00,257.94,-11.69,7.19,-2.44,-0.25,3.06,67.45,3.40
33.00,0.00,208.69,8.94,-129.44,-0.75,-0.12,0.56,67.52,3.42
33.00,1.00,243.12,4.25,-76.81,-2.31,4.00,2.19,67.52,3.42
33.00,2.00,257.81,-11.62,7.25,-2.81,-1.12,3.06,67.52,3.42
33.00,0.00,208.44,8.94,-129.38,-1.81,-1.69,0.50,67.55,3.44
33.00,1.00,243.00,4.25,-76.75,-2.19,4.00,2.25,67.55,3.44
33.00,2.00,257.81,-11.62,7.31,-2.88,-0.50,2.38,67.55,3.44
33.00,0.00,208.62,8.88,-129.31,-2.38,-3.50,0.12,67.55,3.46
33.00,1.00,242.94,4.31,-76.69,-1.88,3.31,1.50,67.55,3.46
33.00,2.00,257.75,-11.62,7.38,-2.38,0.38,1.88,67.55,3.46
33.00,0.00,208.75,8.81,-129.25,-2.75,-2.88,-0.06,67.54,3.48
33.00,1.00,242.88,4.31,-76.62,-1.94,2.50,1.12,67.54,3.48
33.00,2.00,257.69,-11.69,7.44,-2.25,0.56,1.06,67.54,3.48
33.00,0.00,208.88,8.75,-129.12,-2.62,-1.50,0.38,67.54,3.50
33.00,1.00,242.81,4.31,-76.56,-1.88,2.38,1.00,67.54,3.50
33.00,2.00,257.69,-11.69,7.44,-2.81,0.75,0.12,67.54,3.50
33.00,0.00,209.00,8.75,-129.06,-2.88,-1.56,-0.50,67.56,3.52
33.00,1.00,242.75,4.31,-76.50,-2.44,2.19,0.88,67.56,3.52
33.00,2.00,257.69,-11.69,7.56,-3.25,0.62,0.12,67.56,3.52
33.00,0.00,208.88,8.69,-129.00,-3.00,-1.50,-1.12,67.53,3.54
33.00,1.00,242.75,4.25,-76.44,-2.38,1.44,0.75,67.53,3.54
33.00,2.00,257.69,-11.69,7.62,-2.31,1.44,-0.25,67.53,3.54
33.00,0.00,209.06,8.62,-128.94,-2.62,-1.19,-1.00,67.52,3.56
33.00,1.00,242.75,4.25,-76.38,-1.50,-0.06,0.50,67.52,3.56
33.00,2.00,257.69,-11.75,7.69,-2.19,1.88,-0.31,67.52,3.56
33.00,0.00,209.06,8.62,-128.94,-2.12,-0.88,-0.31,67.51,3.58
33.00,1.00,242.75,4.25,-76.31,-1.81,0.00,0.12,67.51,3.58
33.00,2.00,257.69,-11.81,7.75,-1.81,1.75,-0.25,67.51,3.58
33.00,0.00,209.19,8.62,-128.88,-2.44,0.06,-0.56,67.49,3.60
33.00,1.00,242.75,4.25,-76.25,-2.12,0.69,0.31,67.49,3.60
33.00,2.00,257.69,-11.81,7.75,-1.69,0.69,0.38,67.49,3.60
33.00,0.00,209.19,8.62,-128.81,-2.50,0.94,-0.38,67.46,3.62
33.00,1.00,242.75,4.25,-76.25,-1.31,0.94,0.56,67.46,3.62
33.00,2.00,257.69,-11.81,7.81,-1.81,-0.06,0.88,67.46,3.62
33.00,0.00,209.19,8.62,-128.81,-1.69,1.25,-0.25,67.42,3.64
33.00,1.00,242.75,4.25,-76.19,-0.88,0.94,0.56,67.42,3.64
33.00,2.00,257.69,-11.81,7.81,-0.38,0.38,1.00,67.42,3.64
33.00,0.00,209.19,8.62,-128.75,-0.44,1.75,-0.31,67.40,3.66
33.00,1.00,242.75,4.19,-76.19,0.56,1.25,0.62,67.40,3.66
33.00,2.00,257.62,-11.81,7.81,0.19,0.44,1.75,67.40,3.66
33.00,0.00,209.19,8.62,-128.75,-0.56,0.69,-0.94,67.42,3.68
33.00,1.00,242.69,4.25,-76.19,0.19,1.50,0.81,67.42,3.68
33.00,2.00,257.56,-11.81,7.81,-1.19,0.38,1.69,67.42,3.68
33.00,0.00,209.00,8.62,-128.75,-1.00,-1.31,-1.38,67.44,3.70
33.00,1.00,242.62,4.25,-76.19,-0.44,2.31,1.38,67.44,3.70
33.00,2.00,257.56,-11.81,7.88,-1.62,0.25,2.12,67.44,3.70
33.00,0.00,209.12,8.56,-128.75,-0.25,-1.06,-1.00,67.48,3.72
33.00,1.00,242.56,4.25,-76.12,-1.44,2.81,1.06,67.48,3.72
33.00,2.00,257.50,-11.88,7.88,-1.38,0.12,2.88,67.48,3.72
33.00,0.00,209.19,8.56,-128.75,-0.56,-0.69,-1.06,67.48,3.74
33.00,1.00,242.50,4.25,-76.12,-1.38,3.00,1.12,67.48,3.74
33.00,2.00,257.44,-11.88,7.88,-0.75,0.44,3.06,67.48,3.74
33.00,0.00,209.25,8.50,-128.75,-1.31,-1.06,-2.06,67.47,3.76
33.00,1.00,242.44,4.25,-76.06,-0.25,3.25,1.62,67.47,3.76
33.00,2.00,257.38,-11.88,7.88,-1.00,1.44,3.25,67.47,3.76
33.00,0.00,209.38,8.44,-128.69,-1.62,-1.56,-1.94,67.50,3.78
33.00,1.00,242.38,4.25,-76.06,-0.94,3.62,2.06,67.50,3.78
33.00,2.00,257.31,-11.94,7.94,-2.38,1.56,4.25,67.50,3.78
33.00,0.00,209.50,8.44,-128.69,-1.81,-0.62,-0.12,67.52,3.80
33.00,1.00,242.25,4.31,-76.00,-2.00,4.75,1.62,67.52,3.80
33.00,2.00,257.25,-11.94,7.94,-2.56,0.50,4.88,67.52,3.80
33.00,0.00,209.50,8.44,-128.62,-1.50,0.38,0.56,67.55,3.82
33.00,1.00,242.12,4.25,-75.94,-1.44,5.00,1.06,67.55,3.82
33.00,2.00,257.12,-12.00,8.00,-2.50,0.44,4.38,67.55,3.82
33.00,0.00,209.44,8.44,-128.62,0.56,1.00,1.81,67.63,3.84
33.00,1.00,242.06,4.25,-75.88,-0.50,4.19,0.44,67.63,3.84
33.00,2.00,257.06,-12.00,8.00,-1.69,1.44,3.31,67.63,3.84
33.00,0.00,209.38,8.50,-128.62,2.62,0.38,2.88,67.67,3.86
33.00,1.00,242.06,4.25,-75.88,1.75,3.12,-0.94,67.67,3.86
33.00,2.00,257.00,-12.06,8.00,1.19,1.94,2.31,67.67,3.86
33.00,0.00,209.31,8.56,-128.69,3.44,0.38,3.00,67.68,3.88
33.00,1.00,242.06,4.19,-75.94,4.38,1.69,-1.75,67.68,3.88
33.00,2.00,256.94,-12.06,8.00,3.31,0.12,1.62,67.68,3.88
33.00,0.00,209.19,8.56,-128.81,4.81,-0.38,2.88,67.67,3.90
33.00,1.00,242.06,4.12,-76.00,6.56,0.56,-2.06,67.67,3.90
33.00,2.00,256.94,-12.06,7.94,5.00,0.25,-0.12,67.67,3.90
33.00,0.00,209.12,8.62,-128.94,7.19,-1.00,2.62,67.69,3.92
33.00,1.00,242.12,4.06,-76.12,7.06,-0.75,-2.38,67.69,3.92
33.00,2.00,257.00,-12.06,7.94,6.62,0.62,-1.38,67.69,3.92
33.00,0.00,209.06,8.62,-129.12,12.00,-3.38,3.25,67.83,3.94
33.00,1.00,242.19,4.00,-76.25,7.62,-2.25,-2.69,67.83,3.94
33.00,2.00,257.06,-12.06,7.88,7.62,0.62,-3.06,67.83,3.94
33.00,0.00,209.06,8.62,-129.38,14.25,-4.94,4.25,68.00,3.96
33.00,1.00,242.31,3.94,-76.38,7.31,-3.44,-3.31,68.00,3.96
33.00,2.00,257.19,-12.06,7.75,8.75,0.75,-4.44,68.00,3.96
33.00,0.00,209.19,8.62,-129.69,13.69,-7.31,4.00,68.13,3.98
33.00,1.00,242.50,3.88,-76.50,8.62,-5.19,-3.50,68.13,3.98
33.00,2.00,257.25,-12.06,7.69,9.75,-0.06,-5.69,68.13,3.98
33.00,0.00,209.38,8.56,-129.94,12.50,-10.31,3.19,68.15,4.00
33.00,1.00,242.69,3.81,-76.69,10.19,-6.88,-3.75,68.15,4.00
33.00,2.00,257.38,-12.06,7.62,11.69,-0.19,-7.94,68.15,4.00
