Iteration,IMUNo,OrientationX (deg),OrientationY,OrientationZ,GyroX (20rad/sec),GyroY,GyroZ,Elbow_Pos (rad),Time (sec)
40.00,0.00,218.31,5.38,-92.50,0.06,-0.06,0.50,0.00,1.00
40.00,1.00,244.12,1.75,-79.06,0.38,-0.19,0.25,0.00,1.02
40.00,2.00,267.00,-20.12,7.50,0.19,-0.25,0.12,0.00,1.02
40.00,0.00,218.31,5.38,-92.50,0.31,-0.06,0.69,0.01,1.02
40.00,1.00,244.12,1.75,-79.06,0.06,0.00,0.44,0.01,1.02
40.00,2.00,267.00,-20.12,7.50,-0.19,-0.69,0.38,0.01,1.04
40.00,0.00,218.31,5.38,-92.50,0.38,0.31,0.31,0.02,1.04
40.00,1.00,244.12,1.75,-79.06,0.38,0.06,0.50,0.02,1.04
40.00,2.00,267.00,-20.12,7.50,0.12,-1.12,0.19,0.02,1.04
40.00,0.00,218.31,5.38,-92.50,0.44,0.50,0.44,0.00,1.06
40.00,1.00,244.12,1.75,-79.06,0.56,-0.38,0.56,0.00,1.06
40.00,2.00,267.00,-20.06,7.50,1.00,-0.50,-0.12,0.00,1.06
40.00,0.00,218.31,5.38,-92.50,0.81,1.31,0.50,-0.02,1.08
40.00,1.00,244.12,1.75,-79.06,0.88,-0.94,0.31,-0.02,1.08
40.00,2.00,267.00,-20.06,7.44,1.44,0.00,0.25,-0.02,1.08
40.00,0.00,218.25,5.38,-92.50,0.81,1.06,1.00,-0.03,1.10
40.00,1.00,244.19,1.75,-79.12,0.75,-0.62,0.31,-0.03,1.10
40.00,2.00,267.00,-20.06,7.44,1.19,0.19,0.38,-0.03,1.10
40.00,0.00,218.25,5.38,-92.50,0.69,1.00,1.00,-0.01,1.12
40.00,1.00,244.19,1.75,-79.12,-0.19,0.12,0.50,-0.01,1.12
40.00,2.00,267.00,-20.06,7.44,0.12,-0.25,0.44,-0.01,1.12
40.00,0.00,218.19,5.44,-92.50,0.50,0.50,0.94,0.00,1.14
40.00,1.00,244.19,1.75,-79.12,0.38,0.12,0.25,0.00,1.14
40.00,2.00,267.00,-20.06,7.44,0.06,-0.50,0.31,0.00,1.14
40.00,0.00,218.19,5.44,-92.50,0.56,0.38,0.62,0.01,1.16
40.00,1.00,244.19,1.75,-79.12,1.19,0.06,0.50,0.01,1.16
40.00,2.00,267.00,-20.06,7.44,0.31,-0.31,0.56,0.01,1.16
40.00,0.00,218.19,5.44,-92.56,0.62,-0.62,0.50,0.01,1.18
40.00,1.00,244.19,1.75,-79.12,1.06,-0.19,0.50,0.01,1.18
40.00,2.00,267.00,-20.06,7.44,0.75,-0.25,0.38,0.01,1.18
40.00,0.00,218.19,5.44,-92.56,0.31,0.06,0.44,0.01,1.20
40.00,1.00,244.19,1.75,-79.19,0.56,0.69,0.75,0.01,1.20
40.00,2.00,267.00,-20.06,7.44,0.25,-0.06,0.19,0.01,1.20
40.00,0.00,218.19,5.44,-92.56,0.19,0.75,0.38,0.02,1.22
40.00,1.00,244.12,1.81,-79.19,0.50,0.19,0.75,0.02,1.22
40.00,2.00,267.00,-20.06,7.38,-0.25,-0.31,0.62,0.02,1.22
40.00,0.00,218.19,5.44,-92.56,0.31,0.75,0.50,0.04,1.24
40.00,1.00,244.12,1.81,-79.19,0.31,0.50,0.62,0.04,1.24
40.00,2.00,266.94,-20.12,7.38,-0.25,-0.56,0.88,0.04,1.24
40.00,0.00,218.12,5.44,-92.56,0.62,0.38,0.81,0.05,1.26
40.00,1.00,244.12,1.81,-79.19,0.69,0.31,0.62,0.05,1.26
40.00,2.00,266.94,-20.12,7.38,0.19,-0.50,0.56,0.05,1.26
40.00,0.00,218.12,5.44,-92.56,0.38,0.25,0.62,0.05,1.28
40.00,1.00,244.06,1.81,-79.19,0.31,0.56,0.88,0.05,1.28
40.00,2.00,266.94,-20.06,7.38,0.50,-0.75,0.44,0.05,1.28
40.00,0.00,218.12,5.44,-92.56,0.50,0.69,0.88,0.03,1.30
40.00,1.00,244.06,1.88,-79.19,0.50,0.25,1.19,0.03,1.30
40.00,2.00,266.94,-20.06,7.38,0.94,-1.62,0.56,0.03,1.30
40.00,0.00,218.06,5.50,-92.56,1.69,1.50,1.81,0.03,1.32
40.00,1.00,244.06,1.88,-79.19,0.69,-0.56,1.50,0.03,1.32
40.00,2.00,266.94,-20.00,7.38,1.88,-5.38,0.31,0.03,1.32
40.00,0.00,217.94,5.56,-92.69,4.44,4.12,3.75,0.06,1.34
40.00,1.00,244.06,1.88,-79.19,0.00,-1.56,0.44,0.06,1.34
40.00,2.00,266.94,-19.81,7.25,3.38,-9.81,-0.25,0.06,1.34
40.00,0.00,217.62,5.69,-92.81,8.25,7.69,5.69,0.20,1.36
40.00,1.00,244.12,1.88,-79.19,0.31,-2.62,0.12,0.20,1.36
40.00,2.00,266.94,-19.62,7.19,3.56,-9.06,0.12,0.20,1.36
40.00,0.00,217.31,5.81,-93.00,12.38,9.50,7.44,0.43,1.38
40.00,1.00,244.19,1.88,-79.19,1.94,-3.75,-0.25,0.43,1.38
40.00,2.00,266.94,-19.50,7.12,4.81,-7.12,0.75,0.43,1.38
40.00,0.00,216.88,6.00,-93.25,16.75,11.56,8.12,0.85,1.40
40.00,1.00,244.25,1.88,-79.25,0.50,-3.06,0.00,0.85,1.40
40.00,2.00,266.94,-19.38,7.00,2.69,-5.19,0.62,0.85,1.40
40.00,0.00,216.44,6.12,-93.62,22.00,11.44,7.19,1.43,1.42
40.00,1.00,244.31,1.88,-79.25,1.19,-4.12,-0.12,1.43,1.42
40.00,2.00,266.94,-19.31,7.00,2.50,-2.94,0.25,1.43,1.42
40.00,0.00,216.06,6.31,-94.19,29.88,11.62,6.31,2.23,1.44
40.00,1.00,244.44,1.88,-79.31,1.88,-6.25,-0.56,2.23,1.44
40.00,2.00,266.94,-19.25,6.94,3.12,-2.12,-0.12,2.23,1.44
40.00,0.00,215.56,6.44,-94.81,37.69,10.44,7.44,3.17,1.46
40.00,1.00,244.56,1.81,-79.31,2.50,-7.38,-2.81,3.17,1.46
40.00,2.00,267.00,-19.25,6.81,6.31,-0.50,0.12,3.17,1.46
40.00,0.00,215.12,6.62,-95.62,43.81,8.00,7.94,4.23,1.48
40.00,1.00,244.81,1.81,-79.44,5.00,-8.25,-3.81,4.23,1.48
40.00,2.00,267.00,-19.25,6.69,8.38,0.12,0.12,4.23,1.48
40.00,0.00,214.81,6.75,-96.62,53.56,2.31,6.62,5.59,1.50
40.00,1.00,245.00,1.75,-79.50,4.06,-7.38,-3.62,5.59,1.50
40.00,2.00,267.00,-19.25,6.50,8.12,-2.12,1.25,5.59,1.50
40.00,0.00,214.75,6.88,-97.75,61.50,-2.06,6.88,7.27,1.52
40.00,1.00,245.19,1.69,-79.56,3.94,-6.75,-3.44,7.27,1.52
40.00,2.00,267.00,-19.19,6.38,5.31,-4.31,2.62,7.27,1.52
40.00,0.00,214.44,7.00,-99.06,66.31,-2.19,7.38,9.06,1.54
40.00,1.00,245.38,1.69,-79.69,6.06,-7.62,-2.81,9.06,1.54
40.00,2.00,266.94,-19.06,6.25,6.38,-7.62,2.62,9.06,1.54
40.00,0.00,214.25,7.12,-100.44,72.38,-7.62,7.06,10.96,1.56
40.00,1.00,245.56,1.62,-79.81,8.62,-7.94,-3.00,10.96,1.56
40.00,2.00,266.88,-18.88,6.12,8.94,-9.69,3.06,10.96,1.56
40.00,0.00,213.94,7.25,-101.94,77.50,-9.94,8.38,12.91,1.58
40.00,1.00,245.75,1.56,-80.00,9.50,-8.75,-2.69,12.91,1.58
40.00,2.00,266.88,-18.75,5.88,12.31,-8.69,3.44,12.91,1.58
40.00,0.00,213.75,7.38,-103.56,81.62,-8.12,10.94,14.90,1.60
40.00,1.00,245.94,1.56,-80.25,10.94,-8.12,-2.81,14.90,1.60
40.00,2.00,266.81,-18.56,5.56,15.00,-9.12,4.50,14.90,1.60
40.00,0.00,213.31,7.62,-105.19,84.12,-4.88,14.06,16.99,1.62
40.00,1.00,246.12,1.50,-80.44,11.19,-8.19,-2.44,16.99,1.62
40.00,2.00,266.75,-18.38,5.19,14.31,-11.19,6.00,16.99,1.62
40.00,0.00,212.88,7.88,-106.88,87.50,-7.19,14.44,19.24,1.64
40.00,1.00,246.25,1.50,-80.69,12.06,-6.56,-1.69,19.24,1.64
40.00,2.00,266.62,-18.12,4.88,12.44,-14.50,7.62,19.24,1.64
40.00,0.00,212.44,8.06,-108.62,87.31,-6.06,14.56,21.50,1.66
40.00,1.00,246.38,1.50,-80.94,12.56,-5.38,-1.00,21.50,1.66
40.00,2.00,266.50,-17.81,4.62,11.69,-16.12,7.50,21.50,1.66
40.00,0.00,212.00,8.31,-110.31,87.50,-8.94,14.75,23.82,1.68
40.00,1.00,246.50,1.50,-81.19,12.69,-5.19,-0.12,23.82,1.68
40.00,2.00,266.38,-17.50,4.38,9.75,-17.19,6.38,23.82,1.68
40.00,0.00,211.69,8.44,-112.06,87.75,-11.38,13.75,26.24,1.70
40.00,1.00,246.56,1.56,-81.44,13.00,-5.19,0.56,26.24,1.70
40.00,2.00,266.31,-17.19,4.19,7.06,-18.00,5.38,26.24,1.70
40.00,0.00,211.38,8.62,-113.81,87.56,-13.00,11.94,28.65,1.72
40.00,1.00,246.62,1.56,-81.69,11.94,-6.19,0.44,28.65,1.72
40.00,2.00,266.19,-16.88,4.00,6.81,-17.31,5.75,28.65,1.72
40.00,0.00,211.19,8.69,-115.56,87.00,-14.56,9.88,31.06,1.74
40.00,1.00,246.75,1.56,-81.94,11.75,-6.06,0.44,31.06,1.74
40.00,2.00,266.06,-16.56,3.81,6.50,-17.12,5.88,31.06,1.74
40.00,0.00,211.00,8.69,-117.25,84.44,-15.81,8.06,33.37,1.76
40.00,1.00,246.88,1.56,-82.12,11.69,-7.44,-0.19,33.37,1.76
40.00,2.00,266.00,-16.25,3.62,7.25,-15.94,4.44,33.37,1.76
40.00,0.00,210.94,8.69,-118.94,81.31,-16.88,7.31,35.62,1.78
40.00,1.00,247.00,1.56,-82.38,10.44,-7.69,0.19,35.62,1.78
40.00,2.00,265.94,-16.00,3.50,6.12,-13.50,3.69,35.62,1.78
40.00,0.00,211.00,8.56,-120.50,77.44,-19.31,4.75,37.91,1.80
40.00,1.00,247.12,1.62,-82.56,7.81,-7.50,0.69,37.91,1.80
40.00,2.00,265.88,-15.69,3.44,0.81,-14.94,2.25,37.91,1.80
40.00,0.00,211.19,8.44,-122.00,74.94,-21.44,3.31,40.17,1.82
40.00,1.00,247.25,1.62,-82.69,6.81,-8.00,0.75,40.17,1.82
40.00,2.00,265.81,-15.44,3.38,-0.69,-15.19,2.25,40.17,1.82
40.00,0.00,211.44,8.25,-123.44,70.31,-19.81,-0.25,42.28,1.84
40.00,1.00,247.38,1.62,-82.81,7.19,-8.62,0.31,42.28,1.84
40.00,2.00,265.81,-15.25,3.38,-0.19,-13.00,0.50,42.28,1.84
40.00,0.00,211.75,8.00,-124.81,67.19,-19.25,-2.88,44.26,1.86
40.00,1.00,247.56,1.62,-82.94,5.25,-10.00,-0.44,44.26,1.86
40.00,2.00,265.81,-14.94,3.38,1.12,-10.50,-1.31,44.26,1.86
40.00,0.00,212.12,7.69,-126.06,63.31,-18.56,-4.69,46.09,1.88
40.00,1.00,247.81,1.62,-83.06,6.25,-9.81,-1.19,46.09,1.88
40.00,2.00,265.88,-14.75,3.38,2.19,-9.44,-2.75,46.09,1.88
40.00,0.00,212.56,7.44,-127.25,59.00,-17.06,-5.69,47.80,1.90
40.00,1.00,248.00,1.62,-83.19,4.88,-11.12,-1.75,47.80,1.90
40.00,2.00,265.94,-14.56,3.31,1.81,-7.50,-2.56,47.80,1.90
40.00,0.00,212.81,7.12,-128.38,55.06,-13.06,-6.38,49.42,1.92
40.00,1.00,248.25,1.56,-83.31,6.31,-12.19,-2.00,49.42,1.92
40.00,2.00,266.00,-14.44,3.31,0.88,-6.69,-3.56,49.42,1.92
40.00,0.00,213.06,6.94,-129.38,50.38,-10.25,-7.19,50.95,1.94
40.00,1.00,248.50,1.56,-83.44,4.00,-12.81,-2.06,50.95,1.94
40.00,2.00,266.00,-14.38,3.31,-1.00,-7.06,-2.25,50.95,1.94
40.00,0.00,213.38,6.62,-130.31,46.00,-10.69,-9.50,52.45,1.96
40.00,1.00,248.75,1.56,-83.50,3.88,-11.50,-1.56,52.45,1.96
40.00,2.00,266.06,-14.19,3.44,-3.88,-8.44,-3.38,52.45,1.96
40.00,0.00,213.81,6.31,-131.12,42.69,-10.75,-12.81,53.81,1.98
40.00,1.00,249.06,1.50,-83.56,3.50,-14.69,-0.75,53.81,1.98
40.00,2.00,266.12,-14.06,3.44,-3.06,-8.06,-4.88,53.81,1.98
40.00,0.00,214.25,6.00,-131.94,40.56,-10.44,-14.56,55.03,2.00
40.00,1.00,249.38,1.50,-83.69,4.81,-16.44,-0.25,55.03,2.00
40.00,2.00,266.19,-13.94,3.50,-0.25,-6.44,-4.62,55.03,2.00
40.00,0.00,214.81,5.62,-132.69,40.75,-12.56,-15.00,56.28,2.02
40.00,1.00,249.69,1.56,-83.81,2.25,-15.44,-0.50,56.28,2.02
40.00,2.00,266.31,-13.81,3.56,-0.75,-5.31,-4.50,56.28,2.02
40.00,0.00,215.44,5.25,-133.50,39.19,-11.94,-15.00,57.46,2.04
40.00,1.00,249.94,1.56,-83.81,0.44,-13.62,-0.75,57.46,2.04
40.00,2.00,266.38,-13.75,3.56,-0.31,-5.69,-4.94,57.46,2.04
40.00,0.00,215.94,4.94,-134.12,32.81,-8.69,-15.44,58.49,2.06
40.00,1.00,250.19,1.56,-83.88,-0.06,-13.12,0.06,58.49,2.06
40.00,2.00,266.44,-13.62,3.50,-1.69,-4.81,-5.62,58.49,2.06
40.00,0.00,216.25,4.62,-134.69,29.38,-2.38,-13.81,59.48,2.08
40.00,1.00,250.38,1.56,-83.88,-1.12,-11.38,0.31,59.48,2.08
40.00,2.00,266.56,-13.56,3.56,-3.69,-4.69,-3.75,59.48,2.08
40.00,0.00,49.19,4.50,-135.25,28.25,2.25,-10.19,60.50,2.10
40.00,1.00,250.56,1.62,-83.88,-2.62,-12.31,0.69,60.50,2.10
40.00,2.00,266.56,-13.44,3.62,-5.88,-6.56,-1.44,60.50,2.10
40.00,0.00,49.31,4.50,-135.75,25.00,9.25,-6.62,61.47,2.12
40.00,1.00,250.69,1.69,-83.88,-1.00,-9.50,1.50,61.47,2.12
40.00,2.00,266.56,-13.31,3.62,-7.44,-5.94,-1.88,61.47,2.12
40.00,0.00,49.12,4.62,-136.19,22.00,14.19,-2.12,62.43,2.14
40.00,1.00,250.81,1.75,-83.81,-5.44,-8.06,2.06,62.43,2.14
40.00,2.00,266.56,-13.19,3.62,-10.00,-4.31,-0.94,62.43,2.14
40.00,0.00,49.00,4.88,-136.50,18.31,18.19,0.69,63.25,2.16
40.00,1.00,250.88,1.75,-83.75,-5.88,-5.19,1.81,63.25,2.16
40.00,2.00,266.56,-13.12,3.75,-9.06,-5.12,0.69,63.25,2.16
40.00,0.00,49.25,5.19,-136.81,14.94,16.88,1.44,63.96,2.18
40.00,1.00,250.94,1.81,-83.69,-5.06,-4.56,2.56,63.96,2.18
40.00,2.00,266.50,-13.06,3.75,-8.94,-6.44,2.50,63.96,2.18
40.00,0.00,49.19,5.44,-137.00,10.62,15.50,1.50,64.56,2.20
40.00,1.00,250.94,1.94,-83.62,-5.88,-2.81,4.31,64.56,2.20
40.00,2.00,266.38,-12.94,3.81,-9.31,-6.50,3.06,64.56,2.20
40.00,0.00,49.06,5.62,-137.12,5.75,15.25,0.50,65.00,2.22
40.00,1.00,250.81,2.00,-83.50,-7.94,-0.25,4.94,65.00,2.22
40.00,2.00,266.31,-12.81,3.88,-9.06,-6.75,6.12,65.00,2.22
40.00,0.00,48.94,5.88,-137.12,0.06,16.06,-0.44,65.25,2.24
40.00,1.00,250.69,2.12,-83.38,-7.44,1.25,5.06,65.25,2.24
40.00,2.00,266.12,-12.75,4.00,-8.44,-6.00,6.81,65.25,2.24
40.00,0.00,48.81,6.06,-137.06,-5.88,16.31,0.12,65.32,2.26
40.00,1.00,250.56,2.25,-83.25,-6.00,3.19,5.56,65.32,2.26
40.00,2.00,266.00,-12.62,4.12,-8.06,-3.44,8.06,65.32,2.26
40.00,0.00,48.69,6.31,-136.88,-9.50,15.62,0.94,65.35,2.28
40.00,1.00,250.31,2.31,-83.12,-8.50,9.75,5.88,65.35,2.28
40.00,2.00,265.81,-12.56,4.19,-10.44,-1.94,10.19,65.35,2.28
40.00,0.00,48.62,6.56,-136.62,-11.81,13.25,1.50,65.32,2.30
40.00,1.00,250.00,2.44,-82.94,-9.38,12.19,6.06,65.32,2.30
40.00,2.00,265.56,-12.56,4.25,-11.06,-0.69,11.12,65.32,2.30
40.00,0.00,48.62,6.62,-136.50,-14.50,10.25,2.00,65.31,2.32
40.00,1.00,249.62,2.50,-82.75,-10.88,15.44,6.12,65.31,2.32
40.00,2.00,265.25,-12.56,4.31,-14.00,1.00,13.31,65.31,2.32
40.00,0.00,48.62,6.88,-136.00,-17.75,8.50,1.94,65.27,2.34
40.00,1.00,249.19,2.62,-82.50,-11.69,17.31,5.75,65.27,2.34
40.00,2.00,265.00,-12.62,4.56,-16.56,0.81,13.62,65.27,2.34
40.00,0.00,48.62,7.00,-135.56,-20.38,7.69,1.12,65.14,2.36
40.00,1.00,248.81,2.69,-82.31,-11.25,17.88,4.88,65.14,2.36
40.00,2.00,264.69,-12.62,4.81,-15.94,1.62,13.19,65.14,2.36
40.00,0.00,208.50,7.06,-135.19,-21.25,7.38,-0.88,64.92,2.38
40.00,1.00,248.44,2.69,-82.06,-10.62,18.44,4.50,64.92,2.38
40.00,2.00,264.38,-12.69,5.06,-13.81,2.50,13.75,64.92,2.38
40.00,0.00,208.38,7.19,-134.75,-20.06,7.12,-2.06,64.72,2.40
40.00,1.00,248.06,2.75,-81.88,-10.12,17.62,5.50,64.72,2.40
40.00,2.00,264.06,-12.75,5.25,-13.38,1.62,14.38,64.72,2.40
40.00,0.00,208.31,7.19,-134.38,-18.69,7.31,-3.50,64.61,2.42
40.00,1.00,247.62,2.81,-81.62,-10.62,17.94,6.31,64.61,2.42
40.00,2.00,263.75,-12.81,5.50,-14.94,1.62,15.12,64.61,2.42
40.00,0.00,208.31,7.19,-134.19,-18.88,6.81,-4.56,64.49,2.44
40.00,1.00,247.19,2.94,-81.38,-11.56,18.00,7.31,64.49,2.44
40.00,2.00,263.44,-12.88,5.69,-14.94,1.50,15.44,64.49,2.44
40.00,0.00,208.25,7.25,-133.81,-18.00,6.25,-4.25,64.43,2.46
40.00,1.00,246.75,3.00,-81.12,-11.81,17.75,6.69,64.43,2.46
40.00,2.00,263.12,-12.94,5.94,-15.94,-0.50,15.88,64.43,2.46
40.00,0.00,208.31,7.25,-133.44,-14.94,5.75,-2.69,64.42,2.48
40.00,1.00,246.38,3.06,-80.88,-11.19,16.88,5.69,64.42,2.48
40.00,2.00,262.75,-12.94,6.19,-14.81,0.25,14.31,64.42,2.48
40.00,0.00,208.25,7.31,-133.19,-13.06,5.75,-2.75,64.43,2.50
40.00,1.00,246.00,3.12,-80.69,-9.19,15.44,5.31,64.43,2.50
40.00,2.00,262.50,-13.00,6.38,-13.44,0.88,13.50,64.43,2.50
40.00,0.00,208.19,7.31,-132.88,-12.00,6.06,-2.31,64.40,2.52
40.00,1.00,245.69,3.19,-80.50,-8.00,13.31,5.56,64.40,2.52
40.00,2.00,262.19,-13.06,6.56,-10.81,-0.19,12.25,64.40,2.52
40.00,0.00,208.00,7.38,-132.62,-11.25,7.31,-2.12,64.39,2.54
40.00,1.00,245.44,3.19,-80.31,-8.81,13.62,5.62,64.39,2.54
40.00,2.00,261.94,-13.06,6.75,-11.00,-2.50,11.69,64.39,2.54
40.00,0.00,207.81,7.44,-132.44,-9.56,8.19,-2.00,64.37,2.56
40.00,1.00,245.12,3.19,-80.12,-8.00,11.94,5.12,64.37,2.56
40.00,2.00,261.69,-13.12,7.00,-8.69,-2.50,10.56,64.37,2.56
40.00,0.00,207.62,7.50,-132.19,-8.56,8.44,-1.94,64.32,2.58
40.00,1.00,244.94,3.25,-79.94,-6.62,10.81,5.00,64.32,2.58
40.00,2.00,261.50,-13.12,7.19,-7.12,-1.88,9.56,64.32,2.58
40.00,0.00,207.38,7.56,-132.00,-6.31,8.81,-1.44,64.30,2.60
40.00,1.00,244.69,3.25,-79.81,-4.62,8.56,4.69,64.30,2.60
40.00,2.00,261.31,-13.12,7.38,-5.44,-0.88,8.19,64.30,2.60
40.00,0.00,207.19,7.62,-131.81,-5.88,8.69,-1.50,64.27,2.62
40.00,1.00,244.50,3.25,-79.69,-3.31,7.62,4.75,64.27,2.62
40.00,2.00,261.12,-13.12,7.50,-4.94,-1.69,6.88,64.27,2.62
40.00,0.00,207.00,7.69,-131.69,-6.31,8.12,-1.94,64.24,2.64
40.00,1.00,244.38,3.31,-79.62,-3.19,6.75,4.94,64.24,2.64
40.00,2.00,261.00,-13.12,7.56,-5.50,-2.38,5.94,64.24,2.64
40.00,0.00,206.81,7.75,-131.50,-7.06,7.38,-1.62,64.20,2.66
40.00,1.00,244.25,3.31,-79.56,-3.12,5.31,4.50,64.20,2.66
40.00,2.00,260.88,-13.12,7.69,-5.56,-1.62,4.94,64.20,2.66
40.00,0.00,206.69,7.75,-131.31,-7.62,6.81,-1.69,64.12,2.68
40.00,1.00,244.06,3.38,-79.50,-3.56,4.88,4.44,64.12,2.68
40.00,2.00,260.75,-13.12,7.75,-4.88,-0.38,3.88,64.12,2.68
40.00,0.00,206.62,7.81,-131.12,-9.12,4.31,-2.12,64.01,2.70
40.00,1.00,243.94,3.44,-79.44,-3.62,4.31,3.88,64.01,2.70
40.00,2.00,260.69,-13.12,7.88,-5.50,0.19,3.00,64.01,2.70
40.00,0.00,206.56,7.81,-130.94,-9.56,3.69,-2.00,63.90,2.72
40.00,1.00,243.81,3.44,-79.31,-6.31,3.31,3.50,63.90,2.72
40.00,2.00,260.62,-13.19,7.94,-5.88,1.00,2.25,63.90,2.72
40.00,0.00,206.56,7.81,-130.69,-10.50,3.69,-1.81,63.80,2.74
40.00,1.00,243.69,3.50,-79.19,-8.56,4.12,2.81,63.80,2.74
40.00,2.00,260.56,-13.19,8.06,-7.31,1.31,2.25,63.80,2.74
40.00,0.00,206.50,7.81,-130.50,-11.12,3.94,-1.75,63.72,2.76
40.00,1.00,243.62,3.56,-79.00,-9.31,4.19,2.00,63.72,2.76
40.00,2.00,260.50,-13.19,8.19,-8.25,1.00,2.25,63.72,2.76
40.00,0.00,206.38,7.88,-130.31,-10.12,4.69,-0.75,63.61,2.78
40.00,1.00,243.56,3.56,-78.81,-9.31,3.81,1.31,63.61,2.78
40.00,2.00,260.44,-13.25,8.31,-6.62,1.00,2.75,63.61,2.78
40.00,0.00,206.25,7.94,-130.06,-9.81,5.81,-0.19,63.50,2.80
40.00,1.00,243.44,3.56,-78.62,-7.81,3.88,1.12,63.50,2.80
40.00,2.00,260.38,-13.25,8.44,-5.94,1.62,2.75,63.50,2.80
40.00,0.00,206.06,8.00,-129.94,-8.00,6.31,0.38,63.43,2.82
40.00,1.00,243.38,3.56,-78.50,-6.19,3.50,1.69,63.43,2.82
40.00,2.00,260.31,-13.31,8.56,-5.94,1.75,2.62,63.43,2.82
40.00,0.00,206.19,8.06,-129.75,-6.94,5.31,0.38,63.38,2.84
40.00,1.00,243.31,3.62,-78.38,-5.62,3.88,2.19,63.38,2.84
40.00,2.00,260.25,-13.38,8.69,-5.06,1.00,2.94,63.38,2.84
40.00,0.00,206.06,8.12,-129.62,-6.69,4.25,0.12,63.32,2.86
40.00,1.00,243.19,3.62,-78.25,-5.12,3.56,2.56,63.32,2.86
40.00,2.00,260.19,-13.38,8.75,-4.88,-0.38,3.12,63.32,2.86
40.00,0.00,206.38,8.12,-129.50,-6.81,3.06,-0.25,63.29,2.88
40.00,1.00,243.12,3.62,-78.25,-5.31,3.75,3.06,63.29,2.88
40.00,2.00,260.12,-13.38,8.88,-5.62,-1.12,2.62,63.29,2.88
40.00,0.00,206.38,8.19,-129.31,-6.94,2.38,-0.81,63.27,2.90
40.00,1.00,242.94,3.69,-78.06,-6.12,3.44,3.12,63.27,2.90
40.00,2.00,260.06,-13.38,8.94,-6.31,-1.31,2.56,63.27,2.90
40.00,0.00,206.31,8.19,-129.19,-5.81,3.19,-1.06,63.27,2.92
40.00,1.00,242.94,3.75,-78.00,-7.00,3.00,2.44,63.27,2.92
40.00,2.00,260.00,-13.31,9.06,-5.88,-0.31,2.44,63.27,2.92
40.00,0.00,206.31,8.19,-129.12,-5.31,3.75,-1.12,63.27,2.94
40.00,1.00,242.81,3.75,-77.75,-6.25,3.50,1.88,63.27,2.94
40.00,2.00,259.94,-13.31,9.19,-5.19,0.31,2.31,63.27,2.94
40.00,0.00,206.25,8.19,-129.00,-4.94,3.69,-1.62,63.28,2.96
40.00,1.00,242.75,3.81,-77.62,-5.19,2.75,1.94,63.28,2.96
40.00,2.00,259.88,-13.38,9.25,-5.38,0.38,2.12,63.28,2.96
40.00,0.00,206.62,8.25,-128.88,-4.94,3.44,-2.44,63.29,2.98
40.00,1.00,242.69,3.81,-77.62,-4.38,1.69,1.69,63.29,2.98
40.00,2.00,259.81,-13.38,9.38,-5.25,0.31,2.25,63.29,2.98
40.00,0.00,206.62,8.19,-128.75,-5.12,3.12,-3.31,63.29,3.00
40.00,1.00,242.62,3.81,-77.44,-4.69,1.06,1.25,63.29,3.00
40.00,2.00,259.75,-13.38,9.50,-5.25,0.31,2.62,63.29,3.00
40.00,0.00,206.56,8.19,-128.62,-5.06,3.81,-3.19,63.26,3.02
40.00,1.00,242.62,3.81,-77.44,-4.31,0.69,0.81,63.26,3.02
40.00,2.00,259.69,-13.38,9.62,-4.06,1.44,1.94,63.26,3.02
40.00,0.00,206.50,8.19,-128.56,-4.00,4.31,-2.50,63.23,3.04
40.00,1.00,242.56,3.81,-77.31,-3.50,0.94,0.12,63.23,3.04
40.00,2.00,259.69,-13.38,9.69,-2.81,2.38,1.31,63.23,3.04
40.00,0.00,206.38,8.25,-128.44,-3.25,4.62,-2.06,63.22,3.06
40.00,1.00,242.56,3.81,-77.25,-2.81,1.00,-0.31,63.22,3.06
40.00,2.00,259.62,-13.44,9.75,-2.88,2.44,1.25,63.22,3.06
40.00,0.00,206.38,8.25,-128.38,-2.88,5.06,-1.81,63.24,3.08
40.00,1.00,242.56,3.81,-77.19,-3.44,0.88,-0.88,63.24,3.08
40.00,2.00,259.62,-13.50,9.81,-3.50,1.94,1.38,63.24,3.08
40.00,0.00,206.25,8.31,-128.31,-2.50,4.44,-1.88,63.26,3.10
40.00,1.00,242.62,3.81,-77.06,-4.19,0.75,-0.69,63.26,3.10
40.00,2.00,259.56,-13.56,9.88,-3.31,1.50,1.19,63.26,3.10
40.00,0.00,206.12,8.31,-128.25,-2.44,3.81,-1.56,63.27,3.12
40.00,1.00,242.62,3.75,-77.00,-4.00,0.94,-0.81,63.27,3.12
40.00,2.00,259.56,-13.56,9.94,-2.81,1.56,0.69,63.27,3.12
40.00,0.00,206.38,8.31,-128.19,-1.94,2.62,-0.88,63.27,3.14
40.00,1.00,242.62,3.75,-76.94,-3.81,0.88,-0.75,63.27,3.14
40.00,2.00,259.56,-13.62,10.00,-1.81,2.38,0.25,63.27,3.14
40.00,0.00,206.38,8.31,-128.19,-1.12,0.56,-0.25,63.30,3.16
40.00,1.00,242.62,3.69,-76.81,-3.44,0.75,-1.25,63.30,3.16
40.00,2.00,259.56,-13.69,10.06,-2.31,2.50,0.25,63.30,3.16
40.00,0.00,206.50,8.31,-128.12,-1.19,0.06,0.19,63.34,3.18
40.00,1.00,242.62,3.69,-76.75,-3.88,1.12,-0.81,63.34,3.18
40.00,2.00,259.56,-13.75,10.12,-2.31,1.44,0.00,63.34,3.18
40.00,0.00,206.56,8.31,-128.12,-1.94,0.38,0.31,63.35,3.20
40.00,1.00,242.62,3.62,-76.69,-4.69,1.19,-0.25,63.35,3.20
40.00,2.00,259.56,-13.75,10.19,-2.25,0.62,-0.19,63.35,3.20
40.00,0.00,206.56,8.31,-128.06,-2.38,0.50,-0.12,63.33,3.22
40.00,1.00,242.62,3.62,-76.62,-5.69,1.00,-0.38,63.33,3.22
40.00,2.00,259.56,-13.75,10.25,-1.88,0.56,-0.31,63.33,3.22
40.00,0.00,206.81,8.25,-128.00,-1.62,0.69,-0.81,63.32,3.24
40.00,1.00,242.62,3.62,-76.50,-6.06,0.56,-0.69,63.32,3.24
40.00,2.00,259.56,-13.75,10.31,-1.31,0.56,0.00,63.32,3.24
40.00,0.00,206.81,8.25,-128.00,-0.56,0.44,-0.75,63.31,3.26
40.00,1.00,242.69,3.62,-76.38,-4.19,-1.75,-1.88,63.31,3.26
40.00,2.00,259.56,-13.75,10.31,-0.12,2.44,-0.19,63.31,3.26
40.00,0.00,206.81,8.25,-128.00,0.50,-0.06,0.06,63.33,3.28
40.00,1.00,242.75,3.56,-76.31,-3.19,-1.75,-2.56,63.33,3.28
40.00,2.00,259.56,-13.88,10.38,-0.06,3.44,-0.81,63.33,3.28
40.00,0.00,206.81,8.25,-128.00,1.25,-0.12,0.44,63.35,3.30
40.00,1.00,242.88,3.50,-76.25,-2.69,-1.19,-3.00,63.35,3.30
40.00,2.00,259.56,-13.88,10.38,0.31,4.00,-0.94,63.35,3.30
40.00,0.00,206.81,8.25,-128.06,0.81,-0.25,-0.31,63.38,3.32
40.00,1.00,242.94,3.44,-76.19,-2.06,-0.81,-2.62,63.38,3.32
40.00,2.00,259.56,-13.94,10.38,-0.06,3.38,-0.69,63.38,3.32
40.00,0.00,206.88,8.25,-128.06,-0.50,0.00,-0.56,63.40,3.34
40.00,1.00,243.00,3.44,-76.12,-3.12,-0.62,-2.44,63.40,3.34
40.00,2.00,259.62,-14.00,10.38,-1.00,1.44,0.06,63.40,3.34
40.00,0.00,206.94,8.19,-128.00,-1.38,-0.81,-0.94,63.39,3.36
40.00,1.00,243.06,3.38,-76.06,-4.38,-0.19,-2.00,63.39,3.36
40.00,2.00,259.62,-14.06,10.38,-1.06,1.38,0.38,63.39,3.36
40.00,0.00,207.00,8.19,-128.00,-2.12,-0.94,-1.06,63.37,3.38
40.00,1.00,243.06,3.31,-75.94,-4.69,0.19,-1.75,63.37,3.38
40.00,2.00,259.62,-14.06,10.44,-1.44,1.38,0.75,63.37,3.38
40.00,0.00,207.06,8.12,-127.94,-2.50,-0.38,-1.12,63.33,3.40
40.00,1.00,243.12,3.31,-75.88,-4.44,0.94,-1.38,63.33,3.40
40.00,2.00,259.56,-14.12,10.44,-1.25,1.56,1.06,63.33,3.40
40.00,0.00,207.12,8.12,-127.88,-2.56,-0.31,-0.94,63.33,3.42
40.00,1.00,243.12,3.25,-75.81,-4.44,1.50,-1.25,63.33,3.42
40.00,2.00,259.56,-14.12,10.44,-2.75,2.56,2.19,63.33,3.42
40.00,0.00,207.12,8.12,-127.88,-1.62,1.00,-0.31,63.38,3.44
40.00,1.00,243.12,3.25,-75.69,-4.06,2.31,-1.06,63.38,3.44
40.00,2.00,259.50,-14.19,10.50,-3.06,2.69,2.88,63.38,3.44
40.00,0.00,207.12,8.12,-127.81,-1.25,1.50,0.19,63.41,3.46
40.00,1.00,243.12,3.19,-75.62,-1.50,2.12,-1.56,63.41,3.46
40.00,2.00,259.44,-14.25,10.56,-2.25,3.06,2.69,63.41,3.46
40.00,0.00,207.31,8.12,-127.81,-1.00,0.88,0.12,63.44,3.48
40.00,1.00,243.12,3.19,-75.62,0.00,2.88,-1.00,63.44,3.48
40.00,2.00,259.38,-14.38,10.62,-2.00,2.69,3.31,63.44,3.48
40.00,0.00,207.31,8.12,-127.75,-1.69,-0.19,0.50,63.46,3.50
40.00,1.00,243.06,3.12,-75.62,0.19,3.31,-0.94,63.46,3.50
40.00,2.00,259.31,-14.44,10.62,-2.44,2.38,3.81,63.46,3.50
40.00,0.00,207.31,8.19,-127.75,-2.12,-0.12,0.94,63.47,3.52
40.00,1.00,243.00,3.12,-75.62,0.38,4.06,-0.50,63.47,3.52
40.00,2.00,259.25,-14.44,10.62,-2.50,1.19,3.94,63.47,3.52
40.00,0.00,207.62,8.19,-127.69,-2.50,0.25,0.69,63.47,3.54
40.00,1.00,242.94,3.06,-75.62,-0.50,4.69,0.25,63.47,3.54
40.00,2.00,259.19,-14.50,10.69,-2.56,0.81,3.56,63.47,3.54
40.00,0.00,207.62,8.19,-127.62,-2.12,0.56,0.44,63.48,3.56
40.00,1.00,242.94,3.06,-75.62,-1.00,3.94,0.75,63.48,3.56
40.00,2.00,259.06,-14.50,10.75,-2.50,-0.19,3.19,63.48,3.56
40.00,0.00,207.81,8.19,-127.62,-1.44,2.19,0.81,63.50,3.58
40.00,1.00,242.88,3.00,-75.56,-1.38,3.12,1.12,63.50,3.58
40.00,2.00,259.00,-14.50,10.75,-1.94,-1.00,2.94,63.50,3.58
40.00,0.00,207.69,8.25,-127.56,-0.88,3.31,1.25,63.53,3.60
40.00,1.00,242.81,3.00,-75.56,-1.06,2.44,1.31,63.53,3.60
40.00,2.00,258.94,-14.50,10.81,-1.94,-1.31,2.38,63.53,3.60
40.00,0.00,207.56,8.25,-127.56,-0.75,3.56,0.19,63.55,3.62
40.00,1.00,242.75,3.00,-75.50,-0.69,2.00,1.75,63.55,3.62
40.00,2.00,258.94,-14.50,10.81,-1.38,-1.44,1.62,63.55,3.62
40.00,0.00,207.56,8.25,-127.50,-0.62,2.81,-0.62,63.58,3.64
40.00,1.00,242.75,3.00,-75.50,-0.69,0.38,2.19,63.58,3.64
40.00,2.00,258.88,-14.50,10.81,-1.62,-1.44,1.62,63.58,3.64
40.00,0.00,207.50,8.25,-127.50,-0.50,2.31,-0.75,63.61,3.66
40.00,1.00,242.69,3.06,-75.50,-1.62,-0.31,2.06,63.61,3.66
40.00,2.00,258.88,-14.50,10.88,-1.56,-1.19,1.56,63.61,3.66
40.00,0.00,207.69,8.25,-127.50,0.12,-0.12,-0.38,63.64,3.68
40.00,1.00,242.69,3.06,-75.44,-1.81,-1.00,1.50,63.64,3.68
40.00,2.00,258.81,-14.50,10.88,-0.88,0.25,1.06,63.64,3.68
40.00,0.00,207.75,8.25,-127.50,0.06,-0.06,0.00,63.68,3.70
40.00,1.00,242.69,3.06,-75.38,-2.62,0.19,1.38,63.68,3.70
40.00,2.00,258.81,-14.50,10.88,-1.25,0.31,1.19,63.68,3.70
40.00,0.00,207.81,8.19,-127.50,-1.06,-0.94,-0.75,63.70,3.72
40.00,1.00,242.69,3.06,-75.31,-2.81,0.94,1.62,63.70,3.72
40.00,2.00,258.75,-14.50,10.94,-1.88,-0.19,1.19,63.70,3.72
40.00,0.00,207.94,8.19,-127.44,-2.88,-1.69,-1.38,63.66,3.74
40.00,1.00,242.62,3.12,-75.31,-2.38,1.25,1.81,63.66,3.74
40.00,2.00,258.75,-14.50,10.94,-1.56,-0.12,1.12,63.66,3.74
40.00,0.00,208.00,8.12,-127.38,-3.88,-1.31,-0.69,63.60,3.76
40.00,1.00,242.56,3.12,-75.25,-2.31,1.88,1.62,63.60,3.76
40.00,2.00,258.69,-14.50,11.00,-1.75,-0.50,1.62,63.60,3.76
40.00,0.00,208.00,8.12,-127.31,-3.81,-0.31,0.12,63.53,3.78
40.00,1.00,242.50,3.12,-75.19,-1.56,2.25,1.38,63.53,3.78
40.00,2.00,258.69,-14.50,11.00,-1.44,0.31,1.19,63.53,3.78
40.00,0.00,208.06,8.12,-127.25,-3.62,-0.25,0.75,63.46,3.80
40.00,1.00,242.44,3.12,-75.19,-1.69,2.44,1.06,63.46,3.80
40.00,2.00,258.62,-14.50,11.00,-1.38,0.56,1.00,63.46,3.80
40.00,0.00,208.06,8.12,-127.19,-3.62,-0.50,0.81,63.41,3.82
40.00,1.00,242.38,3.12,-75.12,-2.12,3.19,1.06,63.41,3.82
40.00,2.00,258.62,-14.56,11.06,-1.88,0.62,2.06,63.41,3.82
40.00,0.00,208.19,8.19,-127.12,-3.62,-0.44,1.06,63.36,3.84
40.00,1.00,242.31,3.12,-75.06,-1.81,3.69,1.38,63.36,3.84
40.00,2.00,258.56,-14.56,11.06,-1.94,0.81,2.12,63.36,3.84
