Iteration,IMUNo,OrientationX (deg),OrientationY,OrientationZ,GyroX (20rad/sec),GyroY,GyroZ,Elbow_Pos (rad),Time (sec)
62.00,0.00,222.62,5.06,-94.62,0.50,-0.88,0.31,0.00,0.00
62.00,1.00,246.56,-0.06,-76.50,0.94,-0.88,-0.31,0.00,0.00
62.00,2.00,263.94,-22.56,8.25,0.56,0.44,-0.44,0.00,0.00
62.00,0.00,223.31,5.12,-94.62,0.75,-0.38,0.38,0.00,1.02
62.00,1.00,246.62,0.00,-77.25,-0.12,-0.88,-0.50,0.00,1.02
62.00,2.00,264.00,-22.69,7.62,0.62,-0.06,-1.38,0.00,1.02
62.00,0.00,223.31,5.12,-94.62,0.94,-1.50,0.44,0.02,1.04
62.00,1.00,246.62,0.00,-77.25,0.62,-1.06,-0.25,0.02,1.04
62.00,2.00,264.00,-22.69,7.62,0.44,-0.06,-1.56,0.02,1.04
62.00,0.00,223.38,5.12,-94.62,0.81,-2.12,0.62,0.03,1.06
62.00,1.00,246.69,0.00,-77.31,1.56,-1.00,-0.12,0.03,1.06
62.00,2.00,264.06,-22.69,7.62,0.44,0.25,-1.69,0.03,1.06
62.00,0.00,223.38,5.12,-94.69,1.19,-2.00,0.62,0.06,1.08
62.00,1.00,246.69,0.00,-77.31,1.69,-1.31,-0.19,0.06,1.08
62.00,2.00,264.06,-22.69,7.69,0.38,0.56,-1.69,0.06,1.08
62.00,0.00,223.44,5.12,-94.69,0.94,-2.38,0.31,0.08,1.10
62.00,1.00,246.69,0.00,-77.38,1.56,-1.25,-0.25,0.08,1.10
62.00,2.00,264.12,-22.69,7.69,0.31,0.81,-1.62,0.08,1.10
62.00,0.00,223.50,5.12,-94.69,0.50,-3.50,-0.25,0.08,1.12
62.00,1.00,246.75,0.00,-77.38,0.94,-1.31,-0.81,0.08,1.12
62.00,2.00,264.12,-22.69,7.69,0.25,1.06,-1.69,0.08,1.12
62.00,0.00,223.56,5.12,-94.69,0.31,-4.69,-0.38,0.09,1.14
62.00,1.00,246.75,0.00,-77.44,1.06,-1.12,-0.81,0.09,1.14
62.00,2.00,264.19,-22.69,7.69,0.19,1.06,-1.81,0.09,1.14
62.00,0.00,223.69,5.06,-94.75,0.19,-4.88,-0.62,0.10,1.16
62.00,1.00,246.81,0.00,-77.44,0.81,-1.00,-0.88,0.10,1.16
62.00,2.00,264.25,-22.69,7.75,-0.12,1.25,-1.81,0.10,1.16
62.00,0.00,223.81,5.06,-94.75,0.12,-5.19,-0.81,0.11,1.18
62.00,1.00,246.81,0.00,-77.44,0.75,-0.75,-0.56,0.11,1.18
62.00,2.00,264.25,-22.75,7.75,-0.19,1.31,-1.50,0.11,1.18
62.00,0.00,223.88,5.06,-94.75,0.06,-3.50,-0.50,0.12,1.20
62.00,1.00,246.81,0.00,-77.44,0.38,-0.69,-0.44,0.12,1.20
62.00,2.00,264.31,-22.75,7.75,-0.31,0.62,-1.44,0.12,1.20
62.00,0.00,223.94,5.06,-94.75,0.19,-2.81,-0.25,0.10,1.22
62.00,1.00,246.88,0.00,-77.44,0.44,-1.19,-0.62,0.10,1.22
62.00,2.00,264.31,-22.75,7.75,0.88,0.06,-1.12,0.10,1.22
62.00,0.00,223.94,5.06,-94.81,1.06,-0.81,0.44,0.05,1.24
62.00,1.00,246.88,-0.06,-77.44,0.50,-1.25,-0.81,0.05,1.24
62.00,2.00,264.31,-22.69,7.75,2.69,-1.88,-1.06,0.05,1.24
62.00,0.00,223.94,5.06,-94.81,1.44,0.06,0.56,0.00,1.26
62.00,1.00,246.94,-0.06,-77.44,0.19,-1.00,-0.62,0.00,1.26
62.00,2.00,264.38,-22.62,7.69,2.75,-4.19,-1.50,0.00,1.26
62.00,0.00,223.81,5.19,-94.88,2.50,3.50,2.75,0.04,1.28
62.00,1.00,246.94,-0.06,-77.44,0.19,-1.94,-0.19,0.04,1.28
62.00,2.00,264.38,-22.56,7.62,1.50,-4.12,-0.31,0.04,1.28
62.00,0.00,223.62,5.25,-95.00,3.44,6.19,4.50,0.08,1.30
62.00,1.00,247.00,0.00,-77.50,1.44,-2.75,-0.12,0.08,1.30
62.00,2.00,264.38,-22.50,7.56,2.00,-4.25,0.56,0.08,1.30
62.00,0.00,223.38,5.38,-95.06,4.06,6.62,5.25,0.21,1.32
62.00,1.00,247.00,0.00,-77.50,1.25,-2.75,-0.44,0.21,1.32
62.00,2.00,264.38,-22.38,7.56,0.06,-5.81,-0.19,0.21,1.32
62.00,0.00,223.12,5.50,-95.19,6.50,5.94,6.50,0.51,1.34
62.00,1.00,247.06,0.00,-77.50,-0.06,-2.31,-0.75,0.51,1.34
62.00,2.00,264.38,-22.25,7.62,-2.75,-6.62,-0.88,0.51,1.34
62.00,0.00,222.88,5.69,-95.31,9.88,4.56,8.19,0.95,1.36
62.00,1.00,247.12,0.00,-77.50,-0.62,-3.12,-0.88,0.95,1.36
62.00,2.00,264.38,-22.12,7.69,-3.88,-5.06,-1.50,0.95,1.36
62.00,0.00,222.56,5.88,-95.56,13.62,2.56,9.62,1.40,1.38
62.00,1.00,247.25,0.00,-77.50,-0.06,-4.06,-1.06,1.40,1.38
62.00,2.00,264.44,-22.06,7.75,-0.50,-1.81,-3.06,1.40,1.38
62.00,0.00,222.31,6.06,-95.88,18.81,0.19,10.75,1.92,1.40
62.00,1.00,247.31,-0.06,-77.50,-0.62,-5.88,-1.62,1.92,1.40
62.00,2.00,264.50,-22.06,7.75,2.62,-0.81,-4.06,1.92,1.40
62.00,0.00,222.06,6.31,-96.38,24.75,-0.38,12.25,2.63,1.42
62.00,1.00,247.50,-0.06,-77.44,-2.44,-7.12,-2.56,2.63,1.42
62.00,2.00,264.56,-22.00,7.69,2.44,-1.06,-3.88,2.63,1.42
62.00,0.00,221.75,6.56,-96.94,32.38,-1.44,13.19,3.55,1.44
62.00,1.00,247.69,-0.06,-77.38,-3.19,-7.00,-3.38,3.55,1.44
62.00,2.00,264.69,-21.94,7.69,3.81,-2.31,-3.56,3.55,1.44
62.00,0.00,221.50,6.81,-97.69,40.75,-7.38,14.12,4.67,1.46
62.00,1.00,247.88,-0.12,-77.31,-0.81,-7.50,-4.06,4.67,1.46
62.00,2.00,264.75,-21.88,7.62,5.69,-1.69,-3.25,4.67,1.46
62.00,0.00,221.38,7.00,-98.69,48.75,-14.88,13.69,5.95,1.48
62.00,1.00,248.06,-0.12,-77.31,2.00,-7.56,-4.38,5.95,1.48
62.00,2.00,264.88,-21.88,7.56,8.69,-0.25,-2.69,5.95,1.48
62.00,0.00,221.31,7.19,-99.69,51.56,-15.00,12.38,7.26,1.50
62.00,1.00,248.25,-0.19,-77.38,3.94,-7.25,-4.62,7.26,1.50
62.00,2.00,264.94,-21.81,7.38,10.69,-0.25,-1.25,7.26,1.50
62.00,0.00,221.31,7.38,-100.81,55.00,-17.06,12.88,8.68,1.52
62.00,1.00,248.44,-0.25,-77.44,3.19,-6.25,-3.81,8.68,1.52
62.00,2.00,264.94,-21.81,7.12,10.81,-1.62,0.50,8.68,1.52
62.00,0.00,221.31,7.56,-101.94,59.19,-19.50,14.00,10.24,1.54
62.00,1.00,248.56,-0.31,-77.44,2.38,-4.38,-3.62,10.24,1.54
62.00,2.00,264.94,-21.75,6.94,10.44,-2.88,2.62,10.24,1.54
62.00,0.00,221.31,7.81,-103.25,63.12,-20.75,16.12,11.95,1.56
62.00,1.00,248.62,-0.31,-77.50,2.69,-3.12,-3.19,11.95,1.56
62.00,2.00,264.94,-21.69,6.69,9.50,-4.50,5.06,11.95,1.56
62.00,0.00,221.62,8.00,-104.56,66.31,-17.81,17.19,13.78,1.58
62.00,1.00,248.69,-0.31,-77.56,3.75,-1.12,-2.12,13.78,1.58
62.00,2.00,264.81,-21.62,6.44,9.38,-4.69,6.38,13.78,1.58
62.00,0.00,221.44,8.25,-105.94,67.62,-17.19,17.31,15.65,1.60
62.00,1.00,248.75,-0.38,-77.62,3.56,-0.75,-1.75,15.65,1.60
62.00,2.00,264.69,-21.50,6.19,9.19,-5.19,7.62,15.65,1.60
62.00,0.00,221.56,8.50,-107.31,69.44,-19.44,17.19,17.56,1.62
62.00,1.00,248.75,-0.38,-77.75,4.38,1.50,-1.56,17.56,1.62
62.00,2.00,264.56,-21.44,5.88,9.69,-4.94,8.00,17.56,1.62
62.00,0.00,221.44,8.69,-108.81,72.44,-21.38,18.00,19.57,1.64
62.00,1.00,248.69,-0.38,-77.81,4.62,2.62,-0.81,19.57,1.64
62.00,2.00,264.44,-21.31,5.56,9.88,-5.44,9.88,19.57,1.64
62.00,0.00,221.38,8.81,-110.25,71.69,-22.06,15.75,21.60,1.66
62.00,1.00,248.62,-0.38,-77.94,4.00,3.69,-0.19,21.60,1.66
62.00,2.00,264.25,-21.19,5.31,8.12,-5.81,10.50,21.60,1.66
62.00,0.00,221.38,8.94,-111.69,70.56,-20.38,13.31,23.62,1.68
62.00,1.00,248.56,-0.38,-78.00,4.12,4.00,-0.25,23.62,1.68
62.00,2.00,264.06,-21.06,5.06,7.56,-7.12,11.00,23.62,1.68
62.00,0.00,221.38,9.00,-113.19,71.00,-20.81,12.94,25.71,1.70
62.00,1.00,248.50,-0.38,-78.06,3.44,2.88,-0.75,25.71,1.70
62.00,2.00,263.88,-20.94,4.81,5.56,-7.81,10.38,25.71,1.70
62.00,0.00,221.38,9.06,-114.62,71.62,-22.31,12.62,27.88,1.72
62.00,1.00,248.50,-0.38,-78.12,2.88,3.25,-0.75,27.88,1.72
62.00,2.00,263.69,-20.75,4.69,4.00,-8.12,9.12,27.88,1.72
62.00,0.00,221.38,9.12,-116.06,69.50,-18.06,12.19,29.91,1.74
62.00,1.00,248.44,-0.38,-78.19,3.88,2.12,-0.25,29.91,1.74
62.00,2.00,263.50,-20.62,4.50,6.00,-9.00,8.44,29.91,1.74
62.00,0.00,221.38,9.12,-117.44,66.44,-20.69,10.06,31.88,1.76
62.00,1.00,248.38,-0.38,-78.31,5.25,2.00,0.62,31.88,1.76
62.00,2.00,263.38,-20.50,4.31,4.88,-7.44,9.75,31.88,1.76
62.00,0.00,221.50,9.12,-118.75,63.62,-20.62,8.19,33.87,1.78
62.00,1.00,248.31,-0.38,-78.31,1.06,2.19,1.44,33.87,1.78
62.00,2.00,263.19,-20.31,4.19,1.50,-8.94,7.81,33.87,1.78
62.00,0.00,221.62,9.06,-120.00,61.38,-18.81,6.56,35.82,1.80
62.00,1.00,248.25,-0.38,-78.31,-0.38,2.62,1.69,35.82,1.80
62.00,2.00,263.00,-20.19,4.12,0.50,-9.00,9.12,35.82,1.80
62.00,0.00,221.88,8.94,-121.19,59.19,-21.25,4.19,37.71,1.82
62.00,1.00,248.25,-0.38,-78.31,0.56,2.12,1.56,37.71,1.82
62.00,2.00,262.81,-20.00,4.06,0.31,-8.25,10.00,37.71,1.82
62.00,0.00,222.12,8.75,-122.38,56.12,-19.31,2.62,39.49,1.84
62.00,1.00,248.12,-0.31,-78.31,1.38,1.94,1.62,39.49,1.84
62.00,2.00,262.62,-19.88,4.00,0.44,-5.62,8.75,39.49,1.84
62.00,0.00,222.38,8.56,-123.44,53.44,-18.75,1.12,41.23,1.86
62.00,1.00,248.06,-0.31,-78.38,0.69,1.75,1.69,41.23,1.86
62.00,2.00,262.50,-19.81,3.94,-0.81,-3.50,6.44,41.23,1.86
62.00,0.00,222.69,8.38,-124.50,50.44,-17.81,0.25,42.91,1.88
62.00,1.00,248.00,-0.25,-78.31,-1.31,2.00,1.69,42.91,1.88
62.00,2.00,262.38,-19.75,3.94,-2.12,-2.75,6.31,42.91,1.88
62.00,0.00,223.00,8.19,-125.50,47.75,-16.56,-0.44,44.57,1.90
62.00,1.00,247.94,-0.25,-78.31,-3.00,1.75,1.12,44.57,1.90
62.00,2.00,262.25,-19.75,3.94,-4.00,-2.06,6.62,44.57,1.90
62.00,0.00,223.25,8.00,-126.38,44.75,-14.88,-1.06,46.17,1.92
62.00,1.00,247.94,-0.25,-78.25,-3.12,0.06,0.69,46.17,1.92
62.00,2.00,262.06,-19.69,4.00,-5.38,-1.75,5.69,46.17,1.92
62.00,0.00,223.50,7.81,-127.25,43.06,-13.12,-1.06,47.74,1.94
62.00,1.00,247.94,-0.25,-78.12,-4.00,0.00,0.19,47.74,1.94
62.00,2.00,262.00,-19.69,4.06,-5.88,-2.19,4.31,47.74,1.94
62.00,0.00,223.69,7.69,-128.06,41.00,-9.06,-1.12,49.19,1.96
62.00,1.00,247.94,-0.25,-78.12,-3.94,0.19,0.50,49.19,1.96
62.00,2.00,261.88,-19.62,4.12,-4.38,-1.81,4.31,49.19,1.96
62.00,0.00,223.62,7.62,-128.88,39.19,-5.06,-1.81,50.59,1.98
62.00,1.00,247.88,-0.25,-78.00,-4.00,-0.06,0.81,50.59,1.98
62.00,2.00,261.75,-19.56,4.19,-4.56,-2.25,4.81,50.59,1.98
62.00,0.00,223.56,7.56,-129.62,37.38,-2.50,-1.75,51.97,2.00
62.00,1.00,247.88,-0.19,-77.94,-5.56,0.62,1.19,51.97,2.00
62.00,2.00,261.62,-19.56,4.25,-5.44,-3.25,5.06,51.97,2.00
62.00,0.00,223.31,7.50,-130.31,36.19,0.69,-1.12,53.36,2.02
62.00,1.00,247.88,-0.19,-77.88,-7.56,-0.31,1.25,53.36,2.02
62.00,2.00,261.50,-19.44,4.31,-7.50,-4.75,4.44,53.36,2.02
62.00,0.00,223.06,7.50,-130.94,33.56,1.25,-2.31,54.69,2.04
62.00,1.00,247.81,-0.19,-77.69,-8.00,-0.19,0.94,54.69,2.04
62.00,2.00,261.44,-19.38,4.44,-7.81,-4.81,4.56,54.69,2.04
62.00,0.00,222.81,7.50,-131.56,31.38,1.50,-3.56,55.93,2.06
62.00,1.00,247.81,-0.12,-77.56,-7.75,-0.19,1.19,55.93,2.06
62.00,2.00,261.31,-19.25,4.50,-7.44,-4.12,4.00,55.93,2.06
62.00,0.00,222.88,7.50,-132.12,29.44,3.44,-2.75,57.06,2.08
62.00,1.00,247.81,-0.12,-77.44,-6.81,-0.25,1.31,57.06,2.08
62.00,2.00,261.19,-19.19,4.62,-5.88,-3.88,4.12,57.06,2.08
62.00,0.00,222.56,7.50,-132.69,27.62,4.00,-2.81,58.15,2.10
62.00,1.00,247.75,-0.06,-77.31,-5.31,0.06,2.00,58.15,2.10
62.00,2.00,261.06,-19.12,4.62,-6.38,-3.12,4.94,58.15,2.10
62.00,0.00,222.31,7.56,-133.19,26.12,8.44,-1.12,59.18,2.12
62.00,1.00,247.75,-0.06,-77.19,-6.19,1.50,2.50,59.18,2.12
62.00,2.00,260.94,-19.06,4.69,-5.88,-3.19,6.62,59.18,2.12
62.00,0.00,221.62,7.69,-133.56,20.75,13.12,-0.31,60.04,2.14
62.00,1.00,247.62,0.00,-77.06,-6.50,2.19,2.94,60.04,2.14
62.00,2.00,260.75,-19.00,4.69,-6.25,-3.69,7.81,60.04,2.14
62.00,0.00,220.75,7.94,-133.81,13.25,14.38,-0.12,60.67,2.16
62.00,1.00,247.50,0.00,-77.00,-7.12,4.44,4.06,60.67,2.16
62.00,2.00,260.56,-18.88,4.69,-6.38,-4.31,8.00,60.67,2.16
62.00,0.00,219.88,8.25,-133.81,5.50,16.94,0.56,61.11,2.18
62.00,1.00,247.38,0.06,-76.81,-7.38,5.00,4.25,61.11,2.18
62.00,2.00,260.38,-18.81,4.69,-8.38,-4.25,7.94,61.11,2.18
62.00,0.00,219.00,8.50,-133.75,-1.56,18.50,1.19,61.36,2.20
62.00,1.00,247.19,0.12,-76.69,-8.69,7.12,4.69,61.36,2.20
62.00,2.00,260.12,-18.69,4.75,-9.31,-4.50,8.81,61.36,2.20
62.00,0.00,218.12,8.81,-133.56,-8.06,19.44,1.56,61.39,2.22
62.00,1.00,246.94,0.19,-76.56,-8.88,7.94,5.12,61.39,2.22
62.00,2.00,259.94,-18.62,4.81,-8.94,-4.31,9.94,61.39,2.22
62.00,0.00,217.31,9.12,-133.25,-14.31,20.19,1.25,61.24,2.24
62.00,1.00,246.69,0.25,-76.38,-8.94,9.06,5.31,61.24,2.24
62.00,2.00,259.69,-18.50,4.88,-9.50,-3.69,9.75,61.24,2.24
62.00,0.00,216.62,9.44,-132.88,-16.56,18.75,1.38,61.03,2.26
62.00,1.00,246.44,0.31,-76.19,-9.62,10.88,5.69,61.03,2.26
62.00,2.00,259.50,-18.44,4.94,-10.06,-2.62,9.56,61.03,2.26
62.00,0.00,215.94,9.69,-132.50,-15.81,18.44,3.19,60.91,2.28
62.00,1.00,246.12,0.44,-76.00,-11.00,11.94,5.81,60.91,2.28
62.00,2.00,259.25,-18.38,5.06,-12.00,-2.56,10.06,60.91,2.28
62.00,0.00,215.19,10.00,-132.19,-16.00,20.00,3.56,60.81,2.30
62.00,1.00,245.81,0.50,-75.75,-11.25,12.00,6.12,60.81,2.30
62.00,2.00,259.00,-18.38,5.25,-13.06,-3.31,9.94,60.81,2.30
62.00,0.00,214.56,10.25,-131.81,-17.56,18.75,1.31,60.66,2.32
62.00,1.00,245.50,0.50,-75.56,-10.88,11.69,5.56,60.66,2.32
62.00,2.00,258.75,-18.31,5.44,-12.69,-3.69,9.00,60.66,2.32
62.00,0.00,213.94,10.50,-131.44,-16.06,18.31,0.94,60.50,2.34
62.00,1.00,245.31,0.56,-75.38,-9.44,9.12,4.81,60.50,2.34
62.00,2.00,258.56,-18.25,5.62,-11.12,-2.88,7.75,60.50,2.34
62.00,0.00,213.38,10.75,-131.06,-14.88,19.19,0.19,60.32,2.36
62.00,1.00,245.06,0.62,-75.19,-7.62,7.00,4.19,60.32,2.36
62.00,2.00,258.44,-18.25,5.75,-9.25,-1.31,6.69,60.32,2.36
62.00,0.00,212.81,10.94,-130.75,-12.56,17.31,-0.44,60.18,2.38
62.00,1.00,244.94,0.62,-75.06,-7.12,5.88,3.56,60.18,2.38
62.00,2.00,258.25,-18.25,5.94,-8.38,-0.50,5.75,60.18,2.38
62.00,0.00,212.38,11.12,-130.56,-8.62,15.31,-0.88,60.15,2.40
62.00,1.00,244.81,0.69,-74.88,-7.12,4.38,2.94,60.15,2.40
62.00,2.00,258.19,-18.19,6.12,-7.69,-0.12,5.12,60.15,2.40
62.00,0.00,211.94,11.25,-130.38,-6.81,13.06,-0.69,60.17,2.42
62.00,1.00,244.69,0.69,-74.69,-7.00,4.19,2.88,60.17,2.42
62.00,2.00,258.06,-18.19,6.31,-7.31,0.69,4.44,60.17,2.42
62.00,0.00,211.62,11.38,-130.19,-6.44,10.19,-0.75,60.17,2.44
62.00,1.00,244.56,0.75,-74.56,-6.62,3.62,3.12,60.17,2.44
62.00,2.00,257.94,-18.19,6.44,-6.44,0.62,4.56,60.17,2.44
62.00,0.00,211.38,11.50,-130.00,-7.12,8.81,-0.44,60.15,2.46
62.00,1.00,244.44,0.75,-74.44,-5.75,3.38,3.31,60.15,2.46
62.00,2.00,257.88,-18.25,6.56,-6.50,1.75,4.62,60.15,2.46
62.00,0.00,211.19,11.56,-129.88,-7.62,7.56,-0.12,60.11,2.48
62.00,1.00,244.31,0.81,-74.25,-7.88,4.12,3.19,60.11,2.48
62.00,2.00,257.75,-18.25,6.62,-6.50,1.62,4.62,60.11,2.48
62.00,0.00,211.00,11.62,-129.69,-7.88,6.38,-0.12,60.06,2.50
62.00,1.00,244.19,0.88,-74.12,-7.81,4.44,3.31,60.06,2.50
62.00,2.00,257.62,-18.31,6.75,-6.31,0.62,4.81,60.06,2.50
62.00,0.00,210.88,11.69,-129.56,-7.69,6.50,0.31,60.02,2.52
62.00,1.00,244.06,0.94,-73.94,-7.62,4.75,3.12,60.02,2.52
62.00,2.00,257.50,-18.25,6.88,-6.38,-0.69,4.94,60.02,2.52
62.00,0.00,210.62,11.81,-129.31,-6.56,6.62,0.94,60.01,2.54
62.00,1.00,243.94,0.94,-73.81,-7.38,4.56,2.50,60.01,2.54
62.00,2.00,257.44,-18.25,7.00,-6.12,-0.94,4.56,60.01,2.54
62.00,0.00,210.38,11.94,-129.25,-4.12,6.56,1.94,60.03,2.56
62.00,1.00,243.88,0.94,-73.62,-7.00,4.31,1.62,60.03,2.56
62.00,2.00,257.31,-18.25,7.06,-4.94,0.31,3.25,60.03,2.56
62.00,0.00,210.12,12.06,-129.12,-3.00,5.81,2.25,60.05,2.58
62.00,1.00,243.75,0.94,-73.50,-5.44,3.81,1.19,60.05,2.58
62.00,2.00,257.25,-18.25,7.12,-3.44,2.00,3.25,60.05,2.58
62.00,0.00,209.94,12.12,-129.06,-3.12,4.75,1.88,60.02,2.60
62.00,1.00,243.69,1.00,-73.38,-4.88,3.31,1.56,60.02,2.60
62.00,2.00,257.19,-18.31,7.19,-2.25,1.94,3.75,60.02,2.60
62.00,0.00,209.81,12.19,-129.00,-3.56,3.69,1.31,60.02,2.62
62.00,1.00,243.62,1.00,-73.25,-5.50,3.75,1.75,60.02,2.62
62.00,2.00,257.12,-18.31,7.25,-3.44,1.12,3.62,60.02,2.62
62.00,0.00,209.75,12.25,-128.88,-3.81,2.31,0.62,60.01,2.64
62.00,1.00,243.50,1.00,-73.19,-5.69,3.94,2.06,60.01,2.64
62.00,2.00,257.00,-18.38,7.25,-3.69,1.38,3.94,60.01,2.64
62.00,0.00,209.75,12.25,-128.88,-3.88,1.56,0.25,60.01,2.66
62.00,1.00,243.38,1.06,-73.06,-5.50,4.00,2.44,60.01,2.66
62.00,2.00,256.94,-18.38,7.31,-3.69,1.31,4.25,60.01,2.66
62.00,0.00,209.75,12.25,-128.75,-3.38,0.62,-0.62,60.01,2.68
62.00,1.00,243.31,1.06,-72.94,-6.19,4.25,2.69,60.01,2.68
62.00,2.00,256.88,-18.38,7.38,-3.56,1.31,4.12,60.01,2.68
62.00,0.00,209.81,12.25,-128.69,-2.94,-0.38,-1.50,60.04,2.70
62.00,1.00,243.19,1.12,-72.75,-6.56,4.44,2.44,60.04,2.70
62.00,2.00,256.75,-18.44,7.44,-3.75,1.69,4.38,60.04,2.70
62.00,0.00,209.88,12.19,-128.62,-2.44,-0.12,-1.81,60.10,2.72
62.00,1.00,243.06,1.12,-72.62,-6.75,3.75,2.31,60.10,2.72
62.00,2.00,256.69,-18.44,7.50,-4.25,1.62,4.06,60.10,2.72
62.00,0.00,209.94,12.19,-128.56,-1.94,0.50,-1.50,60.17,2.74
62.00,1.00,243.00,1.12,-72.50,-6.56,3.81,2.06,60.17,2.74
62.00,2.00,256.56,-18.50,7.56,-4.12,1.81,4.44,60.17,2.74
62.00,0.00,209.94,12.19,-128.56,-0.94,1.81,-1.00,60.25,2.76
62.00,1.00,242.88,1.12,-72.38,-5.12,3.94,1.25,60.25,2.76
62.00,2.00,256.50,-18.50,7.69,-3.69,1.50,4.50,60.25,2.76
62.00,0.00,209.69,12.19,-128.50,-0.06,2.88,-0.56,60.33,2.78
62.00,1.00,242.81,1.12,-72.31,-3.75,3.44,0.62,60.33,2.78
62.00,2.00,256.38,-18.50,7.75,-2.56,1.69,4.31,60.33,2.78
62.00,0.00,209.56,12.19,-128.50,0.88,3.44,-0.12,60.42,2.80
62.00,1.00,242.75,1.12,-72.25,-2.19,3.06,0.38,60.42,2.80
62.00,2.00,256.31,-18.56,7.75,-1.69,2.44,4.12,60.42,2.80
62.00,0.00,209.44,12.25,-128.50,1.19,3.69,0.00,60.49,2.82
62.00,1.00,242.75,1.12,-72.19,-2.44,3.38,0.31,60.49,2.82
62.00,2.00,256.25,-18.62,7.75,-1.12,2.56,4.31,60.49,2.82
62.00,0.00,209.19,12.31,-128.56,0.88,4.44,-0.44,60.55,2.84
62.00,1.00,242.69,1.06,-72.12,-2.56,3.31,0.38,60.55,2.84
62.00,2.00,256.12,-18.69,7.75,-1.06,1.31,4.88,60.55,2.84
62.00,0.00,209.06,12.38,-128.50,0.31,3.81,-0.69,60.60,2.86
62.00,1.00,242.62,1.06,-72.06,-2.38,3.25,0.81,60.60,2.86
62.00,2.00,256.06,-18.69,7.75,-1.12,0.56,4.56,60.60,2.86
62.00,0.00,209.06,12.38,-128.50,0.19,3.62,-0.81,60.64,2.88
62.00,1.00,242.56,1.06,-72.00,-2.56,3.50,0.81,60.64,2.88
62.00,2.00,255.94,-18.69,7.75,-1.12,0.88,4.75,60.64,2.88
62.00,0.00,208.94,12.44,-128.50,-0.50,3.12,-1.00,60.66,2.90
62.00,1.00,242.50,1.06,-71.94,-2.06,3.44,0.81,60.66,2.90
62.00,2.00,255.88,-18.69,7.75,-1.00,0.19,4.69,60.66,2.90
62.00,0.00,208.88,12.44,-128.44,-0.56,2.81,-0.94,60.67,2.92
62.00,1.00,242.44,1.06,-71.94,-1.75,3.06,0.75,60.67,2.92
62.00,2.00,255.75,-18.75,7.75,-0.88,1.56,4.00,60.67,2.92
62.00,0.00,208.81,12.44,-128.38,-0.50,1.38,-0.69,60.71,2.94
62.00,1.00,242.38,1.06,-71.88,-2.12,3.19,0.44,60.71,2.94
62.00,2.00,255.69,-18.75,7.75,-1.81,2.12,3.19,60.71,2.94
62.00,0.00,208.75,12.44,-128.38,-0.44,1.50,-0.94,60.76,2.96
62.00,1.00,242.31,1.06,-71.81,-3.19,3.62,0.00,60.76,2.96
62.00,2.00,255.62,-18.81,7.75,-2.06,2.06,2.94,60.76,2.96
62.00,0.00,208.88,12.44,-128.38,-0.50,1.44,-1.12,60.82,2.98
62.00,1.00,242.31,1.00,-71.75,-3.50,3.44,-0.06,60.82,2.98
62.00,2.00,255.56,-18.88,7.81,-2.31,2.00,2.56,60.82,2.98
62.00,0.00,208.94,12.38,-128.25,-1.56,-0.44,-1.94,60.86,3.00
62.00,1.00,242.25,1.00,-71.69,-3.56,3.31,0.25,60.86,3.00
62.00,2.00,255.56,-18.88,7.88,-2.88,2.62,1.75,60.86,3.00
62.00,0.00,209.06,12.31,-128.25,-1.94,-0.44,-2.19,60.89,3.02
62.00,1.00,242.19,1.00,-71.62,-3.75,2.62,0.06,60.89,3.02
62.00,2.00,255.50,-18.94,7.94,-2.81,2.88,1.25,60.89,3.02
62.00,0.00,209.12,12.31,-128.19,-2.56,-0.25,-2.12,60.87,3.04
62.00,1.00,242.19,0.94,-71.50,-3.50,2.19,-0.31,60.87,3.04
62.00,2.00,255.50,-19.00,7.94,-2.00,2.50,1.75,60.87,3.04
62.00,0.00,209.19,12.25,-128.12,-2.94,-0.38,-2.00,60.83,3.06
62.00,1.00,242.12,0.94,-71.44,-2.88,2.19,-0.19,60.83,3.06
62.00,2.00,255.44,-19.06,8.00,-1.81,2.12,1.88,60.83,3.06
62.00,0.00,209.25,12.25,-128.06,-3.00,0.00,-1.94,60.78,3.08
62.00,1.00,242.12,0.94,-71.38,-2.88,1.81,-0.50,60.78,3.08
62.00,2.00,255.44,-19.06,8.00,-1.44,2.25,1.50,60.78,3.08
62.00,0.00,209.31,12.25,-128.00,-2.56,0.62,-1.81,60.76,3.10
62.00,1.00,242.12,0.94,-71.31,-2.75,1.94,-0.81,60.76,3.10
62.00,2.00,255.38,-19.12,8.06,-1.75,2.69,1.38,60.76,3.10
62.00,0.00,209.38,12.19,-127.94,-2.56,1.06,-1.50,60.73,3.12
62.00,1.00,242.06,0.88,-71.25,-2.81,2.19,-0.50,60.73,3.12
62.00,2.00,255.38,-19.19,8.06,-1.75,2.69,1.56,60.73,3.12
62.00,0.00,209.25,12.19,-127.88,-2.50,0.12,-1.25,60.70,3.14
62.00,1.00,242.06,0.88,-71.19,-2.62,2.31,0.06,60.70,3.14
62.00,2.00,255.31,-19.25,8.12,-1.56,2.31,2.06,60.70,3.14
62.00,0.00,209.31,12.19,-127.81,-2.62,-1.31,-1.31,60.67,3.16
62.00,1.00,242.00,0.88,-71.19,-3.00,2.94,0.31,60.67,3.16
62.00,2.00,255.25,-19.25,8.12,-1.75,2.94,2.31,60.67,3.16
62.00,0.00,209.31,12.12,-127.81,-1.75,-1.31,-0.19,60.68,3.18
62.00,1.00,241.94,0.88,-71.06,-3.62,3.69,0.19,60.68,3.18
62.00,2.00,255.25,-19.31,8.12,-2.00,2.00,2.88,60.68,3.18
62.00,0.00,209.31,12.12,-127.75,-1.75,-0.25,0.06,60.69,3.20
62.00,1.00,241.94,0.81,-71.06,-2.56,3.00,0.19,60.69,3.20
62.00,2.00,255.19,-19.38,8.19,-1.94,1.44,2.94,60.69,3.20
62.00,0.00,209.31,12.12,-127.69,-1.75,-0.25,0.12,60.66,3.22
62.00,1.00,241.88,0.81,-71.00,-1.62,2.75,0.19,60.66,3.22
62.00,2.00,255.12,-19.38,8.19,-0.88,2.56,2.50,60.66,3.22
62.00,0.00,209.38,12.12,-127.69,-1.81,-0.88,0.50,60.64,3.24
62.00,1.00,241.81,0.81,-70.94,-1.69,3.56,0.44,60.64,3.24
62.00,2.00,255.06,-19.44,8.19,-1.06,1.88,3.38,60.64,3.24
62.00,0.00,209.38,12.12,-127.69,-0.88,-0.88,1.19,60.65,3.26
62.00,1.00,241.75,0.75,-70.94,-2.38,4.19,0.50,60.65,3.26
62.00,2.00,255.00,-19.50,8.19,-1.31,1.31,3.25,60.65,3.26
62.00,0.00,209.44,12.12,-127.62,-1.56,-1.50,0.19,60.65,3.28
62.00,1.00,241.69,0.75,-70.88,-2.06,4.12,0.69,60.65,3.28
62.00,2.00,254.94,-19.50,8.19,-1.56,1.38,2.81,60.65,3.28
62.00,0.00,209.56,12.12,-127.56,-1.62,-2.00,-0.25,60.65,3.30
62.00,1.00,241.62,0.75,-70.81,-1.75,3.94,0.69,60.65,3.30
62.00,2.00,254.88,-19.50,8.25,-1.62,2.31,2.25,60.65,3.30
62.00,0.00,209.69,12.06,-127.56,-2.00,-1.31,-0.38,60.65,3.32
62.00,1.00,241.56,0.75,-70.81,-1.75,4.00,0.56,60.65,3.32
62.00,2.00,254.88,-19.56,8.25,-2.12,3.69,2.31,60.65,3.32
62.00,0.00,209.69,12.06,-127.50,-2.00,-1.25,-0.44,60.66,3.34
62.00,1.00,241.50,0.69,-70.75,-1.69,5.12,1.00,60.66,3.34
62.00,2.00,254.75,-19.69,8.25,-2.12,4.19,3.44,60.66,3.34
62.00,0.00,209.81,12.00,-127.44,-2.94,-1.00,-0.88,60.65,3.36
62.00,1.00,241.38,0.69,-70.69,-1.31,6.06,1.31,60.65,3.36
62.00,2.00,254.69,-19.75,8.31,-2.75,3.12,4.81,60.65,3.36
62.00,0.00,209.94,12.00,-127.38,-3.62,-0.56,-1.69,60.63,3.38
62.00,1.00,241.25,0.69,-70.69,-1.81,6.88,1.44,60.63,3.38
62.00,2.00,254.62,-19.81,8.31,-2.81,3.56,5.44,60.63,3.38
62.00,0.00,210.06,11.94,-127.31,-4.25,-0.31,-2.69,60.61,3.40
62.00,1.00,241.12,0.69,-70.62,-2.06,7.06,1.38,60.61,3.40
62.00,2.00,254.44,-19.94,8.38,-3.69,3.69,6.25,60.61,3.40
62.00,0.00,210.19,11.88,-127.19,-3.62,-0.94,-2.62,60.61,3.42
62.00,1.00,241.00,0.69,-70.56,-2.56,7.31,1.06,60.61,3.42
62.00,2.00,254.31,-20.00,8.38,-3.69,3.81,6.62,60.61,3.42
62.00,0.00,210.38,11.81,-127.12,-3.19,-1.75,-2.44,60.62,3.44
62.00,1.00,240.88,0.62,-70.50,-2.19,7.31,0.62,60.62,3.44
62.00,2.00,254.19,-20.06,8.44,-3.50,4.00,6.81,60.62,3.44
62.00,0.00,210.50,11.75,-127.12,-2.62,-2.38,-1.88,60.65,3.46
62.00,1.00,240.81,0.56,-70.50,-1.75,6.69,0.44,60.65,3.46
62.00,2.00,254.06,-20.19,8.50,-3.69,4.12,6.81,60.65,3.46
62.00,0.00,210.62,11.69,-127.06,-1.75,-2.12,-1.62,60.69,3.48
62.00,1.00,240.69,0.56,-70.44,-1.00,6.81,0.56,60.69,3.48
62.00,2.00,253.94,-20.25,8.50,-2.81,3.75,5.94,60.69,3.48
62.00,0.00,210.75,11.62,-127.00,-1.44,-1.88,-1.56,60.72,3.50
62.00,1.00,240.62,0.50,-70.44,-0.50,6.50,0.38,60.72,3.50
62.00,2.00,253.81,-20.31,8.56,-2.38,1.88,5.56,60.72,3.50
62.00,0.00,210.81,11.62,-127.00,-0.38,-1.38,-1.44,60.78,3.52
62.00,1.00,240.50,0.44,-70.44,0.19,5.12,0.56,60.78,3.52
62.00,2.00,253.69,-20.31,8.56,-2.44,0.75,4.31,60.78,3.52
62.00,0.00,210.94,11.56,-126.94,-0.06,-1.00,-1.38,60.83,3.54
62.00,1.00,240.44,0.44,-70.44,0.25,3.69,0.69,60.83,3.54
62.00,2.00,253.62,-20.31,8.62,-1.56,0.88,3.38,60.83,3.54
62.00,0.00,210.94,11.56,-126.94,0.69,-0.81,-1.00,60.87,3.56
62.00,1.00,240.44,0.44,-70.44,0.81,2.25,0.25,60.87,3.56
62.00,2.00,253.62,-20.31,8.69,-0.38,0.44,2.31,60.87,3.56
62.00,0.00,211.12,11.56,-126.94,1.31,-1.19,-0.50,60.85,3.58
62.00,1.00,240.44,0.38,-70.44,1.88,0.38,0.06,60.85,3.58
62.00,2.00,253.62,-20.31,8.69,1.75,0.31,0.88,60.85,3.58
62.00,0.00,211.12,11.56,-126.94,1.88,-0.69,0.50,60.84,3.60
62.00,1.00,240.44,0.38,-70.50,2.94,-0.94,0.00,60.84,3.60
62.00,2.00,253.62,-20.31,8.69,2.38,-1.19,0.25,60.84,3.60
62.00,0.00,211.00,11.62,-127.00,2.19,-0.06,1.94,60.81,3.62
62.00,1.00,240.50,0.38,-70.56,3.75,-2.00,-0.19,60.81,3.62
62.00,2.00,253.62,-20.31,8.69,3.00,-2.31,-0.94,60.81,3.62
62.00,0.00,210.88,11.69,-127.00,3.31,1.00,3.44,60.76,3.64
62.00,1.00,240.50,0.44,-70.62,5.25,-2.88,-0.56,60.76,3.64
62.00,2.00,253.62,-20.25,8.69,4.75,-2.50,-2.00,60.76,3.64
62.00,0.00,210.62,11.81,-127.06,4.38,1.56,5.25,60.75,3.66
62.00,1.00,240.56,0.44,-70.75,6.38,-3.44,-0.38,60.75,3.66
62.00,2.00,253.75,-20.12,8.56,4.94,-2.75,-3.06,60.75,3.66
62.00,0.00,210.44,12.00,-127.12,6.62,1.75,7.00,60.80,3.68
62.00,1.00,240.62,0.44,-70.88,6.56,-4.19,-0.25,60.80,3.68
62.00,2.00,253.81,-20.06,8.56,4.88,-3.31,-4.19,60.80,3.68
62.00,0.00,210.12,12.12,-127.31,8.94,0.81,8.25,60.91,3.70
62.00,1.00,240.69,0.50,-70.94,6.44,-5.44,-0.81,60.91,3.70
62.00,2.00,253.94,-20.00,8.50,5.50,-3.62,-5.75,60.91,3.70
62.00,0.00,209.88,12.25,-127.44,9.38,0.06,8.94,61.00,3.72
62.00,1.00,240.81,0.50,-71.12,7.38,-7.19,-1.56,61.00,3.72
62.00,2.00,254.06,-19.88,8.50,6.50,-3.88,-7.38,61.00,3.72
62.00,0.00,209.69,12.38,-127.62,8.69,-1.12,9.12,61.03,3.74
62.00,1.00,241.00,0.50,-71.25,8.62,-8.81,-2.19,61.03,3.74
62.00,2.00,254.25,-19.81,8.44,7.88,-3.44,-8.62,61.03,3.74
62.00,0.00,209.50,12.50,-127.75,8.25,-0.62,10.06,61.02,3.76
62.00,1.00,241.19,0.50,-71.38,9.69,-10.31,-2.94,61.02,3.76
62.00,2.00,254.44,-19.69,8.44,8.50,-3.50,-10.06,61.02,3.76
62.00,0.00,209.38,12.62,-127.94,8.06,-4.06,10.12,60.98,3.78
62.00,1.00,241.44,0.50,-71.56,10.38,-10.94,-3.19,60.98,3.78
62.00,2.00,254.69,-19.56,8.38,9.44,-3.38,-11.75,60.98,3.78
62.00,0.00,209.38,12.69,-128.19,11.31,-10.62,10.94,61.03,3.80
62.00,1.00,241.62,0.50,-71.75,10.31,-11.75,-3.25,61.03,3.80
62.00,2.00,254.94,-19.50,8.31,9.62,-3.38,-12.88,61.03,3.80
62.00,0.00,209.44,12.75,-128.44,13.06,-10.62,12.69,61.16,3.82
62.00,1.00,241.88,0.50,-71.94,10.56,-13.06,-3.25,61.16,3.82
62.00,2.00,255.25,-19.38,8.25,9.06,-3.50,-13.75,61.16,3.82
62.00,0.00,209.69,12.81,-128.75,10.25,-9.62,12.06,61.18,3.84
62.00,1.00,242.19,0.50,-72.12,11.00,-14.62,-3.81,61.18,3.84
62.00,2.00,255.56,-19.25,8.19,9.62,-2.50,-15.44,61.18,3.84
62.00,0.00,209.81,12.81,-128.88,6.75,-10.00,11.31,61.05,3.86
62.00,1.00,242.44,0.50,-72.38,11.50,-16.00,-4.50,61.05,3.86
62.00,2.00,255.88,-19.12,8.19,10.81,-2.19,-17.25,61.05,3.86
62.00,0.00,210.06,12.88,-129.00,4.50,-10.06,11.06,60.80,3.88
62.00,1.00,242.81,0.50,-72.56,12.25,-16.50,-5.19,60.80,3.88
62.00,2.00,256.25,-19.06,8.12,12.19,-1.94,-17.50,60.80,3.88
62.00,0.00,210.19,12.94,-129.19,3.75,-11.19,11.50,60.51,3.90
62.00,1.00,242.94,0.50,-72.69,13.31,-16.31,-5.31,60.51,3.90
62.00,2.00,256.62,-19.00,8.00,12.81,-1.81,-17.81,60.51,3.90
62.00,0.00,210.38,12.94,-129.31,3.06,-12.00,12.12,60.15,3.92
62.00,1.00,243.50,0.50,-73.06,13.94,-16.62,-5.56,60.15,3.92
62.00,2.00,257.06,-18.88,7.88,14.31,-2.31,-18.81,60.15,3.92
62.00,0.00,210.50,13.00,-129.44,1.44,-11.56,12.25,59.62,3.94
62.00,1.00,243.62,0.50,-73.19,22.56,-16.62,-8.69,59.62,3.94
62.00,2.00,257.44,-18.81,7.69,18.12,2.19,-22.50,59.62,3.94
62.00,0.00,210.69,13.00,-129.50,-1.31,-11.62,10.81,58.54,3.96
62.00,1.00,244.12,0.38,-73.75,32.06,-21.50,-12.56,58.54,3.96
62.00,2.00,258.00,-18.81,7.44,32.44,15.50,-27.19,58.54,3.96
62.00,0.00,211.00,13.00,-129.44,-6.19,-11.81,9.12,57.39,3.98
62.00,1.00,244.69,0.31,-74.31,26.44,-24.94,-10.00,57.39,3.98
62.00,2.00,258.62,-19.06,7.00,29.62,15.06,-22.56,57.39,3.98
62.00,0.00,211.50,13.00,-129.31,-14.69,-12.50,9.44,56.76,4.00
62.00,1.00,245.19,0.25,-74.75,6.25,-17.94,-5.44,56.76,4.00
62.00,2.00,259.12,-19.25,6.69,4.94,1.12,-13.00,56.76,4.00
62.00,0.00,211.88,13.06,-128.94,-22.12,-9.31,12.00,56.64,4.02
62.00,1.00,245.44,0.25,-74.75,-21.50,2.12,-1.19,56.64,4.02
62.00,2.00,259.31,-19.19,6.75,-18.44,-8.44,-8.25,56.64,4.02
62.00,0.00,212.25,13.19,-128.56,-24.81,-1.50,13.50,56.78,4.04
62.00,1.00,245.44,0.19,-74.31,-26.56,3.31,1.25,56.78,4.04
62.00,2.00,259.38,-19.00,7.25,-28.94,-11.25,-4.69,56.78,4.04
62.00,0.00,212.12,13.44,-128.06,-23.94,6.38,9.50,56.86,4.06
62.00,1.00,245.38,0.19,-73.75,-25.38,1.00,0.75,56.86,4.06
62.00,2.00,259.38,-18.81,7.81,-26.38,-8.75,-3.12,56.86,4.06
62.00,0.00,211.94,13.56,-127.69,-17.06,10.00,1.12,56.88,4.08
62.00,1.00,245.31,0.19,-73.31,-23.69,-0.69,-0.62,56.88,4.08
62.00,2.00,259.31,-18.62,8.31,-17.81,-2.38,-4.12,56.88,4.08
62.00,0.00,211.62,13.75,-127.56,0.88,10.75,0.94,57.19,4.10
62.00,1.00,245.38,0.19,-72.88,-16.50,-4.12,-3.19,57.19,4.10
62.00,2.00,259.38,-18.62,8.62,-8.81,4.56,-8.06,57.19,4.10
62.00,0.00,211.06,13.88,-127.69,11.62,9.69,1.12,57.63,4.12
62.00,1.00,245.50,0.19,-72.56,-8.50,-7.00,-3.94,57.63,4.12
62.00,2.00,259.56,-18.69,8.81,-2.00,8.81,-7.25,57.63,4.12
62.00,0.00,210.88,13.88,-127.94,11.50,4.94,-2.00,58.08,4.14
62.00,1.00,245.69,0.12,-72.44,-7.19,-7.06,-3.31,58.08,4.14
62.00,2.00,259.69,-18.88,8.88,-2.56,7.38,-4.62,58.08,4.14
62.00,0.00,210.94,13.81,-128.00,1.38,-1.06,-9.31,58.35,4.16
62.00,1.00,245.81,0.12,-72.31,-6.75,-0.50,0.38,58.35,4.16
62.00,2.00,259.75,-18.94,9.00,-7.19,2.12,-0.62,58.35,4.16
62.00,0.00,211.44,13.56,-128.00,1.38,-5.00,-11.50,58.72,4.18
62.00,1.00,245.75,0.12,-72.19,-4.56,1.56,0.88,58.72,4.18
62.00,2.00,259.69,-18.94,9.25,-10.06,-1.94,2.38,58.72,4.18
62.00,0.00,211.81,13.31,-128.00,4.25,-4.38,-13.19,59.19,4.20
62.00,1.00,245.75,0.12,-72.12,-0.88,-0.38,-0.25,59.19,4.20
62.00,2.00,259.62,-18.94,9.31,-10.50,-1.44,2.81,59.19,4.20
62.00,0.00,212.12,13.06,-128.12,6.62,-3.44,-12.25,59.61,4.22
62.00,1.00,245.75,0.12,-72.12,2.94,-4.62,-2.00,59.61,4.22
62.00,2.00,259.56,-18.94,9.50,-6.56,3.31,-1.50,59.61,4.22
62.00,0.00,212.56,12.88,-128.25,7.44,-3.62,-11.25,59.86,4.24
62.00,1.00,245.88,0.12,-72.19,5.06,-5.88,-2.69,59.86,4.24
62.00,2.00,259.62,-19.00,9.62,-0.19,5.81,-5.31,59.86,4.24
62.00,0.00,212.88,12.62,-128.38,8.50,-6.00,-9.81,60.08,4.26
62.00,1.00,246.06,0.12,-72.31,6.88,-7.25,-3.81,60.08,4.26
62.00,2.00,259.81,-19.12,9.69,1.56,5.06,-6.81,60.08,4.26
62.00,0.00,213.06,12.56,-128.50,6.00,-8.19,-9.50,60.25,4.28
62.00,1.00,246.25,0.06,-72.44,5.56,-8.06,-3.38,60.25,4.28
62.00,2.00,259.94,-19.19,9.69,0.56,1.56,-8.00,60.25,4.28
62.00,0.00,214.06,12.12,-128.56,1.38,-11.38,-10.50,60.35,4.30
62.00,1.00,246.38,0.06,-72.50,3.50,-8.19,-2.69,60.35,4.30
62.00,2.00,260.00,-19.19,9.75,-1.81,-1.31,-8.62,60.35,4.30
62.00,0.00,214.38,12.00,-128.56,-2.06,-11.75,-8.69,60.36,4.32
62.00,1.00,246.56,0.12,-72.50,-4.06,-8.62,-0.56,60.36,4.32
62.00,2.00,260.25,-19.06,9.88,-2.12,-3.75,-9.00,60.36,4.32
62.00,0.00,215.25,11.75,-128.56,-0.69,-7.06,-4.38,60.39,4.34
62.00,1.00,246.69,0.12,-72.44,-5.44,-8.25,-0.31,60.39,4.34
62.00,2.00,260.38,-19.00,9.94,-1.62,-3.88,-8.12,60.39,4.34
62.00,0.00,215.50,11.62,-128.56,1.25,-0.62,0.25,60.49,4.36
62.00,1.00,246.81,0.19,-72.31,-5.44,-7.94,0.38,60.49,4.36
62.00,2.00,260.56,-18.81,10.06,-2.06,-3.62,-6.12,60.49,4.36
62.00,0.00,215.44,11.62,-128.62,2.62,7.06,4.62,60.67,4.38
62.00,1.00,246.88,0.25,-72.19,-6.75,-8.00,-0.06,60.67,4.38
62.00,2.00,260.62,-18.75,10.12,-2.88,-3.19,-5.94,60.67,4.38
62.00,0.00,214.81,11.88,-128.62,2.25,12.81,6.81,60.86,4.40
62.00,1.00,247.00,0.31,-72.06,-7.88,-7.31,-0.38,60.86,4.40
62.00,2.00,260.69,-18.75,10.19,-3.62,-3.31,-5.31,60.86,4.40
62.00,0.00,214.12,12.12,-128.69,2.25,14.75,6.19,61.09,4.42
62.00,1.00,247.06,0.31,-71.88,-9.06,-3.94,-0.12,61.09,4.42
62.00,2.00,260.81,-18.62,10.38,-5.00,-2.75,-4.19,61.09,4.42
62.00,0.00,213.56,12.38,-128.69,2.38,14.31,6.06,61.32,4.44
62.00,1.00,247.12,0.38,-71.69,-8.81,-2.94,0.12,61.32,4.44
62.00,2.00,260.81,-18.56,10.44,-4.94,-3.69,-2.12,61.32,4.44
62.00,0.00,212.94,12.62,-128.69,3.25,10.12,4.25,61.58,4.46
62.00,1.00,247.12,0.44,-71.50,-7.12,-1.19,1.75,61.58,4.46
62.00,2.00,260.81,-18.44,10.56,-4.75,-3.75,-0.44,61.58,4.46
62.00,0.00,212.44,12.81,-128.75,3.50,8.62,3.31,61.85,4.48
62.00,1.00,247.06,0.50,-71.31,-7.06,-0.50,2.12,61.85,4.48
62.00,2.00,260.81,-18.38,10.62,-5.00,-3.06,0.69,61.85,4.48
62.00,0.00,212.50,12.81,-128.75,3.50,5.62,0.06,62.12,4.50
62.00,1.00,247.00,0.56,-71.19,-7.06,0.31,2.62,62.12,4.50
62.00,2.00,260.75,-18.38,10.69,-5.06,-3.00,0.94,62.12,4.50
62.00,0.00,212.44,12.81,-128.81,3.62,4.88,-1.38,62.35,4.52
62.00,1.00,246.94,0.62,-71.06,-3.88,0.75,2.38,62.35,4.52
62.00,2.00,260.69,-18.25,10.81,-3.56,-2.88,1.50,62.35,4.52
62.00,0.00,212.44,12.81,-128.88,4.06,4.19,-2.00,62.58,4.54
62.00,1.00,246.88,0.69,-70.94,-2.88,0.56,2.19,62.58,4.54
62.00,2.00,260.69,-18.25,10.81,-2.88,-1.94,1.88,62.58,4.54
62.00,0.00,212.25,12.81,-128.94,5.81,3.44,-3.00,62.83,4.56
62.00,1.00,246.81,0.75,-70.94,-1.25,0.62,1.50,62.83,4.56
62.00,2.00,260.62,-18.19,10.88,-1.94,-1.62,1.56,62.83,4.56
62.00,0.00,212.19,12.81,-129.06,6.12,3.44,-3.38,63.09,4.58
62.00,1.00,246.75,0.75,-70.88,-1.12,0.81,1.25,63.09,4.58
62.00,2.00,260.56,-18.12,10.94,-2.06,-1.75,1.12,63.09,4.58
62.00,0.00,212.19,12.75,-129.19,7.25,-5.69,-4.25,63.34,4.60
62.00,1.00,246.75,0.75,-70.88,1.31,-0.50,0.56,63.34,4.60
62.00,2.00,260.56,-18.12,11.00,-0.69,-2.50,-0.06,63.34,4.60
62.00,0.00,212.44,12.62,-129.31,6.50,-5.88,-3.75,63.52,4.62
62.00,1.00,246.75,0.75,-70.88,3.94,-2.31,-0.06,63.52,4.62
62.00,2.00,260.62,-18.06,11.00,1.00,-1.62,-1.44,63.52,4.62
62.00,0.00,212.69,12.50,-129.44,6.00,-5.56,-3.50,63.62,4.64
62.00,1.00,246.81,0.81,-71.00,4.62,-3.12,-0.38,63.62,4.64
62.00,2.00,260.62,-18.06,11.00,2.88,-0.44,-2.88,63.62,4.64
62.00,0.00,212.88,12.38,-129.56,5.44,-4.38,-2.88,63.70,4.66
62.00,1.00,246.88,0.81,-71.06,4.44,-4.56,-0.50,63.70,4.66
62.00,2.00,260.75,-18.00,10.94,2.81,-1.75,-3.38,63.70,4.66
62.00,0.00,213.00,12.31,-129.69,6.75,-3.94,-1.44,63.81,4.68
62.00,1.00,246.94,0.81,-71.12,4.00,-4.94,-0.19,63.81,4.68
62.00,2.00,260.81,-17.94,10.94,3.38,-2.44,-3.88,63.81,4.68
62.00,0.00,213.12,12.25,-129.81,6.50,-3.69,-0.38,63.92,4.70
62.00,1.00,247.00,0.88,-71.19,3.56,-5.81,-0.06,63.92,4.70
62.00,2.00,260.88,-17.94,10.88,3.06,-2.56,-5.00,63.92,4.70
62.00,0.00,213.12,12.25,-129.94,4.31,-2.25,0.75,63.95,4.72
62.00,1.00,247.12,0.88,-71.31,3.69,-7.38,-0.56,63.95,4.72
62.00,2.00,261.06,-17.81,10.81,3.44,-2.31,-5.94,63.95,4.72
62.00,0.00,213.31,12.25,-130.06,3.25,-1.44,1.56,63.93,4.74
62.00,1.00,247.19,0.94,-71.38,3.31,-7.00,-0.50,63.93,4.74
62.00,2.00,261.06,-17.81,10.81,3.75,-2.44,-5.12,63.93,4.74
62.00,0.00,213.31,12.25,-130.12,3.75,-2.25,2.62,63.96,4.76
62.00,1.00,247.31,1.00,-71.44,2.50,-6.12,-0.38,63.96,4.76
62.00,2.00,261.25,-17.69,10.75,2.94,-2.69,-4.38,63.96,4.76
62.00,0.00,213.25,12.25,-130.25,4.69,-1.81,3.56,64.04,4.78
62.00,1.00,247.38,1.00,-71.44,1.81,-6.31,-0.38,64.04,4.78
62.00,2.00,261.31,-17.62,10.75,2.00,-2.38,-4.69,64.04,4.78
62.00,0.00,213.00,12.31,-130.31,5.06,-0.56,4.50,64.15,4.80
62.00,1.00,247.50,1.06,-71.50,1.75,-5.88,-0.50,64.15,4.80
62.00,2.00,261.38,-17.62,10.69,1.88,-2.56,-4.19,64.15,4.80
62.00,0.00,212.88,12.38,-130.44,4.94,0.38,4.56,64.29,4.82
62.00,1.00,247.56,1.06,-71.50,3.50,-5.44,0.19,64.29,4.82
62.00,2.00,261.50,-17.50,10.69,0.50,-5.38,-3.69,64.29,4.82
62.00,0.00,212.81,12.44,-130.56,4.44,-0.75,3.25,64.42,4.84
62.00,1.00,247.62,1.12,-71.62,4.25,-5.81,0.56,64.42,4.84
62.00,2.00,261.50,-17.44,10.69,0.19,-6.44,-4.62,64.42,4.84
62.00,0.00,212.81,12.44,-130.62,2.75,-3.75,2.31,64.51,4.86
62.00,1.00,247.75,1.19,-71.69,6.00,-7.81,0.94,64.51,4.86
62.00,2.00,261.62,-17.25,10.75,0.06,-4.94,-5.25,64.51,4.86
