Iteration,IMUNo,OrientationX (deg),OrientationY,OrientationZ,GyroX (20rad/sec),GyroY,GyroZ,Elbow_Pos (rad),Time (sec)
9.00,0.00,232.75,4.75,-93.75,0.06,-0.56,-0.50,0.00,1.02
9.00,1.00,265.25,0.44,-73.12,0.25,0.12,-0.19,0.00,1.02
9.00,2.00,287.06,-21.25,12.81,0.06,0.19,0.44,0.00,1.02
9.00,0.00,232.75,4.75,-93.75,-0.31,-0.56,-0.62,-0.01,1.04
9.00,1.00,265.25,0.44,-73.12,0.31,0.19,-0.06,-0.01,1.04
9.00,2.00,287.06,-21.25,12.81,0.12,0.62,0.31,-0.01,1.04
9.00,0.00,232.75,4.75,-93.75,-0.19,-0.38,-0.50,-0.01,1.06
9.00,1.00,265.25,0.44,-73.12,0.19,0.25,-0.06,-0.01,1.06
9.00,2.00,287.06,-21.25,12.81,-0.06,0.25,0.25,-0.01,1.06
9.00,0.00,232.75,4.75,-93.75,-0.38,-0.25,-0.62,-0.02,1.08
9.00,1.00,265.25,0.44,-73.12,0.12,0.06,-0.25,-0.02,1.08
9.00,2.00,287.06,-21.25,12.81,0.19,0.12,0.12,-0.02,1.08
9.00,0.00,232.75,4.75,-93.75,0.12,0.00,-0.62,-0.02,1.10
9.00,1.00,265.25,0.44,-73.12,0.06,0.00,-0.44,-0.02,1.10
9.00,2.00,287.06,-21.25,12.81,-0.06,0.44,-0.06,-0.02,1.10
9.00,0.00,232.75,4.75,-93.75,0.44,-0.06,-0.56,-0.01,1.12
9.00,1.00,265.25,0.44,-73.12,0.12,-0.25,-0.38,-0.01,1.12
9.00,2.00,287.06,-21.25,12.81,0.06,0.12,-0.06,-0.01,1.12
9.00,0.00,232.69,4.69,-93.75,0.12,-0.31,-0.56,-0.02,1.14
9.00,1.00,265.25,0.44,-73.12,0.06,-0.31,-0.31,-0.02,1.14
9.00,2.00,287.06,-21.25,12.81,0.38,0.50,-0.06,-0.02,1.14
9.00,0.00,232.69,4.69,-93.75,0.06,-0.25,-0.62,-0.02,1.16
9.00,1.00,265.25,0.44,-73.12,0.50,-0.31,-0.38,-0.02,1.16
9.00,2.00,287.06,-21.25,12.81,0.19,0.62,0.00,-0.02,1.16
9.00,0.00,232.62,4.69,-93.75,0.44,-0.31,-0.56,-0.01,1.18
9.00,1.00,265.25,0.44,-73.12,0.38,-0.25,-0.69,-0.01,1.18
9.00,2.00,287.06,-21.25,12.81,0.12,0.38,-0.38,-0.01,1.18
9.00,0.00,232.69,4.69,-93.75,0.38,-0.38,-0.69,-0.01,1.20
9.00,1.00,265.25,0.44,-73.12,0.00,-0.06,-0.56,-0.01,1.20
9.00,2.00,287.06,-21.25,12.81,0.12,0.31,-0.25,-0.01,1.20
9.00,0.00,232.69,4.69,-93.75,0.38,-0.50,-0.75,-0.01,1.22
9.00,1.00,265.25,0.44,-73.12,0.38,-0.12,-0.31,-0.01,1.22
9.00,2.00,287.06,-21.25,12.81,0.31,0.44,-0.12,-0.01,1.22
9.00,0.00,232.69,4.69,-93.75,0.25,-1.00,-0.56,0.00,1.24
9.00,1.00,265.25,0.44,-73.12,0.12,-0.12,-0.19,0.00,1.24
9.00,2.00,287.06,-21.25,12.81,-0.06,0.19,0.50,0.00,1.24
9.00,0.00,232.69,4.69,-93.75,0.06,-0.56,-0.50,0.00,1.26
9.00,1.00,265.25,0.44,-73.12,0.75,-0.12,0.12,0.00,1.26
9.00,2.00,287.06,-21.25,12.81,-0.19,-0.19,0.50,0.00,1.26
9.00,0.00,232.69,4.69,-93.75,0.44,-0.19,-0.31,0.01,1.28
9.00,1.00,265.25,0.44,-73.12,0.50,0.19,0.19,0.01,1.28
9.00,2.00,287.06,-21.25,12.81,-0.06,-0.31,0.38,0.01,1.28
9.00,0.00,232.69,4.69,-93.75,0.38,0.12,-0.25,0.02,1.30
9.00,1.00,265.25,0.44,-73.12,0.75,0.31,0.12,0.02,1.30
9.00,2.00,287.06,-21.25,12.81,0.25,-0.38,0.19,0.02,1.30
9.00,0.00,232.69,4.69,-93.75,0.38,0.06,-0.19,0.02,1.32
9.00,1.00,265.25,0.44,-73.19,0.81,-0.12,0.06,0.02,1.32
9.00,2.00,287.06,-21.25,12.81,0.44,-0.12,0.19,0.02,1.32
9.00,0.00,232.69,4.69,-93.75,0.25,0.19,0.00,0.02,1.34
9.00,1.00,265.25,0.44,-73.19,0.50,0.19,0.12,0.02,1.34
9.00,2.00,287.06,-21.25,12.81,0.19,-0.31,0.25,0.02,1.34
9.00,0.00,232.69,4.69,-93.75,0.31,0.19,0.25,0.00,1.36
9.00,1.00,265.25,0.44,-73.19,-0.19,0.44,0.00,0.00,1.36
9.00,2.00,287.06,-21.25,12.81,1.38,-2.00,0.44,0.00,1.36
9.00,0.00,232.69,4.69,-93.75,0.31,0.25,0.38,-0.07,1.38
9.00,1.00,265.25,0.44,-73.12,-1.12,1.19,-0.12,-0.07,1.38
9.00,2.00,287.06,-21.19,12.75,3.62,-4.06,0.38,-0.07,1.38
9.00,0.00,232.69,4.69,-93.75,1.00,0.75,0.50,-0.14,1.40
9.00,1.00,265.25,0.44,-73.12,0.12,0.75,0.31,-0.14,1.40
9.00,2.00,287.06,-21.06,12.62,4.94,-4.31,0.31,-0.14,1.40
9.00,0.00,232.56,4.75,-93.81,1.38,3.06,1.12,-0.21,1.42
9.00,1.00,265.25,0.44,-73.19,0.94,0.75,0.94,-0.21,1.42
9.00,2.00,287.06,-21.00,12.50,5.06,-4.25,0.81,-0.21,1.42
9.00,0.00,232.38,4.81,-93.81,2.31,5.81,2.56,-0.33,1.44
9.00,1.00,265.19,0.44,-73.19,-0.44,0.31,0.00,-0.33,1.44
9.00,2.00,287.06,-20.88,12.38,8.38,-7.06,0.75,-0.33,1.44
9.00,0.00,232.19,4.88,-93.94,4.00,6.25,3.31,-0.54,1.46
9.00,1.00,265.19,0.44,-73.12,-1.50,1.19,-1.00,-0.54,1.46
9.00,2.00,287.06,-20.69,12.06,15.12,-10.81,1.31,-0.54,1.46
9.00,0.00,231.94,5.00,-94.00,4.94,7.38,4.50,-0.72,1.48
9.00,1.00,265.19,0.44,-73.12,-0.19,1.50,-0.69,-0.72,1.48
9.00,2.00,287.06,-20.56,11.69,14.12,-12.25,4.81,-0.72,1.48
9.00,0.00,231.62,5.12,-94.12,7.75,11.06,6.81,-0.69,1.50
9.00,1.00,265.12,0.44,-73.12,-0.62,2.00,1.44,-0.69,1.50
9.00,2.00,286.88,-20.38,11.44,6.38,-10.06,8.44,-0.69,1.50
9.00,0.00,231.12,5.31,-94.31,14.69,14.81,8.62,-0.51,1.52
9.00,1.00,265.12,0.44,-73.12,-1.62,1.69,1.75,-0.51,1.52
9.00,2.00,286.75,-20.25,11.31,4.94,-8.44,7.56,-0.51,1.52
9.00,0.00,230.56,5.50,-94.69,22.62,15.06,8.88,-0.26,1.54
9.00,1.00,265.06,0.44,-73.12,3.62,-1.19,0.19,-0.26,1.54
9.00,2.00,286.62,-20.12,11.06,9.88,-8.81,5.62,-0.26,1.54
9.00,0.00,230.00,5.69,-95.25,31.56,13.19,10.94,0.05,1.56
9.00,1.00,265.19,0.44,-73.31,9.31,-4.56,-1.50,0.05,1.56
9.00,2.00,286.56,-20.00,10.75,15.44,-6.69,4.12,0.05,1.56
9.00,0.00,229.25,5.94,-96.00,41.25,13.50,10.94,0.46,1.58
9.00,1.00,265.25,0.44,-73.38,10.50,-5.38,-2.44,0.46,1.58
9.00,2.00,286.56,-19.94,10.38,19.94,-4.19,4.88,0.46,1.58
9.00,0.00,228.56,6.19,-96.88,51.19,16.12,11.38,1.03,1.60
9.00,1.00,265.44,0.38,-73.69,10.44,-5.19,-4.44,1.03,1.60
9.00,2.00,286.50,-19.88,9.94,21.62,-3.19,5.56,1.03,1.60
9.00,0.00,227.88,6.44,-98.00,60.44,16.88,10.00,1.76,1.62
9.00,1.00,265.56,0.38,-73.81,10.00,-4.50,-4.62,1.76,1.62
9.00,2.00,286.44,-19.81,9.44,22.06,-4.31,6.31,1.76,1.62
9.00,0.00,227.25,6.69,-99.25,68.88,11.88,9.94,2.67,1.64
9.00,1.00,265.69,0.31,-73.94,9.50,-4.00,-4.19,2.67,1.64
9.00,2.00,286.38,-19.75,8.94,21.50,-4.31,6.31,2.67,1.64
9.00,0.00,226.69,6.88,-100.69,76.31,5.38,9.50,3.75,1.66
9.00,1.00,265.81,0.25,-74.12,9.81,-3.50,-3.62,3.75,1.66
9.00,2.00,286.31,-19.69,8.50,20.44,-6.00,6.75,3.75,1.66
9.00,0.00,226.75,7.06,-102.25,82.06,-1.62,8.12,4.94,1.68
9.00,1.00,265.94,0.19,-74.31,9.94,-3.56,-3.81,4.94,1.68
9.00,2.00,286.25,-19.56,8.06,19.94,-6.38,6.56,4.94,1.68
9.00,0.00,226.56,7.12,-103.94,88.81,-10.81,5.12,6.26,1.70
9.00,1.00,266.06,0.12,-74.56,12.38,-4.69,-3.50,6.26,1.70
9.00,2.00,286.19,-19.44,7.62,20.25,-7.31,6.62,6.26,1.70
9.00,0.00,226.56,7.12,-105.81,94.06,-16.50,3.38,7.66,1.72
9.00,1.00,266.25,0.12,-74.81,12.69,-4.50,-3.31,7.66,1.72
9.00,2.00,286.12,-19.31,7.19,21.25,-6.31,5.88,7.66,1.72
9.00,0.00,226.69,7.00,-107.69,95.06,-19.50,0.06,9.11,1.74
9.00,1.00,266.31,0.06,-75.06,12.12,-2.69,-3.44,9.11,1.74
9.00,2.00,286.06,-19.25,6.75,19.50,-6.56,6.00,9.11,1.74
9.00,0.00,227.00,6.88,-109.62,96.88,-22.94,-1.56,10.65,1.76
9.00,1.00,266.44,0.00,-75.25,10.81,-1.00,-3.00,10.65,1.76
9.00,2.00,286.00,-19.06,6.38,16.69,-8.75,7.19,10.65,1.76
9.00,0.00,227.25,6.69,-111.50,96.69,-20.44,-1.50,12.23,1.78
9.00,1.00,266.50,0.00,-75.50,10.44,-1.31,-2.94,12.23,1.78
9.00,2.00,285.88,-18.94,6.00,14.56,-10.00,7.44,12.23,1.78
9.00,0.00,227.50,6.50,-113.44,95.56,-18.56,-2.00,13.81,1.80
9.00,1.00,266.56,0.00,-75.69,10.56,-1.81,-2.50,13.81,1.80
9.00,2.00,285.75,-18.75,5.69,13.00,-10.69,7.31,13.81,1.80
9.00,0.00,227.69,6.38,-115.25,94.25,-15.44,-1.81,15.36,1.82
9.00,1.00,266.62,-0.06,-75.88,9.44,-0.94,-1.94,15.36,1.82
9.00,2.00,285.62,-18.56,5.31,13.75,-11.00,8.56,15.36,1.82
9.00,0.00,227.81,6.19,-117.19,96.69,-15.25,0.50,16.96,1.84
9.00,1.00,266.69,-0.06,-76.06,9.62,-0.75,-1.31,16.96,1.84
9.00,2.00,285.50,-18.31,5.00,13.12,-11.62,8.94,16.96,1.84
9.00,0.00,227.88,6.06,-119.06,95.00,-14.19,-0.12,18.56,1.86
9.00,1.00,266.69,-0.06,-76.25,9.38,-1.00,-0.94,18.56,1.86
9.00,2.00,285.38,-18.12,4.69,11.88,-12.56,8.81,18.56,1.86
9.00,0.00,228.00,5.94,-120.88,91.88,-13.81,-1.62,20.10,1.88
9.00,1.00,266.75,-0.06,-76.44,9.81,-2.00,-0.88,20.10,1.88
9.00,2.00,285.25,-17.88,4.38,11.69,-12.12,7.50,20.10,1.88
9.00,0.00,228.06,5.75,-122.62,88.19,-10.88,-1.69,21.56,1.90
9.00,1.00,266.81,-0.12,-76.62,10.31,-2.50,-1.38,21.56,1.90
9.00,2.00,285.12,-17.69,4.06,12.12,-10.12,7.06,21.56,1.90
9.00,0.00,228.00,5.69,-124.31,85.75,-7.69,-1.06,23.04,1.92
9.00,1.00,266.88,-0.12,-76.81,9.44,-1.31,-1.31,23.04,1.92
9.00,2.00,285.00,-17.50,3.88,8.69,-11.38,6.50,23.04,1.92
9.00,0.00,227.88,5.62,-125.94,84.50,-5.88,0.31,24.54,1.94
9.00,1.00,266.94,-0.12,-77.00,9.06,-1.62,-1.00,24.54,1.94
9.00,2.00,284.88,-17.31,3.69,6.56,-11.75,7.69,24.54,1.94
9.00,0.00,227.62,5.56,-127.56,81.19,-5.12,1.12,26.04,1.96
9.00,1.00,266.94,-0.12,-77.12,8.31,-2.06,-0.88,26.04,1.96
9.00,2.00,284.75,-17.06,3.56,3.19,-10.38,6.69,26.04,1.96
9.00,0.00,227.50,5.50,-129.06,77.06,-5.38,0.06,27.46,1.98
9.00,1.00,267.00,-0.12,-77.31,6.44,-2.06,-0.81,27.46,1.98
9.00,2.00,284.62,-16.94,3.44,3.06,-8.44,5.06,27.46,1.98
9.00,0.00,227.38,5.44,-130.50,74.50,-6.31,0.12,28.82,2.00
9.00,1.00,267.06,-0.19,-77.38,5.12,-2.25,-0.94,28.82,2.00
9.00,2.00,284.56,-16.81,3.31,3.88,-6.56,4.69,28.82,2.00
9.00,0.00,227.25,5.31,-131.94,72.94,-6.62,1.38,30.12,2.02
9.00,1.00,267.12,-0.19,-77.50,4.50,-2.88,-1.31,30.12,2.02
9.00,2.00,284.44,-16.69,3.19,5.25,-7.06,5.25,30.12,2.02
9.00,0.00,227.06,5.25,-133.38,71.31,-6.38,1.00,31.40,2.04
9.00,1.00,267.25,-0.19,-77.56,4.81,-4.44,-1.88,31.40,2.04
9.00,2.00,284.38,-16.50,3.06,4.56,-7.69,3.94,31.40,2.04
9.00,0.00,227.06,5.19,-134.69,69.31,-8.06,-0.81,32.65,2.06
9.00,1.00,267.38,-0.25,-77.69,6.62,-4.62,-1.81,32.65,2.06
9.00,2.00,284.31,-16.38,2.94,4.25,-7.88,2.94,32.65,2.06
9.00,0.00,61.62,5.06,-136.06,67.06,-8.25,-0.75,33.83,2.08
9.00,1.00,267.50,-0.25,-77.81,4.50,-5.94,-1.31,33.83,2.08
9.00,2.00,284.25,-16.25,2.81,5.56,-7.25,3.88,33.83,2.08
9.00,0.00,61.62,4.88,-137.31,65.00,-8.81,-1.19,34.97,2.10
9.00,1.00,267.62,-0.25,-77.88,4.19,-5.06,-1.19,34.97,2.10
9.00,2.00,284.19,-16.12,2.69,6.06,-7.19,4.69,34.97,2.10
9.00,0.00,61.56,4.75,-138.56,63.06,-10.31,-1.50,36.07,2.12
9.00,1.00,267.69,-0.25,-77.94,3.12,-4.62,-0.88,36.07,2.12
9.00,2.00,284.19,-16.06,2.56,5.50,-6.62,4.56,36.07,2.12
9.00,0.00,62.00,4.56,-139.75,61.62,-10.06,-1.38,37.17,2.14
9.00,1.00,267.81,-0.25,-78.00,2.12,-4.12,-1.38,37.17,2.14
9.00,2.00,284.06,-15.88,2.38,4.62,-5.44,4.25,37.17,2.14
9.00,0.00,61.94,4.38,-140.94,61.38,-12.19,-2.50,38.28,2.16
9.00,1.00,267.88,-0.25,-78.06,2.38,-5.19,-0.81,38.28,2.16
9.00,2.00,284.00,-15.81,2.25,3.56,-5.94,2.94,38.28,2.16
9.00,0.00,62.44,4.12,-142.12,61.00,-12.62,-3.19,39.38,2.18
9.00,1.00,267.94,-0.25,-78.06,1.31,-4.94,-0.06,39.38,2.18
9.00,2.00,283.94,-15.69,2.19,3.44,-5.50,4.06,39.38,2.18
9.00,0.00,62.38,3.88,-143.31,59.06,-13.19,-4.81,40.43,2.20
9.00,1.00,268.00,-0.19,-78.06,1.12,-4.38,0.62,40.43,2.20
9.00,2.00,283.81,-15.56,2.06,4.38,-6.31,5.62,40.43,2.20
9.00,0.00,62.31,3.62,-144.44,58.31,-12.62,-4.94,41.48,2.22
9.00,1.00,268.06,-0.19,-78.12,1.69,-3.88,0.88,41.48,2.22
9.00,2.00,283.75,-15.50,2.00,3.88,-6.75,5.56,41.48,2.22
9.00,0.00,62.56,3.44,-145.56,58.75,-9.62,-3.88,42.51,2.24
9.00,1.00,268.12,-0.19,-78.12,1.50,-2.62,0.38,42.51,2.24
9.00,2.00,283.62,-15.31,1.81,5.31,-6.12,5.44,42.51,2.24
9.00,0.00,62.50,3.25,-146.75,59.12,-7.31,-3.81,43.48,2.26
9.00,1.00,268.19,-0.12,-78.19,3.12,-3.12,0.00,43.48,2.26
9.00,2.00,283.50,-15.19,1.62,8.69,-6.00,6.81,43.48,2.26
9.00,0.00,62.62,3.12,-147.88,59.38,-4.38,-3.25,44.43,2.28
9.00,1.00,268.25,-0.12,-78.31,4.62,-4.94,0.06,44.43,2.28
9.00,2.00,283.44,-15.12,1.38,9.81,-5.81,6.69,44.43,2.28
9.00,0.00,62.50,3.12,-149.00,59.44,0.75,-2.31,45.37,2.30
9.00,1.00,268.31,-0.12,-78.38,4.75,-4.06,0.62,45.37,2.30
9.00,2.00,283.31,-15.00,1.12,10.50,-4.69,8.44,45.37,2.30
9.00,0.00,62.44,3.12,-150.19,59.06,2.94,-2.19,46.32,2.32
9.00,1.00,268.31,-0.06,-78.44,3.56,-2.94,1.38,46.32,2.32
9.00,2.00,283.12,-14.88,0.94,9.69,-7.12,9.31,46.32,2.32
9.00,0.00,62.38,3.19,-150.75,58.44,6.50,-1.81,47.25,2.34
9.00,1.00,268.31,0.00,-78.50,2.31,-1.56,2.38,47.25,2.34
9.00,2.00,282.94,-14.75,0.62,10.00,-6.88,10.75,47.25,2.34
9.00,0.00,62.31,3.31,-151.81,57.44,10.25,-1.38,48.13,2.36
9.00,1.00,268.25,0.00,-78.56,2.44,-1.44,3.12,48.13,2.36
9.00,2.00,282.75,-14.62,0.38,11.62,-6.88,12.19,48.13,2.36
9.00,0.00,62.19,3.44,-152.94,56.69,10.56,-0.88,49.03,2.38
9.00,1.00,268.25,0.06,-78.62,4.00,-1.75,2.94,49.03,2.38
9.00,2.00,282.56,-14.44,0.12,9.88,-9.75,10.81,49.03,2.38
9.00,0.00,62.06,3.62,-154.06,56.38,12.56,-1.62,49.90,2.40
9.00,1.00,268.19,0.12,-78.69,3.88,0.94,2.75,49.90,2.40
9.00,2.00,282.38,-14.25,-0.12,11.06,-9.12,10.62,49.90,2.40
9.00,0.00,61.94,3.81,-155.12,55.62,11.81,-1.69,50.71,2.42
9.00,1.00,268.12,0.12,-78.81,5.69,-2.81,2.62,50.71,2.42
9.00,2.00,282.19,-14.12,-0.44,13.56,-7.81,11.62,50.71,2.42
9.00,0.00,61.81,4.06,-156.19,54.31,10.44,-1.81,51.49,2.44
9.00,1.00,268.19,0.25,-78.94,6.19,-4.69,3.38,51.49,2.44
9.00,2.00,282.00,-13.94,-0.75,13.44,-9.31,11.94,51.49,2.44
9.00,0.00,61.69,4.19,-157.19,52.38,10.62,-2.94,52.30,2.46
9.00,1.00,268.12,0.31,-79.00,2.75,-0.31,3.75,52.30,2.46
9.00,2.00,281.81,-13.75,-1.00,10.12,-9.69,11.50,52.30,2.46
9.00,0.00,61.56,4.38,-158.19,50.44,10.69,-3.94,53.10,2.48
9.00,1.00,268.00,0.38,-79.00,0.62,1.19,3.19,53.10,2.48
9.00,2.00,281.56,-13.56,-1.25,9.12,-9.44,11.44,53.10,2.48
9.00,0.00,61.44,4.50,-159.19,47.50,9.75,-4.25,53.83,2.50
9.00,1.00,267.94,0.44,-79.06,1.50,0.75,2.75,53.83,2.50
9.00,2.00,281.38,-13.38,-1.50,9.50,-10.00,11.62,53.83,2.50
9.00,0.00,61.25,4.69,-160.06,43.75,9.12,-4.69,54.52,2.52
9.00,1.00,267.94,0.44,-79.06,2.56,-2.50,2.81,54.52,2.52
9.00,2.00,281.19,-13.19,-1.75,7.44,-9.38,10.62,54.52,2.52
9.00,0.00,61.06,4.81,-160.88,42.19,9.88,-4.81,55.24,2.54
9.00,1.00,267.94,0.50,-79.12,0.56,-1.94,2.56,55.24,2.54
9.00,2.00,281.00,-13.00,-1.94,4.94,-8.00,10.81,55.24,2.54
9.00,0.00,60.94,5.00,-161.62,35.06,10.25,-5.38,55.83,2.56
9.00,1.00,267.88,0.56,-79.12,-2.00,0.38,2.56,55.83,2.56
9.00,2.00,280.81,-12.88,-2.06,4.50,-5.56,11.69,55.83,2.56
9.00,0.00,60.75,5.12,-162.25,32.19,10.31,-5.31,56.40,2.58
9.00,1.00,267.81,0.62,-79.06,-2.75,0.69,3.06,56.40,2.58
9.00,2.00,280.69,-12.81,-2.19,2.19,-5.69,10.88,56.40,2.58
9.00,0.00,60.56,5.31,-162.81,25.25,10.94,-5.31,56.89,2.60
9.00,1.00,267.75,0.69,-79.00,-4.19,1.88,3.06,56.89,2.60
9.00,2.00,280.38,-12.62,-2.38,-0.12,-3.88,10.00,56.89,2.60
9.00,0.00,60.44,5.50,-163.25,20.62,11.44,-3.81,57.33,2.62
9.00,1.00,267.62,0.75,-78.88,-7.38,2.31,3.31,57.33,2.62
9.00,2.00,280.12,-12.56,-2.50,-2.19,-2.12,11.06,57.33,2.62
9.00,0.00,60.31,5.69,-163.56,17.19,11.62,-3.06,57.72,2.64
9.00,1.00,267.50,0.81,-78.75,-9.94,5.00,3.88,57.72,2.64
9.00,2.00,279.88,-12.50,-2.62,-3.06,-1.38,11.38,57.72,2.64
9.00,0.00,60.25,5.88,-163.81,9.75,10.88,-1.56,57.99,2.66
9.00,1.00,267.31,0.88,-78.50,-14.06,7.88,4.31,57.99,2.66
9.00,2.00,279.69,-12.44,-2.75,-4.50,-0.25,10.62,57.99,2.66
9.00,0.00,60.19,6.12,-163.88,3.00,11.69,0.19,58.23,2.68
9.00,1.00,267.00,0.88,-78.19,-17.44,12.81,4.12,58.23,2.68
9.00,2.00,279.56,-12.38,-2.81,-9.25,-0.94,10.75,58.23,2.68
9.00,0.00,60.19,6.38,-163.88,-3.88,14.62,0.88,58.38,2.70
9.00,1.00,266.75,0.94,-77.88,-18.19,13.06,3.81,58.38,2.70
9.00,2.00,279.25,-12.31,-2.56,-12.06,-2.81,8.50,58.38,2.70
9.00,0.00,60.19,6.62,-163.69,-9.50,13.88,1.19,58.47,2.72
9.00,1.00,266.50,0.94,-77.50,-18.19,11.75,4.06,58.47,2.72
9.00,2.00,279.06,-12.25,-2.31,-14.12,-1.75,4.75,58.47,2.72
9.00,0.00,60.19,6.88,-163.44,-13.81,12.69,1.00,58.53,2.74
9.00,1.00,266.25,1.00,-77.12,-20.50,11.56,3.38,58.53,2.74
9.00,2.00,279.06,-12.25,-2.19,-16.69,-0.44,3.88,58.53,2.74
9.00,0.00,60.19,7.06,-163.06,-18.69,10.94,-0.44,58.53,2.76
9.00,1.00,266.00,0.94,-76.69,-21.62,9.81,2.69,58.53,2.76
9.00,2.00,278.88,-12.25,-1.69,-18.81,1.19,3.12,58.53,2.76
9.00,0.00,60.12,7.25,-162.62,-24.00,7.69,-2.19,58.46,2.78
9.00,1.00,265.88,1.00,-76.31,-20.31,8.19,2.44,58.46,2.78
9.00,2.00,278.81,-12.31,-1.50,-20.38,1.50,2.31,58.46,2.78
9.00,0.00,60.06,7.25,-161.94,-29.75,4.38,-4.12,58.31,2.80
9.00,1.00,265.69,1.00,-75.88,-21.75,9.50,2.56,58.31,2.80
9.00,2.00,278.69,-12.38,-0.94,-22.06,4.19,1.88,58.31,2.80
9.00,0.00,60.00,7.19,-161.25,-34.56,0.25,-5.50,58.11,2.82
9.00,1.00,265.50,1.00,-75.50,-22.81,11.12,2.12,58.11,2.82
9.00,2.00,278.62,-12.44,-0.56,-23.81,7.88,0.00,58.11,2.82
9.00,0.00,59.94,7.00,-160.50,-35.69,-3.94,-5.19,57.98,2.84
9.00,1.00,265.25,0.94,-75.00,-24.88,13.38,1.62,57.98,2.84
9.00,2.00,278.62,-12.56,-0.31,-29.06,12.06,-1.81,57.98,2.84
9.00,0.00,59.88,6.81,-159.81,-36.50,-7.88,-5.56,57.91,2.86
9.00,1.00,265.00,0.88,-74.50,-26.19,14.75,1.25,57.91,2.86
9.00,2.00,278.56,-12.88,0.50,-32.69,11.56,-1.56,57.91,2.86
9.00,0.00,59.81,6.56,-159.00,-41.00,-11.25,-7.81,57.70,2.88
9.00,1.00,264.81,0.81,-74.00,-25.38,12.94,0.81,57.70,2.88
9.00,2.00,278.56,-13.00,0.81,-30.00,12.00,-0.88,57.70,2.88
9.00,0.00,59.75,6.25,-158.12,-46.12,-13.81,-9.69,57.37,2.90
9.00,1.00,264.62,0.75,-73.50,-24.25,12.56,0.06,57.37,2.90
9.00,2.00,278.44,-13.38,1.69,-28.94,15.06,-1.00,57.37,2.90
9.00,0.00,59.62,5.94,-157.19,-48.31,-13.75,-11.12,57.02,2.92
9.00,1.00,264.50,0.69,-73.06,-23.88,12.38,-1.38,57.02,2.92
9.00,2.00,278.44,-13.69,2.25,-30.50,14.75,-1.94,57.02,2.92
9.00,0.00,59.25,5.62,-156.25,-48.38,-13.81,-12.00,56.68,2.94
9.00,1.00,264.38,0.56,-72.62,-23.19,10.62,-2.69,56.68,2.94
9.00,2.00,278.44,-13.81,2.56,-30.69,15.75,-2.62,56.68,2.94
9.00,0.00,59.12,5.25,-155.31,-48.19,-14.75,-12.00,56.29,2.96
9.00,1.00,264.31,0.44,-72.12,-23.19,9.75,-3.38,56.29,2.96
9.00,2.00,278.38,-14.25,3.44,-27.75,16.75,-1.06,56.29,2.96
9.00,0.00,59.00,4.88,-154.38,-45.88,-15.44,-10.62,55.96,2.98
9.00,1.00,264.25,0.31,-71.69,-22.81,10.81,-3.31,55.96,2.98
9.00,2.00,278.38,-14.44,3.69,-28.56,16.12,-1.19,55.96,2.98
9.00,0.00,58.88,4.56,-153.50,-45.06,-14.50,-9.81,55.62,3.00
9.00,1.00,264.12,0.19,-71.31,-21.19,9.81,-2.56,55.62,3.00
9.00,2.00,278.31,-14.88,4.56,-27.31,14.06,-1.31,55.62,3.00
9.00,0.00,58.75,4.19,-152.62,-47.62,-13.38,-11.50,55.13,3.02
9.00,1.00,264.06,0.12,-70.94,-18.19,8.81,-2.19,55.13,3.02
9.00,2.00,278.25,-15.12,5.00,-22.50,13.75,-0.75,55.13,3.02
9.00,0.00,58.56,3.88,-151.62,-49.50,-11.19,-12.12,54.55,3.04
9.00,1.00,264.00,0.00,-70.56,-15.69,5.75,-2.31,54.55,3.04
9.00,2.00,278.25,-15.25,5.25,-19.19,13.19,-0.56,54.55,3.04
9.00,0.00,58.50,3.69,-150.69,-47.06,-7.19,-8.25,54.02,3.06
9.00,1.00,264.06,-0.06,-70.25,-13.69,3.88,-2.38,54.02,3.06
9.00,2.00,278.25,-15.62,5.81,-19.50,11.94,-1.56,54.02,3.06
9.00,0.00,58.44,3.56,-149.81,-44.75,-3.94,-4.56,53.53,3.08
9.00,1.00,264.06,-0.12,-69.94,-15.69,4.00,-1.56,53.53,3.08
9.00,2.00,278.25,-15.75,6.00,-19.06,10.31,-2.44,53.53,3.08
9.00,0.00,58.31,3.50,-149.00,-43.31,-2.44,-3.31,53.02,3.10
9.00,1.00,264.00,-0.19,-69.62,-17.44,5.44,-1.12,53.02,3.10
9.00,2.00,278.25,-15.94,6.44,-16.62,10.56,-1.88,53.02,3.10
9.00,0.00,58.31,3.44,-148.19,-42.94,-1.25,-3.56,52.47,3.12
9.00,1.00,263.94,-0.25,-69.25,-15.50,5.00,-1.75,52.47,3.12
9.00,2.00,278.25,-16.19,6.94,-14.56,8.50,-1.81,52.47,3.12
9.00,0.00,58.25,3.44,-147.38,-43.00,0.81,-4.25,51.86,3.14
9.00,1.00,264.00,-0.38,-69.00,-11.06,2.25,-1.56,51.86,3.14
9.00,2.00,278.25,-16.31,7.06,-11.12,8.56,-1.69,51.86,3.14
9.00,0.00,58.25,3.38,-146.56,-38.19,-1.44,-1.75,51.34,3.16
9.00,1.00,264.00,-0.38,-68.81,-9.38,1.12,-1.88,51.34,3.16
9.00,2.00,278.25,-16.50,7.38,-11.19,8.31,-2.25,51.34,3.16
9.00,0.00,58.31,3.38,-145.94,-33.81,-0.06,1.88,50.91,3.18
9.00,1.00,264.00,-0.44,-68.62,-10.88,1.50,-1.94,50.91,3.18
9.00,2.00,278.31,-16.62,7.50,-11.62,7.62,-3.19,50.91,3.18
9.00,0.00,58.44,3.44,-145.25,-33.06,-1.25,2.69,50.51,3.20
9.00,1.00,264.00,-0.50,-68.38,-12.44,2.81,-1.81,50.51,3.20
9.00,2.00,278.38,-16.81,7.94,-12.00,8.38,-4.19,50.51,3.20
9.00,0.00,58.50,3.44,-144.62,-31.81,-2.06,3.38,50.15,3.22
9.00,1.00,264.00,-0.56,-68.12,-12.50,3.50,-1.62,50.15,3.22
9.00,2.00,278.44,-16.94,8.19,-13.25,7.75,-3.19,50.15,3.22
9.00,0.00,58.62,3.44,-144.06,-29.94,-1.44,4.69,49.80,3.24
9.00,1.00,264.00,-0.62,-67.88,-10.50,2.50,-1.81,49.80,3.24
9.00,2.00,278.44,-17.00,8.38,-11.56,6.56,-2.88,49.80,3.24
9.00,0.00,58.81,3.50,-143.50,-28.19,-1.75,5.25,49.45,3.26
9.00,1.00,264.00,-0.62,-67.69,-9.12,1.44,-1.88,49.45,3.26
9.00,2.00,278.50,-17.12,8.62,-10.00,6.31,-4.69,49.45,3.26
9.00,0.00,58.94,3.50,-143.00,-27.12,-3.12,4.12,49.13,3.28
9.00,1.00,264.06,-0.69,-67.62,-9.94,0.50,-2.56,49.13,3.28
9.00,2.00,278.56,-17.25,8.81,-10.31,6.50,-6.88,49.13,3.28
9.00,0.00,59.38,3.50,-142.50,-25.06,-3.19,4.69,48.83,3.30
9.00,1.00,264.12,-0.75,-67.31,-9.88,-1.00,-2.81,48.83,3.30
9.00,2.00,278.69,-17.31,9.12,-9.56,4.62,-7.56,48.83,3.30
9.00,0.00,59.50,3.50,-142.06,-24.50,-3.25,4.25,48.52,3.32
9.00,1.00,264.25,-0.81,-67.06,-8.88,-2.50,-2.62,48.52,3.32
9.00,2.00,278.81,-17.38,9.44,-8.25,3.62,-8.12,48.52,3.32
9.00,0.00,59.81,3.44,-141.56,-24.94,-4.62,3.19,48.14,3.34
9.00,1.00,264.25,-0.88,-67.00,-7.62,-3.19,-2.50,48.14,3.34
9.00,2.00,278.94,-17.44,9.62,-5.50,3.50,-7.69,48.14,3.34
9.00,0.00,59.88,3.44,-141.06,-25.44,-4.31,2.44,47.75,3.36
9.00,1.00,264.38,-0.88,-66.81,-6.38,-3.62,-2.44,47.75,3.36
9.00,2.00,279.12,-17.50,9.81,-5.06,3.81,-7.38,47.75,3.36
9.00,0.00,60.00,3.44,-140.56,-24.56,-3.12,2.50,47.40,3.38
9.00,1.00,264.44,-0.88,-66.69,-6.19,-3.81,-2.50,47.40,3.38
9.00,2.00,279.25,-17.56,10.00,-6.19,5.12,-7.06,47.40,3.38
9.00,0.00,60.25,3.44,-140.12,-24.12,-2.25,2.50,47.05,3.40
9.00,1.00,264.56,-0.94,-66.50,-5.88,-3.50,-2.69,47.05,3.40
9.00,2.00,279.38,-17.62,10.19,-5.75,5.12,-7.38,47.05,3.40
9.00,0.00,60.31,3.44,-139.62,-24.69,-1.12,2.75,46.65,3.42
9.00,1.00,264.69,-0.94,-66.38,-6.12,-3.06,-2.12,46.65,3.42
9.00,2.00,279.50,-17.69,10.31,-4.00,5.25,-6.44,46.65,3.42
9.00,0.00,60.75,3.50,-139.12,-25.62,1.81,2.75,46.23,3.44
9.00,1.00,264.75,-0.94,-66.25,-5.81,-2.50,-2.06,46.23,3.44
9.00,2.00,279.62,-17.81,10.44,-4.06,5.62,-5.44,46.23,3.44
9.00,0.00,60.81,3.56,-138.69,-25.56,2.88,2.44,45.83,3.46
9.00,1.00,264.81,-1.00,-66.12,-7.12,-1.56,-1.88,45.83,3.46
9.00,2.00,279.69,-17.88,10.56,-4.62,6.56,-5.44,45.83,3.46
9.00,0.00,60.81,3.62,-138.19,-26.88,4.38,0.75,45.39,3.48
9.00,1.00,264.88,-1.00,-66.00,-7.25,-1.25,-1.88,45.39,3.48
9.00,2.00,279.81,-18.00,10.69,-3.69,6.75,-3.62,45.39,3.48
9.00,0.00,61.06,3.69,-137.69,-26.25,5.06,0.69,44.97,3.50
9.00,1.00,264.88,-1.00,-65.88,-8.19,-0.25,-0.94,44.97,3.50
9.00,2.00,279.88,-18.12,10.81,-4.56,7.25,-2.00,44.97,3.50
9.00,0.00,61.06,3.81,-137.25,-24.19,5.94,1.38,44.63,3.52
9.00,1.00,264.88,-1.00,-65.69,-8.81,0.88,-1.38,44.63,3.52
9.00,2.00,279.88,-18.25,10.88,-6.38,6.81,-1.25,44.63,3.52
9.00,0.00,61.31,3.88,-136.81,-23.44,6.44,1.12,44.30,3.54
9.00,1.00,264.88,-1.06,-65.50,-8.62,1.31,-1.56,44.30,3.54
9.00,2.00,279.94,-18.38,11.06,-6.56,7.19,-1.25,44.30,3.54
9.00,0.00,61.31,4.00,-136.38,-23.25,5.44,0.50,43.96,3.56
9.00,1.00,264.94,-1.12,-65.38,-6.38,2.00,-1.38,43.96,3.56
9.00,2.00,279.94,-18.50,11.19,-5.44,7.38,-0.75,43.96,3.56
9.00,0.00,61.25,4.06,-135.94,-23.00,4.88,0.06,43.61,3.58
9.00,1.00,264.94,-1.12,-65.25,-5.81,2.25,-1.25,43.61,3.58
9.00,2.00,279.94,-18.62,11.31,-4.75,7.31,0.00,43.61,3.58
9.00,0.00,61.56,4.12,-135.44,-22.94,5.12,-0.06,43.27,3.60
9.00,1.00,264.94,-1.19,-65.12,-6.44,3.31,-0.44,43.27,3.60
9.00,2.00,279.94,-18.81,11.38,-5.25,6.75,1.56,43.27,3.60
9.00,0.00,229.56,4.19,-135.00,-23.75,5.25,-0.12,42.93,3.62
9.00,1.00,264.88,-1.19,-65.00,-7.25,4.19,0.19,42.93,3.62
9.00,2.00,279.88,-18.94,11.44,-5.94,6.38,1.88,42.93,3.62
9.00,0.00,229.75,4.31,-134.56,-24.69,6.69,-1.25,42.57,3.64
9.00,1.00,264.81,-1.25,-64.88,-7.50,4.31,0.44,42.57,3.64
9.00,2.00,279.81,-19.06,11.56,-6.00,6.12,2.25,42.57,3.64
9.00,0.00,229.56,4.38,-134.06,-25.56,7.31,-2.12,42.18,3.66
9.00,1.00,264.75,-1.25,-64.75,-7.12,4.94,0.69,42.18,3.66
9.00,2.00,279.81,-19.19,11.69,-5.50,6.12,2.50,42.18,3.66
9.00,0.00,229.38,4.44,-133.56,-24.19,7.44,-1.38,41.81,3.68
9.00,1.00,264.69,-1.31,-64.62,-7.19,4.75,0.62,41.81,3.68
9.00,2.00,279.75,-19.31,11.75,-4.69,6.81,2.75,41.81,3.68
9.00,0.00,229.44,4.56,-133.12,-21.94,7.75,-0.50,41.48,3.70
9.00,1.00,264.56,-1.31,-64.44,-7.19,5.06,1.06,41.48,3.70
9.00,2.00,279.69,-19.44,11.81,-5.00,7.06,2.56,41.48,3.70
9.00,0.00,229.19,4.69,-132.75,-21.94,8.12,-0.62,41.16,3.72
9.00,1.00,264.50,-1.38,-64.31,-7.81,4.94,0.81,41.16,3.72
9.00,2.00,279.62,-19.56,11.94,-5.12,7.38,1.94,41.16,3.72
9.00,0.00,229.25,4.75,-132.25,-23.25,9.50,-1.75,40.82,3.74
9.00,1.00,264.44,-1.38,-64.19,-8.25,5.19,0.31,40.82,3.74
9.00,2.00,279.56,-19.69,12.00,-5.75,7.25,1.75,40.82,3.74
9.00,0.00,229.00,4.88,-131.81,-22.81,9.81,-1.88,40.49,3.76
9.00,1.00,264.38,-1.44,-64.00,-8.38,5.19,0.00,40.49,3.76
9.00,2.00,279.56,-19.88,12.12,-5.31,7.06,1.88,40.49,3.76
9.00,0.00,228.62,5.00,-131.38,-20.81,10.75,-1.12,40.19,3.78
9.00,1.00,264.31,-1.50,-63.88,-8.00,5.12,-0.12,40.19,3.78
9.00,2.00,279.50,-20.00,12.19,-5.38,7.00,2.38,40.19,3.78
9.00,0.00,228.56,5.12,-131.06,-18.94,10.56,-0.69,39.96,3.80
9.00,1.00,264.25,-1.50,-63.69,-8.62,5.38,0.38,39.96,3.80
9.00,2.00,279.44,-20.12,12.25,-7.06,6.19,3.00,39.96,3.80
9.00,0.00,228.19,5.25,-130.69,-18.38,10.44,-1.06,39.76,3.82
9.00,1.00,264.19,-1.56,-63.56,-8.88,5.88,0.25,39.76,3.82
9.00,2.00,279.38,-20.25,12.38,-7.81,5.69,2.69,39.76,3.82
9.00,0.00,228.06,5.31,-130.50,-18.12,10.12,-1.88,39.55,3.84
9.00,1.00,264.12,-1.62,-63.38,-8.25,5.12,-0.19,39.55,3.84
9.00,2.00,279.31,-20.38,12.56,-6.94,5.25,2.12,39.55,3.84
9.00,0.00,228.06,5.44,-130.00,-17.06,9.44,-1.69,39.33,3.86
9.00,1.00,264.06,-1.69,-63.25,-8.00,4.56,-0.44,39.33,3.86
9.00,2.00,279.25,-20.50,12.69,-5.75,5.94,2.12,39.33,3.86
9.00,0.00,227.81,5.50,-129.69,-14.50,8.56,-1.38,39.19,3.88
9.00,1.00,264.00,-1.69,-63.06,-8.06,5.06,0.06,39.19,3.88
9.00,2.00,279.19,-20.62,12.75,-7.19,5.69,2.31,39.19,3.88
9.00,0.00,228.12,5.56,-129.56,-12.88,6.50,-1.56,39.11,3.90
9.00,1.00,263.94,-1.75,-62.94,-9.06,5.62,0.25,39.11,3.90
9.00,2.00,279.12,-20.75,12.88,-8.81,5.31,2.00,39.11,3.90
9.00,0.00,228.00,5.56,-129.31,-12.88,5.38,-2.12,39.03,3.92
9.00,1.00,263.81,-1.81,-62.75,-9.69,5.94,0.56,39.03,3.92
9.00,2.00,279.06,-20.81,13.06,-8.50,5.38,1.94,39.03,3.92
9.00,0.00,227.88,5.62,-129.06,-14.06,4.31,-4.06,38.91,3.94
9.00,1.00,263.75,-1.88,-62.56,-9.69,5.44,0.81,38.91,3.94
9.00,2.00,279.00,-20.94,13.19,-7.94,4.50,2.31,38.91,3.94
9.00,0.00,228.06,5.56,-128.81,-13.31,3.12,-4.69,38.80,3.96
9.00,1.00,263.69,-1.88,-62.38,-8.94,4.94,0.75,38.80,3.96
9.00,2.00,278.94,-21.06,13.31,-7.81,4.06,1.88,38.80,3.96
9.00,0.00,228.12,5.56,-128.56,-11.31,2.19,-4.50,38.73,3.98
9.00,1.00,263.62,-1.94,-62.19,-8.19,4.50,0.38,38.73,3.98
9.00,2.00,278.88,-21.12,13.50,-7.81,4.19,1.56,38.73,3.98
9.00,0.00,228.62,5.50,-128.31,-10.69,1.44,-4.62,38.66,4.00
9.00,1.00,263.56,-2.00,-62.06,-7.50,3.88,-0.19,38.66,4.00
9.00,2.00,278.81,-21.25,13.69,-6.75,4.50,1.31,38.66,4.00
9.00,0.00,228.69,5.44,-128.12,-10.88,0.88,-4.69,38.58,4.02
9.00,1.00,263.50,-2.00,-61.94,-7.19,3.62,0.00,38.58,4.02
9.00,2.00,278.81,-21.31,13.75,-6.69,4.19,1.25,38.58,4.02
9.00,0.00,228.88,5.38,-127.88,-11.19,0.38,-5.00,38.49,4.04
9.00,1.00,263.50,-2.06,-61.81,-7.94,3.62,0.19,38.49,4.04
9.00,2.00,278.75,-21.38,13.88,-6.69,3.94,1.12,38.49,4.04
9.00,0.00,229.25,5.31,-127.69,-10.88,1.69,-4.44,38.43,4.06
9.00,1.00,263.44,-2.06,-61.62,-8.19,4.25,0.62,38.43,4.06
9.00,2.00,278.69,-21.50,14.06,-7.56,4.69,1.56,38.43,4.06
9.00,0.00,229.31,5.31,-127.44,-11.56,3.81,-3.88,38.37,4.08
9.00,1.00,263.38,-2.12,-61.44,-8.75,4.56,1.12,38.37,4.08
9.00,2.00,278.69,-21.56,14.12,-8.25,4.19,2.12,38.37,4.08
9.00,0.00,229.44,5.31,-127.19,-12.06,4.69,-3.62,38.29,4.10
9.00,1.00,263.25,-2.12,-61.31,-9.31,4.69,1.31,38.29,4.10
9.00,2.00,278.62,-21.62,14.31,-8.31,4.19,2.25,38.29,4.10
9.00,0.00,229.38,5.31,-126.94,-12.50,5.75,-3.62,38.21,4.12
9.00,1.00,263.19,-2.19,-61.12,-9.31,5.19,1.38,38.21,4.12
9.00,2.00,278.50,-21.81,14.50,-8.00,4.81,2.12,38.21,4.12
9.00,0.00,229.25,5.31,-126.69,-12.31,5.56,-3.06,38.12,4.14
9.00,1.00,263.12,-2.19,-60.94,-9.06,4.75,1.06,38.12,4.14
9.00,2.00,278.50,-21.88,14.56,-7.75,4.38,2.75,38.12,4.14
9.00,0.00,229.38,5.38,-126.50,-11.62,5.56,-2.00,38.06,4.16
9.00,1.00,263.06,-2.25,-60.75,-8.56,4.06,0.81,38.06,4.16
9.00,2.00,278.38,-21.94,14.81,-8.75,3.44,1.81,38.06,4.16
9.00,0.00,229.31,5.38,-126.25,-11.31,4.25,-2.06,38.00,4.18
9.00,1.00,263.00,-2.25,-60.62,-8.38,3.94,-0.12,38.00,4.18
9.00,2.00,278.38,-22.00,14.88,-7.81,4.25,0.62,38.00,4.18
9.00,0.00,229.38,5.38,-126.00,-10.94,4.12,-2.06,37.93,4.20
9.00,1.00,262.94,-2.31,-60.44,-8.38,3.88,-0.44,37.93,4.20
9.00,2.00,278.31,-22.06,15.06,-7.69,4.50,0.88,37.93,4.20
9.00,0.00,229.31,5.38,-125.81,-10.31,3.38,-1.75,37.90,4.22
9.00,1.00,262.88,-2.38,-60.31,-8.62,3.56,-0.38,37.90,4.22
9.00,2.00,278.25,-22.19,15.31,-8.38,4.25,0.81,37.90,4.22
9.00,0.00,229.31,5.38,-125.62,-10.44,2.00,-1.62,37.85,4.24
9.00,1.00,262.88,-2.38,-60.12,-8.44,3.56,0.06,37.85,4.24
9.00,2.00,278.25,-22.25,15.38,-8.25,3.81,0.69,37.85,4.24
9.00,0.00,229.75,5.38,-125.38,-10.25,1.12,-1.56,37.82,4.26
9.00,1.00,262.81,-2.44,-60.00,-8.31,3.31,0.38,37.82,4.26
9.00,2.00,278.25,-22.38,15.62,-8.50,3.12,0.31,37.82,4.26
9.00,0.00,229.81,5.38,-125.19,-9.75,0.25,-1.69,37.79,4.28
9.00,1.00,262.81,-2.44,-59.81,-8.25,3.00,0.25,37.79,4.28
9.00,2.00,278.19,-22.38,15.69,-8.19,2.94,0.00,37.79,4.28
9.00,0.00,230.31,5.31,-125.00,-9.44,-0.62,-1.81,37.76,4.30
9.00,1.00,262.75,-2.50,-59.69,-7.31,2.25,-0.44,37.76,4.30
9.00,2.00,278.19,-22.44,15.88,-7.69,2.81,-0.12,37.76,4.30
9.00,0.00,230.44,5.31,-124.88,-8.19,-1.19,-1.25,37.72,4.32
9.00,1.00,262.75,-2.50,-59.50,-7.00,1.69,-0.62,37.72,4.32
9.00,2.00,278.19,-22.50,16.06,-6.00,3.56,-1.44,37.72,4.32
9.00,0.00,230.50,5.31,-124.69,-7.00,-1.75,-0.62,37.70,4.34
9.00,1.00,262.75,-2.56,-59.38,-7.06,1.56,-1.06,37.70,4.34
9.00,2.00,278.19,-22.50,16.19,-6.25,3.38,-1.50,37.70,4.34
9.00,0.00,230.75,5.31,-124.56,-5.81,-1.38,-0.06,37.70,4.36
9.00,1.00,262.75,-2.62,-59.25,-6.56,1.75,-1.31,37.70,4.36
9.00,2.00,278.25,-22.62,16.38,-5.88,3.00,-1.62,37.70,4.36
9.00,0.00,230.88,5.25,-124.50,-5.62,-1.81,0.25,37.69,4.38
9.00,1.00,262.75,-2.62,-59.12,-6.12,1.12,-0.94,37.69,4.38
9.00,2.00,278.25,-22.62,16.44,-5.00,2.12,-1.94,37.69,4.38
9.00,0.00,231.44,5.25,-124.38,-5.44,-2.38,0.62,37.68,4.40
9.00,1.00,262.75,-2.69,-59.00,-6.19,1.06,-0.62,37.68,4.40
9.00,2.00,278.25,-22.62,16.56,-5.00,1.56,-2.12,37.68,4.40
9.00,0.00,231.50,5.25,-124.31,-5.12,-2.06,0.81,37.68,4.42
9.00,1.00,262.75,-2.69,-58.88,-6.12,0.94,-0.75,37.68,4.42
9.00,2.00,278.31,-22.69,16.75,-4.81,0.88,-1.88,37.68,4.42
9.00,0.00,231.56,5.25,-124.19,-4.69,-1.44,0.69,37.67,4.44
9.00,1.00,262.75,-2.69,-58.75,-5.69,1.06,-0.62,37.67,4.44
9.00,2.00,278.31,-22.69,16.75,-4.56,0.81,-1.62,37.67,4.44
9.00,0.00,231.88,5.25,-124.12,-4.06,-1.38,0.69,37.68,4.46
9.00,1.00,262.75,-2.69,-58.69,-5.00,1.12,0.00,37.68,4.46
9.00,2.00,278.31,-22.69,16.94,-4.50,0.62,-1.06,37.68,4.46
9.00,0.00,231.94,5.25,-124.06,-3.50,-1.12,1.06,37.71,4.48
9.00,1.00,262.69,-2.75,-58.56,-5.06,1.31,-0.12,37.71,4.48
9.00,2.00,278.31,-22.69,17.00,-4.88,0.25,-1.12,37.71,4.48
9.00,0.00,232.44,5.25,-124.00,-3.69,-0.69,0.50,37.72,4.50
9.00,1.00,262.69,-2.75,-58.44,-5.25,1.38,-0.06,37.72,4.50
9.00,2.00,278.31,-22.69,17.06,-4.44,0.69,-0.94,37.72,4.50
9.00,0.00,232.44,5.25,-123.94,-3.69,-0.38,-0.06,37.74,4.52
9.00,1.00,262.69,-2.75,-58.38,-5.38,1.38,-0.25,37.74,4.52
9.00,2.00,278.31,-22.69,17.19,-4.44,0.81,-0.56,37.74,4.52
9.00,0.00,232.44,5.25,-123.88,-3.06,0.38,-0.31,37.76,4.54
9.00,1.00,262.62,-2.75,-58.25,-5.19,1.94,0.06,37.76,4.54
9.00,2.00,278.31,-22.69,17.25,-4.19,0.75,-0.12,37.76,4.54
9.00,0.00,232.88,5.25,-123.81,-2.94,1.00,-0.88,37.78,4.56
9.00,1.00,262.62,-2.81,-58.19,-4.81,2.19,0.19,37.78,4.56
9.00,2.00,278.31,-22.69,17.31,-3.94,0.94,0.44,37.78,4.56
9.00,0.00,232.88,5.25,-123.75,-3.19,1.50,-1.06,37.80,4.58
9.00,1.00,262.62,-2.81,-58.06,-4.88,2.25,0.56,37.80,4.58
9.00,2.00,278.25,-22.75,17.38,-4.50,1.56,1.12,37.80,4.58
9.00,0.00,233.12,5.25,-123.69,-2.88,2.88,-1.50,37.84,4.60
9.00,1.00,262.56,-2.81,-58.00,-4.88,2.56,0.50,37.84,4.60
9.00,2.00,278.25,-22.75,17.50,-4.62,0.69,1.19,37.84,4.60
9.00,0.00,233.12,5.25,-123.56,-3.12,2.81,-2.81,37.85,4.62
9.00,1.00,262.50,-2.88,-57.88,-4.38,2.56,0.69,37.85,4.62
9.00,2.00,278.19,-22.75,17.56,-3.69,-1.31,1.38,37.85,4.62
9.00,0.00,233.12,5.19,-123.50,-4.19,3.44,-5.31,37.83,4.64
9.00,1.00,262.50,-2.88,-57.81,-4.31,1.81,1.06,37.83,4.64
9.00,2.00,278.12,-22.75,17.62,-3.19,-1.12,1.50,37.83,4.64
9.00,0.00,233.44,5.12,-123.38,-5.31,3.75,-6.75,37.79,4.66
9.00,1.00,262.44,-2.88,-57.69,-5.06,1.25,1.19,37.79,4.66
9.00,2.00,278.12,-22.75,17.69,-3.31,0.69,0.50,37.79,4.66
9.00,0.00,233.38,5.06,-123.25,-5.00,5.38,-5.81,37.76,4.68
9.00,1.00,262.38,-2.88,-57.62,-5.12,1.31,1.00,37.76,4.68
9.00,2.00,278.06,-22.75,17.75,-3.50,1.12,1.00,37.76,4.68
9.00,0.00,233.56,5.06,-123.19,-3.75,5.25,-3.88,37.76,4.70
9.00,1.00,262.38,-2.88,-57.50,-4.75,1.31,1.12,37.76,4.70
9.00,2.00,278.06,-22.81,17.81,-3.75,1.25,1.56,37.76,4.70
9.00,0.00,233.50,5.06,-123.12,-2.56,4.94,-3.38,37.78,4.72
9.00,1.00,262.31,-2.88,-57.44,-4.25,1.69,1.31,37.78,4.72
9.00,2.00,278.00,-22.88,17.88,-3.38,2.06,2.06,37.78,4.72
9.00,0.00,233.38,5.06,-123.06,-2.00,5.94,-3.62,37.81,4.74
9.00,1.00,262.25,-2.88,-57.38,-3.38,2.62,1.31,37.81,4.74
9.00,2.00,277.94,-22.94,17.94,-3.56,2.69,2.69,37.81,4.74
9.00,0.00,233.31,5.06,-123.00,-2.69,5.31,-3.56,37.83,4.76
9.00,1.00,262.19,-2.88,-57.31,-3.62,3.12,1.50,37.83,4.76
9.00,2.00,277.88,-23.00,17.94,-3.88,2.94,3.12,37.83,4.76
9.00,0.00,233.25,5.06,-122.94,-3.50,3.38,-2.88,37.84,4.78
9.00,1.00,262.12,-2.88,-57.25,-3.56,3.88,1.81,37.84,4.78
9.00,2.00,277.81,-23.06,18.00,-4.06,3.19,3.31,37.84,4.78
9.00,0.00,233.25,5.06,-122.88,-3.25,1.69,-1.94,37.87,4.80
9.00,1.00,262.06,-2.88,-57.19,-3.69,4.50,1.94,37.87,4.80
9.00,2.00,277.69,-23.12,18.06,-4.56,2.56,4.31,37.87,4.80
9.00,0.00,233.25,5.00,-122.81,-2.69,-0.12,-1.25,37.90,4.82
9.00,1.00,261.94,-2.88,-57.12,-3.12,4.00,1.50,37.90,4.82
9.00,2.00,277.62,-23.19,18.12,-4.62,2.06,3.81,37.90,4.82
9.00,0.00,233.38,5.00,-122.75,-2.06,-2.31,-1.00,37.93,4.84
9.00,1.00,261.88,-2.94,-57.06,-2.69,3.50,1.12,37.93,4.84
9.00,2.00,277.56,-23.25,18.19,-3.25,2.06,3.25,37.93,4.84
9.00,0.00,233.38,5.00,-122.75,-1.38,-1.50,1.00,37.96,4.86
9.00,1.00,261.81,-2.94,-57.00,-3.25,3.75,0.75,37.96,4.86
9.00,2.00,277.50,-23.31,18.25,-3.06,3.00,2.25,37.96,4.86
9.00,0.00,233.31,5.06,-122.69,-1.12,-0.56,1.94,38.00,4.88
9.00,1.00,261.81,-3.00,-56.94,-3.31,3.75,0.12,38.00,4.88
9.00,2.00,277.44,-23.38,18.31,-3.06,2.56,1.94,38.00,4.88
9.00,0.00,233.19,5.12,-122.69,-0.50,0.12,2.25,38.05,4.90
9.00,1.00,261.75,-3.00,-56.88,-3.06,3.19,-0.25,38.05,4.90
9.00,2.00,277.44,-23.44,18.38,-3.12,2.00,1.56,38.05,4.90
9.00,0.00,233.12,5.19,-122.62,-0.25,-0.56,3.06,38.10,4.92
9.00,1.00,261.75,-3.06,-56.81,-2.69,2.19,-0.44,38.10,4.92
9.00,2.00,277.38,-23.50,18.38,-2.88,1.56,0.38,38.10,4.92
9.00,0.00,233.06,5.25,-122.62,0.00,-0.81,3.56,38.15,4.94
9.00,1.00,261.69,-3.06,-56.81,-2.06,1.31,-0.50,38.15,4.94
9.00,2.00,277.38,-23.50,18.44,-3.00,0.69,-1.06,38.15,4.94
9.00,0.00,233.06,5.31,-122.62,-0.19,-0.81,3.25,38.21,4.96
9.00,1.00,261.75,-3.06,-56.75,-2.12,0.31,-0.88,38.21,4.96
9.00,2.00,277.44,-23.50,18.56,-2.94,-0.19,-1.75,38.21,4.96
9.00,0.00,233.00,5.31,-122.62,-0.25,-0.94,3.12,38.24,4.98
9.00,1.00,261.75,-3.12,-56.69,-1.81,-0.56,-1.31,38.24,4.98
9.00,2.00,277.44,-23.50,18.62,-2.19,-0.06,-2.12,38.24,4.98
9.00,0.00,232.94,5.38,-122.62,0.06,-0.25,2.81,38.27,5.00
9.00,1.00,261.81,-3.12,-56.69,-1.50,-1.31,-1.62,38.27,5.00
9.00,2.00,277.50,-23.44,18.62,-1.31,-0.31,-2.88,38.27,5.00
9.00,0.00,232.88,5.44,-122.62,0.31,-0.62,2.81,38.28,5.02
9.00,1.00,261.81,-3.12,-56.62,-1.19,-1.06,-1.94,38.28,5.02
9.00,2.00,277.56,-23.44,18.69,-0.38,-0.19,-2.44,38.28,5.02
9.00,0.00,232.88,5.50,-122.62,-0.06,-1.38,2.62,38.30,5.04
9.00,1.00,261.88,-3.12,-56.62,-1.19,-0.75,-1.38,38.30,5.04
9.00,2.00,277.56,-23.44,18.69,-0.88,0.81,-1.69,38.30,5.04
9.00,0.00,232.81,5.50,-122.62,-1.00,-0.25,3.00,38.30,5.06
9.00,1.00,261.88,-3.19,-56.62,-1.88,0.25,-1.19,38.30,5.06
9.00,2.00,277.62,-23.44,18.69,-1.19,0.81,-1.19,38.30,5.06
9.00,0.00,232.75,5.56,-122.62,-1.12,0.75,3.19,38.30,5.08
9.00,1.00,261.94,-3.19,-56.56,-2.38,1.25,-1.19,38.30,5.08
9.00,2.00,277.62,-23.44,18.69,-1.06,0.38,-0.69,38.30,5.08
9.00,0.00,232.62,5.62,-122.56,-2.38,1.38,2.56,38.28,5.10
9.00,1.00,261.94,-3.25,-56.50,-2.31,2.19,-1.12,38.28,5.10
9.00,2.00,277.62,-23.44,18.69,-1.12,1.69,-0.06,38.28,5.10
9.00,0.00,232.56,5.69,-122.50,-3.81,2.06,1.94,38.22,5.12
9.00,1.00,261.88,-3.31,-56.44,-2.94,2.81,-0.88,38.22,5.12
9.00,2.00,277.62,-23.50,18.69,-1.00,2.69,0.06,38.22,5.12
9.00,0.00,232.50,5.75,-122.44,-4.06,1.00,1.38,38.17,5.14
9.00,1.00,261.88,-3.31,-56.38,-5.25,4.00,-0.25,38.17,5.14
9.00,2.00,277.62,-23.50,18.69,-1.50,2.56,0.94,38.17,5.14
