Iteration,IMUNo,OrientationX (deg),OrientationY,OrientationZ,GyroX (20rad/sec),GyroY,GyroZ,Elbow_Pos (rad),Time (sec)
14.00,0.00,275.62,-3.88,-79.62,0.38,-0.50,-0.44,0.01,1.02
14.00,1.00,292.19,-2.56,-57.25,0.00,0.25,-0.56,0.01,1.02
14.00,2.00,269.06,-1.62,28.19,0.19,0.44,-0.25,0.01,1.02
14.00,0.00,275.69,-3.88,-79.62,0.19,-1.19,-0.56,0.01,1.04
14.00,1.00,292.19,-2.56,-57.25,-0.12,0.50,-0.56,0.01,1.04
14.00,2.00,269.06,-1.62,28.19,0.00,0.56,-0.06,0.01,1.04
14.00,0.00,275.69,-3.94,-79.62,0.00,-1.31,-0.50,0.02,1.06
14.00,1.00,292.19,-2.56,-57.25,-0.38,0.38,-0.25,0.02,1.06
14.00,2.00,269.06,-1.62,28.19,-0.31,0.19,-0.12,0.02,1.06
14.00,0.00,275.69,-3.88,-79.62,0.12,-0.50,-0.25,0.03,1.08
14.00,1.00,292.19,-2.56,-57.25,-0.06,0.06,-0.25,0.03,1.08
14.00,2.00,269.06,-1.62,28.19,-0.12,-0.12,-0.12,0.03,1.08
14.00,0.00,275.69,-3.88,-79.62,0.19,-0.12,0.00,0.04,1.10
14.00,1.00,292.19,-2.56,-57.25,0.06,-0.31,-0.25,0.04,1.10
14.00,2.00,269.06,-1.62,28.19,0.00,-0.25,-0.31,0.04,1.10
14.00,0.00,275.69,-3.88,-79.62,0.25,0.19,0.19,0.04,1.12
14.00,1.00,292.19,-2.56,-57.25,-0.06,-0.50,-0.12,0.04,1.12
14.00,2.00,269.06,-1.62,28.19,0.00,-0.06,-0.25,0.04,1.12
14.00,0.00,275.69,-3.88,-79.62,0.06,0.00,0.25,0.04,1.14
14.00,1.00,292.19,-2.56,-57.25,-0.12,-0.19,0.00,0.04,1.14
14.00,2.00,269.06,-1.62,28.19,0.06,0.06,-0.12,0.04,1.14
14.00,0.00,275.69,-3.88,-79.62,0.19,-0.19,0.19,0.05,1.16
14.00,1.00,292.19,-2.56,-57.25,0.12,-0.06,-0.12,0.05,1.16
14.00,2.00,269.06,-1.62,28.19,0.06,0.25,-0.06,0.05,1.16
14.00,0.00,275.69,-3.88,-79.62,0.12,-0.19,0.06,0.05,1.18
14.00,1.00,292.19,-2.56,-57.25,-0.12,0.00,-0.12,0.05,1.18
14.00,2.00,269.06,-1.62,28.19,-0.06,0.06,0.31,0.05,1.18
14.00,0.00,275.69,-3.88,-79.62,-0.06,0.56,-0.06,0.05,1.20
14.00,1.00,292.19,-2.56,-57.25,-0.50,0.06,-0.31,0.05,1.20
14.00,2.00,269.06,-1.62,28.19,0.00,0.12,0.19,0.05,1.20
14.00,0.00,275.69,-3.94,-79.62,-0.19,0.88,-0.31,0.05,1.22
14.00,1.00,292.19,-2.56,-57.25,-0.31,0.19,-0.38,0.05,1.22
14.00,2.00,269.06,-1.62,28.19,0.00,0.25,0.25,0.05,1.22
14.00,0.00,275.69,-3.94,-79.62,0.00,0.12,-0.25,0.03,1.24
14.00,1.00,292.19,-2.62,-57.25,-0.06,0.62,-0.38,0.03,1.24
14.00,2.00,269.06,-1.62,28.19,0.38,0.25,0.31,0.03,1.24
14.00,0.00,275.69,-3.94,-79.62,0.19,-0.69,-0.19,0.04,1.26
14.00,1.00,292.19,-2.62,-57.25,-0.06,0.75,-0.19,0.04,1.26
14.00,2.00,269.06,-1.62,28.19,0.00,0.25,0.06,0.04,1.26
14.00,0.00,275.69,-3.88,-79.62,0.06,-0.94,-0.31,0.04,1.28
14.00,1.00,292.19,-2.62,-57.25,-0.06,0.81,-0.19,0.04,1.28
14.00,2.00,269.06,-1.62,28.19,0.19,0.19,0.12,0.04,1.28
14.00,0.00,275.69,-3.88,-79.62,-0.25,-0.56,-0.44,0.04,1.30
14.00,1.00,292.19,-2.62,-57.25,-0.06,0.44,-0.25,0.04,1.30
14.00,2.00,269.06,-1.62,28.19,-0.25,-0.19,0.38,0.04,1.30
14.00,0.00,275.69,-3.88,-79.62,-0.25,0.25,-0.25,0.04,1.32
14.00,1.00,292.19,-2.62,-57.25,0.00,0.12,-0.06,0.04,1.32
14.00,2.00,269.06,-1.62,28.19,-0.31,-0.38,0.25,0.04,1.32
14.00,0.00,275.69,-3.88,-79.62,-0.31,0.06,0.00,0.03,1.34
14.00,1.00,292.19,-2.62,-57.25,-0.19,-0.19,-0.31,0.03,1.34
14.00,2.00,269.06,-1.62,28.19,-0.12,-0.31,-0.12,0.03,1.34
14.00,0.00,275.69,-3.88,-79.62,0.06,-0.25,0.12,0.04,1.36
14.00,1.00,292.19,-2.62,-57.25,-0.25,0.06,-0.56,0.04,1.36
14.00,2.00,269.06,-1.62,28.19,-0.12,-0.06,-0.31,0.04,1.36
14.00,0.00,275.69,-3.88,-79.62,-0.19,-0.50,0.12,0.04,1.38
14.00,1.00,292.19,-2.62,-57.25,-0.31,0.06,-0.38,0.04,1.38
14.00,2.00,269.06,-1.62,28.19,-0.12,0.38,-0.31,0.04,1.38
14.00,0.00,275.75,-3.88,-79.62,-0.56,-0.75,0.06,0.03,1.40
14.00,1.00,292.19,-2.62,-57.25,-0.56,0.06,-0.38,0.03,1.40
14.00,2.00,269.06,-1.62,28.19,-0.38,0.19,-0.38,0.03,1.40
14.00,0.00,275.75,-3.88,-79.62,-0.31,-0.56,-0.19,0.03,1.42
14.00,1.00,292.19,-2.62,-57.25,-0.56,-0.31,-0.31,0.03,1.42
14.00,2.00,269.06,-1.62,28.19,-0.25,-0.25,-0.44,0.03,1.42
14.00,0.00,275.75,-3.88,-79.62,0.25,-0.38,-0.50,0.04,1.44
14.00,1.00,292.19,-2.62,-57.25,-0.25,0.06,-0.12,0.04,1.44
14.00,2.00,269.06,-1.62,28.19,-0.25,-0.12,-0.50,0.04,1.44
14.00,0.00,275.75,-3.94,-79.62,0.38,-0.38,-0.69,0.06,1.46
14.00,1.00,292.19,-2.62,-57.25,-0.50,-0.31,-0.12,0.06,1.46
14.00,2.00,269.06,-1.62,28.19,0.00,0.06,-0.38,0.06,1.46
14.00,0.00,275.75,-3.94,-79.62,0.19,-0.44,-0.62,0.07,1.48
14.00,1.00,292.19,-2.62,-57.25,-0.50,0.56,-0.19,0.07,1.48
14.00,2.00,269.06,-1.62,28.19,-0.19,0.56,0.06,0.07,1.48
14.00,0.00,275.75,-3.94,-79.62,-0.12,-0.81,-0.62,0.08,1.50
14.00,1.00,292.19,-2.62,-57.25,-0.75,0.56,-0.44,0.08,1.50
14.00,2.00,269.06,-1.62,28.19,-0.38,0.38,0.31,0.08,1.50
14.00,0.00,275.75,-3.94,-79.62,-0.44,-0.50,-0.50,0.07,1.52
14.00,1.00,292.19,-2.62,-57.25,-0.75,0.62,-0.31,0.07,1.52
14.00,2.00,269.06,-1.62,28.19,-0.25,0.00,0.38,0.07,1.52
14.00,0.00,275.75,-3.94,-79.62,-0.19,-0.50,-0.38,0.08,1.54
14.00,1.00,292.19,-2.62,-57.25,-0.81,0.50,-0.56,0.08,1.54
14.00,2.00,269.06,-1.62,28.19,-0.44,0.12,0.25,0.08,1.54
14.00,0.00,275.75,-3.94,-79.62,0.06,-0.56,-0.25,0.10,1.56
14.00,1.00,292.19,-2.62,-57.25,-0.75,0.31,-0.44,0.10,1.56
14.00,2.00,269.06,-1.62,28.19,-0.62,0.06,0.06,0.10,1.56
14.00,0.00,275.81,-3.94,-79.62,-0.12,-0.69,-0.50,0.11,1.58
14.00,1.00,292.19,-2.62,-57.19,-0.88,0.38,-0.62,0.11,1.58
14.00,2.00,269.06,-1.62,28.19,-0.50,0.38,0.38,0.11,1.58
14.00,0.00,275.81,-3.94,-79.62,-0.19,-0.81,-0.75,0.13,1.60
14.00,1.00,292.19,-2.62,-57.19,-0.81,0.44,-0.81,0.13,1.60
14.00,2.00,269.06,-1.62,28.19,-0.69,0.56,0.56,0.13,1.60
14.00,0.00,275.88,-3.94,-79.62,-0.25,-1.12,-1.00,0.14,1.62
14.00,1.00,292.19,-2.69,-57.19,-1.00,0.88,-0.62,0.14,1.62
14.00,2.00,269.06,-1.62,28.19,-0.75,0.50,0.25,0.14,1.62
14.00,0.00,275.88,-3.94,-79.62,-0.19,-1.50,-1.19,0.16,1.64
14.00,1.00,292.19,-2.69,-57.12,-1.12,0.75,-0.88,0.16,1.64
14.00,2.00,269.06,-1.62,28.25,-0.81,0.38,0.31,0.16,1.64
14.00,0.00,275.94,-4.00,-79.62,-0.12,-1.44,-1.44,0.20,1.66
14.00,1.00,292.25,-2.69,-57.12,-1.06,0.38,-1.12,0.20,1.66
14.00,2.00,269.06,-1.69,28.25,-1.12,0.88,0.38,0.20,1.66
14.00,0.00,276.00,-4.00,-79.62,-0.38,-1.38,-1.38,0.23,1.68
14.00,1.00,292.25,-2.75,-57.12,-1.12,0.75,-1.25,0.23,1.68
14.00,2.00,269.06,-1.69,28.25,-1.38,1.19,0.31,0.23,1.68
14.00,0.00,276.06,-4.00,-79.56,-0.62,-1.44,-1.44,0.27,1.70
14.00,1.00,292.25,-2.75,-57.06,-1.44,0.75,-1.38,0.27,1.70
14.00,2.00,269.06,-1.69,28.31,-1.75,1.19,0.38,0.27,1.70
14.00,0.00,276.12,-4.06,-79.56,-0.62,-2.38,-1.31,0.32,1.72
14.00,1.00,292.31,-2.81,-57.06,-2.19,0.88,-1.69,0.32,1.72
14.00,2.00,269.06,-1.69,28.31,-2.25,1.19,0.62,0.32,1.72
14.00,0.00,276.19,-4.06,-79.56,-0.69,-2.38,-1.56,0.37,1.74
14.00,1.00,292.31,-2.81,-57.00,-2.38,0.94,-1.88,0.37,1.74
14.00,2.00,269.06,-1.75,28.38,-2.38,1.25,0.50,0.37,1.74
14.00,0.00,276.25,-4.12,-79.56,-1.38,-2.62,-2.12,0.42,1.76
14.00,1.00,292.31,-2.88,-56.94,-2.44,0.81,-1.81,0.42,1.76
14.00,2.00,269.06,-1.75,28.44,-2.94,1.69,0.75,0.42,1.76
14.00,0.00,276.31,-4.12,-79.50,-1.62,-2.50,-2.44,0.47,1.78
14.00,1.00,292.38,-2.94,-56.88,-3.00,1.31,-2.00,0.47,1.78
14.00,2.00,269.06,-1.81,28.50,-3.00,2.19,0.56,0.47,1.78
14.00,0.00,276.44,-4.19,-79.50,-1.19,-2.19,-2.38,0.54,1.80
14.00,1.00,292.38,-2.94,-56.81,-3.56,1.62,-2.12,0.54,1.80
14.00,2.00,269.06,-1.88,28.56,-3.56,2.44,1.00,0.54,1.80
14.00,0.00,276.50,-4.19,-79.44,-0.94,-1.06,-2.56,0.64,1.82
14.00,1.00,292.44,-3.00,-56.75,-4.12,1.62,-2.25,0.64,1.82
14.00,2.00,269.06,-1.88,28.62,-3.94,2.56,1.00,0.64,1.82
14.00,0.00,276.56,-4.25,-79.44,-0.69,-0.25,-2.88,0.73,1.84
14.00,1.00,292.44,-3.06,-56.69,-4.75,1.25,-2.06,0.73,1.84
14.00,2.00,269.06,-1.94,28.69,-3.44,2.19,1.00,0.73,1.84
14.00,0.00,276.56,-4.31,-79.50,0.38,0.31,-2.56,0.84,1.86
14.00,1.00,292.44,-3.12,-56.56,-5.19,1.62,-1.62,0.84,1.86
14.00,2.00,269.00,-2.00,28.75,-3.19,2.06,1.25,0.84,1.86
14.00,0.00,276.56,-4.31,-79.56,2.06,1.56,-1.06,1.00,1.88
14.00,1.00,292.44,-3.12,-56.44,-4.94,1.38,-1.31,1.00,1.88
14.00,2.00,269.00,-2.06,28.81,-2.75,2.50,1.81,1.00,1.88
14.00,0.00,276.44,-4.25,-79.75,4.69,3.12,0.75,1.21,1.90
14.00,1.00,292.44,-3.19,-56.38,-5.69,2.56,-1.19,1.21,1.90
14.00,2.00,268.94,-2.12,28.88,-2.06,2.69,2.75,1.21,1.90
14.00,0.00,276.38,-4.19,-79.88,7.38,4.44,2.88,1.50,1.92
14.00,1.00,292.44,-3.25,-56.25,-6.06,3.88,-0.81,1.50,1.92
14.00,2.00,268.94,-2.19,28.88,-1.44,2.38,3.38,1.50,1.92
14.00,0.00,276.19,-4.12,-80.06,10.50,6.06,5.75,1.85,1.94
14.00,1.00,292.38,-3.25,-56.12,-4.81,3.56,-0.38,1.85,1.94
14.00,2.00,268.81,-2.31,28.94,-0.44,0.94,5.00,1.85,1.94
14.00,0.00,275.88,-4.00,-80.38,14.81,7.44,10.31,2.31,1.96
14.00,1.00,292.31,-3.31,-56.06,-4.00,4.25,0.31,2.31,1.96
14.00,2.00,268.69,-2.38,28.88,0.38,0.81,6.69,2.31,1.96
14.00,0.00,275.50,-3.75,-80.75,20.06,8.25,14.75,2.95,1.98
14.00,1.00,292.25,-3.38,-56.00,-4.88,6.31,0.62,2.95,1.98
14.00,2.00,268.56,-2.50,28.88,0.06,0.75,8.00,2.95,1.98
14.00,0.00,274.88,-3.25,-81.50,25.94,10.44,18.38,3.74,2.00
14.00,1.00,292.19,-3.44,-55.88,-4.06,5.69,1.69,3.74,2.00
14.00,2.00,268.38,-2.56,28.88,1.50,-0.94,9.75,3.74,2.00
14.00,0.00,274.19,-2.75,-82.31,33.81,9.44,23.62,4.77,2.02
14.00,1.00,292.06,-3.44,-55.81,-3.69,6.25,2.19,4.77,2.02
14.00,2.00,268.12,-2.69,28.81,1.69,-3.00,11.94,4.77,2.02
14.00,0.00,273.50,-2.19,-83.06,41.06,11.88,29.62,6.00,2.04
14.00,1.00,291.94,-3.50,-55.81,-1.56,5.81,3.00,6.00,2.04
14.00,2.00,267.81,-2.75,28.75,2.81,-6.88,13.06,6.00,2.04
14.00,0.00,272.62,-1.62,-83.94,45.44,15.31,33.88,7.29,2.06
14.00,1.00,291.81,-3.50,-55.81,-1.00,6.31,3.69,7.29,2.06
14.00,2.00,267.56,-2.75,28.69,5.19,-8.88,13.62,7.29,2.06
14.00,0.00,271.62,-0.94,-84.88,49.75,19.81,38.31,8.70,2.08
14.00,1.00,291.69,-3.50,-55.75,-1.44,6.69,4.69,8.70,2.08
14.00,2.00,267.19,-2.75,28.56,6.06,-10.00,14.81,8.70,2.08
14.00,0.00,270.44,-0.19,-85.94,55.06,24.38,42.12,10.23,2.10
14.00,1.00,291.50,-3.50,-55.75,-0.25,6.56,5.31,10.23,2.10
14.00,2.00,266.81,-2.69,28.38,7.25,-12.06,16.38,10.23,2.10
14.00,0.00,269.00,0.62,-87.12,62.00,28.19,46.94,11.93,2.12
14.00,1.00,291.31,-3.44,-55.81,1.12,6.56,5.38,11.93,2.12
14.00,2.00,266.44,-2.69,28.25,9.19,-13.38,18.00,11.93,2.12
14.00,0.00,267.44,1.56,-88.38,65.69,32.31,49.69,13.70,2.14
14.00,1.00,291.12,-3.44,-55.81,0.50,8.06,5.56,13.70,2.14
14.00,2.00,266.00,-2.62,28.00,10.56,-14.62,19.69,13.70,2.14
14.00,0.00,265.81,2.50,-89.62,67.69,35.56,49.56,15.52,2.16
14.00,1.00,290.94,-3.44,-55.88,2.44,9.06,6.19,15.52,2.16
14.00,2.00,265.50,-2.56,27.75,11.06,-15.44,21.88,15.52,2.16
14.00,0.00,264.00,3.50,-90.94,71.38,38.81,51.50,17.46,2.18
14.00,1.00,290.69,-3.44,-55.94,1.25,10.19,6.56,17.46,2.18
14.00,2.00,265.00,-2.50,27.50,10.88,-16.81,24.19,17.46,2.18
14.00,0.00,262.12,4.50,-92.31,72.50,40.19,51.25,19.43,2.20
14.00,1.00,290.44,-3.44,-55.94,0.94,11.44,7.19,19.43,2.20
14.00,2.00,264.38,-2.44,27.31,11.38,-18.12,25.19,19.43,2.20
14.00,0.00,260.19,5.50,-93.69,73.19,38.31,49.38,21.41,2.22
14.00,1.00,290.19,-3.44,-56.00,1.44,11.69,7.69,21.41,2.22
14.00,2.00,263.81,-2.31,27.06,11.38,-18.06,25.06,21.41,2.22
14.00,0.00,258.31,6.50,-95.00,73.56,36.31,48.75,23.44,2.24
14.00,1.00,289.88,-3.44,-56.00,1.25,12.19,8.00,23.44,2.24
14.00,2.00,263.25,-2.25,26.81,10.38,-18.19,25.06,23.44,2.24
14.00,0.00,256.56,7.44,-96.31,72.06,32.69,47.69,25.38,2.26
14.00,1.00,289.62,-3.50,-56.06,1.94,12.38,7.62,25.38,2.26
14.00,2.00,262.69,-2.19,26.56,11.88,-16.94,24.69,25.38,2.26
14.00,0.00,255.06,8.19,-97.56,69.38,27.19,45.38,27.24,2.28
14.00,1.00,289.38,-3.50,-56.12,2.31,12.88,7.44,27.24,2.28
14.00,2.00,262.19,-2.06,26.38,11.50,-16.38,24.31,27.24,2.28
14.00,0.00,254.38,8.56,-98.19,65.56,22.88,42.50,29.01,2.30
14.00,1.00,289.06,-3.50,-56.19,1.06,12.88,7.56,29.01,2.30
14.00,2.00,261.62,-2.00,26.12,10.38,-16.88,24.12,29.01,2.30
14.00,0.00,252.69,9.38,-99.69,62.38,18.38,38.44,30.70,2.32
14.00,1.00,288.81,-3.56,-56.25,0.88,12.62,7.00,30.70,2.32
14.00,2.00,261.12,-1.94,25.94,9.81,-17.00,21.94,30.70,2.32
14.00,0.00,252.25,9.56,-100.19,58.25,15.50,34.50,32.24,2.34
14.00,1.00,288.56,-3.56,-56.25,1.06,10.75,6.12,32.24,2.34
14.00,2.00,260.62,-1.81,25.81,10.19,-16.38,20.00,32.24,2.34
14.00,0.00,251.25,10.06,-101.12,54.38,12.88,30.00,33.66,2.36
14.00,1.00,288.38,-3.62,-56.31,0.69,8.62,5.19,33.66,2.36
14.00,2.00,260.25,-1.69,25.69,10.38,-14.00,17.06,33.66,2.36
14.00,0.00,250.12,10.69,-102.12,49.81,12.88,27.12,34.93,2.38
14.00,1.00,288.25,-3.62,-56.31,0.12,7.06,4.25,34.93,2.38
14.00,2.00,259.88,-1.56,25.50,10.06,-13.75,15.62,34.93,2.38
14.00,0.00,249.12,11.25,-103.06,45.75,12.88,24.56,36.10,2.40
14.00,1.00,288.12,-3.69,-56.31,0.94,5.56,3.56,36.10,2.40
14.00,2.00,259.56,-1.50,25.38,9.50,-11.88,14.31,36.10,2.40
14.00,0.00,248.12,11.75,-103.88,42.62,11.00,22.56,37.20,2.42
14.00,1.00,288.06,-3.69,-56.31,1.00,3.00,2.94,37.20,2.42
14.00,2.00,259.25,-1.38,25.25,8.44,-10.94,12.88,37.20,2.42
14.00,0.00,247.19,12.19,-104.69,38.81,10.81,20.69,38.19,2.44
14.00,1.00,288.00,-3.75,-56.31,1.44,0.88,1.88,38.19,2.44
14.00,2.00,259.00,-1.31,25.19,7.75,-10.50,10.44,38.19,2.44
14.00,0.00,246.31,12.62,-105.38,33.38,11.62,16.50,39.00,2.46
14.00,1.00,288.00,-3.75,-56.31,2.19,-1.38,0.75,39.00,2.46
14.00,2.00,258.81,-1.19,25.12,8.31,-9.25,7.62,39.00,2.46
14.00,0.00,245.56,13.00,-106.00,30.88,10.88,14.88,39.72,2.48
14.00,1.00,288.06,-3.75,-56.38,2.31,-2.19,-0.19,39.72,2.48
14.00,2.00,258.62,-1.06,25.00,8.31,-7.94,5.56,39.72,2.48
14.00,0.00,244.81,13.31,-106.56,29.00,10.50,14.56,40.43,2.50
14.00,1.00,288.12,-3.75,-56.38,1.31,-2.75,-0.75,40.43,2.50
14.00,2.00,258.56,-1.00,24.88,7.06,-8.00,2.94,40.43,2.50
14.00,0.00,244.25,13.56,-106.88,26.12,9.75,12.94,41.07,2.52
14.00,1.00,288.19,-3.75,-56.44,3.19,-3.94,-1.38,41.07,2.52
14.00,2.00,258.50,-0.88,24.75,6.25,-8.31,1.31,41.07,2.52
14.00,0.00,243.56,13.81,-107.38,24.44,9.69,12.19,41.66,2.54
14.00,1.00,288.25,-3.75,-56.44,3.00,-5.06,-1.31,41.66,2.54
14.00,2.00,258.44,-0.69,24.69,6.06,-8.62,0.19,41.66,2.54
14.00,0.00,242.94,14.12,-107.75,20.12,10.38,11.25,42.14,2.56
14.00,1.00,288.38,-3.69,-56.50,2.81,-5.50,-1.31,42.14,2.56
14.00,2.00,258.38,-0.56,24.62,5.25,-9.38,0.06,42.14,2.56
14.00,0.00,242.31,14.38,-108.12,15.12,10.44,8.94,42.45,2.58
14.00,1.00,288.44,-3.69,-56.56,2.81,-5.06,-1.44,42.45,2.58
14.00,2.00,258.38,-0.38,24.50,5.25,-9.50,-0.88,42.45,2.58
14.00,0.00,241.81,14.62,-108.38,13.69,9.44,8.38,42.73,2.60
14.00,1.00,288.50,-3.69,-56.56,2.75,-4.81,-1.25,42.73,2.60
14.00,2.00,258.31,-0.25,24.44,5.00,-8.06,-1.31,42.73,2.60
14.00,0.00,241.31,14.81,-108.56,13.25,6.44,9.56,43.04,2.62
14.00,1.00,288.62,-3.62,-56.62,2.44,-4.50,-0.94,43.04,2.62
14.00,2.00,258.31,-0.06,24.31,3.69,-8.00,-1.44,43.04,2.62
14.00,0.00,240.88,15.00,-108.81,12.81,6.00,10.06,43.37,2.64
14.00,1.00,288.62,-3.62,-56.62,2.62,-4.56,-0.75,43.37,2.64
14.00,2.00,258.31,0.00,24.31,2.69,-8.19,-2.12,43.37,2.64
14.00,0.00,240.50,15.25,-109.00,10.56,5.00,8.56,43.61,2.66
14.00,1.00,288.75,-3.56,-56.69,2.94,-4.56,-0.44,43.61,2.66
14.00,2.00,258.38,0.19,24.25,2.94,-7.75,-2.31,43.61,2.66
14.00,0.00,240.19,15.38,-109.19,7.44,4.94,7.25,43.75,2.68
14.00,1.00,288.81,-3.50,-56.75,3.06,-4.75,0.00,43.75,2.68
14.00,2.00,258.38,0.31,24.19,3.06,-7.19,-1.69,43.75,2.68
14.00,0.00,239.88,15.56,-109.25,5.44,4.19,5.50,43.84,2.70
14.00,1.00,288.81,-3.50,-56.81,3.31,-4.19,0.19,43.84,2.70
14.00,2.00,258.38,0.44,24.12,2.75,-6.44,-0.69,43.84,2.70
14.00,0.00,239.62,15.69,-109.44,7.75,2.88,6.50,43.99,2.72
14.00,1.00,288.88,-3.44,-56.88,3.06,-3.62,0.44,43.99,2.72
14.00,2.00,258.31,0.56,24.06,3.06,-6.44,-0.44,43.99,2.72
14.00,0.00,239.38,15.81,-109.56,8.19,2.81,7.75,44.14,2.74
14.00,1.00,288.88,-3.38,-56.94,3.12,-3.50,0.19,44.14,2.74
14.00,2.00,258.31,0.69,24.00,3.50,-6.25,-0.44,44.14,2.74
14.00,0.00,239.06,16.00,-109.69,6.69,3.44,7.38,44.22,2.76
14.00,1.00,288.94,-3.38,-57.00,3.62,-2.88,0.19,44.22,2.76
14.00,2.00,258.25,0.81,23.94,4.00,-5.75,-0.12,44.22,2.76
14.00,0.00,238.75,16.12,-109.81,6.88,4.44,7.44,44.30,2.78
14.00,1.00,289.00,-3.31,-57.06,4.06,-2.25,0.38,44.30,2.78
14.00,2.00,258.25,0.88,23.88,4.69,-5.62,0.69,44.30,2.78
14.00,0.00,238.38,16.31,-109.94,8.19,5.81,8.44,44.41,2.80
14.00,1.00,289.00,-3.31,-57.12,3.81,-1.00,0.81,44.41,2.80
14.00,2.00,258.19,1.00,23.75,4.69,-5.25,1.38,44.41,2.80
14.00,0.00,238.00,16.56,-110.12,8.12,6.00,8.81,44.52,2.82
14.00,1.00,289.00,-3.31,-57.25,3.56,-0.50,1.12,44.52,2.82
14.00,2.00,258.12,1.06,23.69,4.56,-5.06,1.94,44.52,2.82
14.00,0.00,237.56,16.75,-110.25,6.88,6.56,8.75,44.59,2.84
14.00,1.00,288.94,-3.25,-57.25,3.75,-0.38,0.94,44.59,2.84
14.00,2.00,258.06,1.12,23.56,4.69,-4.56,2.19,44.59,2.84
14.00,0.00,237.19,16.94,-110.38,6.31,5.31,8.88,44.65,2.86
14.00,1.00,288.94,-3.25,-57.38,3.69,0.50,1.19,44.65,2.86
14.00,2.00,258.00,1.19,23.50,4.44,-4.62,2.94,44.65,2.86
14.00,0.00,236.88,17.12,-110.50,6.62,4.31,9.69,44.74,2.88
14.00,1.00,288.94,-3.25,-57.44,4.25,1.38,1.31,44.74,2.88
14.00,2.00,257.94,1.25,23.38,4.00,-3.94,3.50,44.74,2.88
14.00,0.00,236.50,17.38,-110.62,6.19,4.19,9.94,44.81,2.90
14.00,1.00,288.88,-3.25,-57.50,5.00,2.69,1.50,44.81,2.90
14.00,2.00,257.88,1.25,23.31,3.94,-2.75,3.19,44.81,2.90
14.00,0.00,236.19,17.56,-110.69,5.50,3.44,9.69,44.85,2.92
14.00,1.00,288.81,-3.25,-57.69,3.81,2.38,1.75,44.85,2.92
14.00,2.00,257.75,1.31,23.25,4.12,-1.81,3.12,44.85,2.92
14.00,0.00,235.81,17.75,-110.81,6.12,2.44,10.06,44.92,2.94
14.00,1.00,288.75,-3.25,-57.69,3.25,2.44,1.44,44.92,2.94
14.00,2.00,257.69,1.31,23.12,4.00,-1.44,3.19,44.92,2.94
14.00,0.00,235.50,17.94,-110.94,5.50,2.31,10.69,44.97,2.96
14.00,1.00,288.69,-3.25,-57.81,2.75,3.31,0.88,44.97,2.96
14.00,2.00,257.62,1.31,23.06,4.00,-0.94,3.38,44.97,2.96
14.00,0.00,235.19,18.19,-111.06,4.88,2.44,10.75,45.01,2.98
14.00,1.00,288.69,-3.25,-57.88,2.38,3.81,0.88,45.01,2.98
14.00,2.00,257.56,1.25,23.00,3.62,-0.75,3.62,45.01,2.98
14.00,0.00,234.88,18.38,-111.12,3.50,2.56,10.38,45.02,3.00
14.00,1.00,288.62,-3.31,-57.94,2.00,4.12,0.94,45.02,3.00
14.00,2.00,257.50,1.25,22.94,3.06,-0.38,3.75,45.02,3.00
14.00,0.00,234.62,18.56,-111.19,2.50,2.06,9.62,45.01,3.02
14.00,1.00,288.56,-3.31,-57.94,1.25,4.25,0.88,45.01,3.02
14.00,2.00,257.44,1.25,22.88,2.88,0.00,3.69,45.01,3.02
14.00,0.00,234.38,18.75,-111.25,2.12,1.25,9.44,44.99,3.04
14.00,1.00,288.50,-3.31,-58.00,1.31,4.25,1.19,44.99,3.04
14.00,2.00,257.38,1.19,22.81,2.94,0.12,3.62,44.99,3.04
14.00,0.00,234.19,18.94,-111.31,1.00,0.69,9.31,44.93,3.06
14.00,1.00,288.38,-3.38,-58.06,0.94,4.81,1.31,44.93,3.06
14.00,2.00,257.25,1.19,22.75,2.88,-0.25,3.69,44.93,3.06
14.00,0.00,234.00,19.06,-111.31,-0.38,1.25,8.44,44.84,3.08
14.00,1.00,288.31,-3.38,-58.06,0.50,4.81,1.44,44.84,3.08
14.00,2.00,257.19,1.12,22.69,2.31,-0.19,3.56,44.84,3.08
14.00,0.00,233.88,19.19,-111.31,-1.19,0.50,7.69,44.73,3.10
14.00,1.00,288.25,-3.44,-58.06,0.56,4.25,1.88,44.73,3.10
14.00,2.00,257.12,1.12,22.69,2.19,-0.56,3.50,44.73,3.10
14.00,0.00,233.75,19.31,-111.31,-1.38,0.44,7.25,44.63,3.12
14.00,1.00,288.19,-3.44,-58.06,0.69,4.06,1.81,44.63,3.12
14.00,2.00,257.06,1.12,22.62,1.69,-1.50,3.75,44.63,3.12
14.00,0.00,233.62,19.44,-111.31,-1.75,0.38,6.31,44.53,3.14
14.00,1.00,288.06,-3.44,-58.12,0.44,3.75,1.94,44.53,3.14
14.00,2.00,257.00,1.12,22.62,1.38,-1.38,3.75,44.53,3.14
14.00,0.00,233.56,19.50,-111.31,-2.19,-0.31,5.31,44.44,3.16
14.00,1.00,288.00,-3.44,-58.12,-0.50,3.62,2.06,44.44,3.16
14.00,2.00,256.88,1.06,22.62,0.69,-0.94,4.00,44.44,3.16
14.00,0.00,233.56,19.56,-111.25,-2.31,-0.94,4.38,44.36,3.18
14.00,1.00,287.94,-3.44,-58.12,-0.88,3.62,1.94,44.36,3.18
14.00,2.00,256.81,1.06,22.62,0.25,-0.69,3.38,44.36,3.18
14.00,0.00,233.56,19.62,-111.25,-2.56,-1.06,3.44,44.25,3.20
14.00,1.00,287.88,-3.44,-58.12,-0.88,3.44,1.62,44.25,3.20
14.00,2.00,256.75,1.06,22.56,0.88,-0.56,3.00,44.25,3.20
14.00,0.00,233.62,19.62,-111.19,-2.62,-1.56,2.69,44.17,3.22
14.00,1.00,287.81,-3.44,-58.06,-0.81,3.19,1.69,44.17,3.22
14.00,2.00,256.69,1.06,22.62,-0.12,-1.19,3.31,44.17,3.22
14.00,0.00,233.62,19.69,-111.12,-2.81,-2.06,1.94,44.08,3.24
14.00,1.00,287.75,-3.44,-58.06,-1.25,3.31,1.69,44.08,3.24
14.00,2.00,256.62,1.06,22.62,-0.25,-0.44,2.94,44.08,3.24
14.00,0.00,233.75,19.69,-111.12,-3.38,-2.00,1.19,44.00,3.26
14.00,1.00,287.62,-3.50,-58.06,-1.38,3.12,1.62,44.00,3.26
14.00,2.00,256.56,1.00,22.62,-0.75,-0.44,2.62,44.00,3.26
14.00,0.00,233.81,19.69,-111.06,-3.75,-0.69,0.50,43.90,3.28
14.00,1.00,287.62,-3.50,-58.06,-1.31,2.19,1.38,43.90,3.28
14.00,2.00,256.56,1.00,22.62,-0.69,-0.62,2.31,43.90,3.28
14.00,0.00,233.81,19.69,-110.94,-4.25,-0.06,-0.06,43.79,3.30
14.00,1.00,287.56,-3.50,-58.00,-1.50,2.12,1.12,43.79,3.30
14.00,2.00,256.50,1.00,22.69,-0.88,-0.31,2.12,43.79,3.30
14.00,0.00,233.88,19.62,-110.88,-4.19,0.12,-0.25,43.70,3.32
14.00,1.00,287.50,-3.50,-58.00,-2.31,1.81,0.69,43.70,3.32
14.00,2.00,256.44,1.00,22.69,-1.44,0.12,1.81,43.70,3.32
14.00,0.00,233.94,19.62,-110.81,-4.25,0.44,-0.38,43.61,3.34
14.00,1.00,287.50,-3.50,-57.94,-2.38,1.50,0.00,43.61,3.34
14.00,2.00,256.44,1.00,22.75,-1.31,0.31,1.12,43.61,3.34
14.00,0.00,233.94,19.69,-110.69,-4.19,0.75,-0.12,43.51,3.36
14.00,1.00,287.50,-3.50,-57.88,-2.12,1.12,-0.50,43.51,3.36
14.00,2.00,256.44,1.00,22.75,-0.94,0.31,0.44,43.51,3.36
14.00,0.00,233.94,19.69,-110.62,-3.81,1.38,-0.31,43.42,3.38
14.00,1.00,287.50,-3.56,-57.88,-2.19,1.06,-0.50,43.42,3.38
14.00,2.00,256.44,1.00,22.81,-1.12,0.00,0.81,43.42,3.38
14.00,0.00,234.00,19.62,-110.56,-3.81,1.00,-0.69,43.34,3.40
14.00,1.00,287.50,-3.56,-57.81,-2.25,0.75,-0.50,43.34,3.40
14.00,2.00,256.38,1.00,22.81,-1.38,-0.12,1.00,43.34,3.40
14.00,0.00,234.06,19.62,-110.50,-3.56,0.12,-1.12,43.27,3.42
14.00,1.00,287.44,-3.56,-57.75,-2.44,1.06,-0.56,43.27,3.42
14.00,2.00,256.38,1.00,22.88,-1.38,0.44,0.94,43.27,3.42
14.00,0.00,234.12,19.62,-110.44,-2.81,-0.31,-0.94,43.22,3.44
14.00,1.00,287.44,-3.56,-57.69,-2.25,1.00,-0.81,43.22,3.44
14.00,2.00,256.38,0.94,22.88,-1.25,1.00,0.62,43.22,3.44
14.00,0.00,234.12,19.56,-110.38,-2.12,0.19,-0.88,43.19,3.46
14.00,1.00,287.44,-3.62,-57.69,-2.25,0.81,-0.81,43.19,3.46
14.00,2.00,256.38,0.94,22.88,-1.06,0.62,0.81,43.19,3.46
14.00,0.00,234.19,19.56,-110.38,-1.75,0.62,-0.69,43.16,3.48
14.00,1.00,287.50,-3.62,-57.62,-1.81,0.94,-0.62,43.16,3.48
14.00,2.00,256.31,0.94,22.94,-1.06,0.75,1.12,43.16,3.48
14.00,0.00,234.19,19.56,-110.31,-1.56,0.94,-0.81,43.14,3.50
14.00,1.00,287.44,-3.62,-57.62,-1.62,1.06,-0.19,43.14,3.50
14.00,2.00,256.31,0.88,22.94,-0.88,0.06,1.88,43.14,3.50
14.00,0.00,234.12,19.56,-110.31,-1.44,1.56,-0.56,43.12,3.52
14.00,1.00,287.44,-3.62,-57.56,-1.69,1.44,-0.12,43.12,3.52
14.00,2.00,256.25,0.88,22.94,-0.62,0.12,2.06,43.12,3.52
14.00,0.00,234.06,19.56,-110.25,-1.62,2.44,-0.62,43.08,3.54
14.00,1.00,287.44,-3.69,-57.56,-2.00,2.19,0.06,43.08,3.54
14.00,2.00,256.19,0.88,22.94,-0.38,0.50,2.50,43.08,3.54
14.00,0.00,234.06,19.62,-110.25,-1.62,2.75,-0.69,43.04,3.56
14.00,1.00,287.38,-3.69,-57.50,-1.62,2.44,0.31,43.04,3.56
14.00,2.00,256.19,0.81,22.94,-0.44,0.50,3.06,43.04,3.56
14.00,0.00,234.00,19.62,-110.19,-1.62,3.06,-0.50,42.99,3.58
14.00,1.00,287.38,-3.75,-57.50,-1.56,2.69,0.56,42.99,3.58
14.00,2.00,256.06,0.81,22.94,-0.06,0.31,3.31,42.99,3.58
14.00,0.00,233.94,19.62,-110.12,-1.69,3.38,-0.75,42.94,3.60
14.00,1.00,287.31,-3.75,-57.44,-1.69,3.19,0.81,42.94,3.60
14.00,2.00,256.00,0.81,22.94,-0.12,0.31,3.94,42.94,3.60
14.00,0.00,233.81,19.69,-110.06,-2.25,4.19,-0.44,42.87,3.62
14.00,1.00,287.25,-3.75,-57.44,-1.56,3.44,1.00,42.87,3.62
14.00,2.00,255.94,0.75,22.94,-0.12,0.31,4.81,42.87,3.62
14.00,0.00,233.75,19.69,-110.00,-2.88,4.38,-0.19,42.78,3.64
14.00,1.00,287.19,-3.81,-57.38,-1.38,3.88,1.25,42.78,3.64
14.00,2.00,255.81,0.69,22.94,-0.12,0.56,5.31,42.78,3.64
14.00,0.00,233.69,19.75,-109.88,-2.94,4.06,-0.06,42.69,3.66
14.00,1.00,287.12,-3.81,-57.38,-1.69,4.06,1.62,42.69,3.66
14.00,2.00,255.75,0.69,22.94,-0.25,0.31,5.00,42.69,3.66
14.00,0.00,233.62,19.75,-109.81,-3.56,3.75,0.06,42.58,3.68
14.00,1.00,287.06,-3.81,-57.38,-1.25,4.50,1.62,42.58,3.68
14.00,2.00,255.62,0.62,22.94,0.12,-0.12,5.00,42.58,3.68
14.00,0.00,233.56,19.75,-109.69,-4.00,4.12,0.50,42.46,3.70
14.00,1.00,286.94,-3.88,-57.31,-1.31,3.94,1.75,42.46,3.70
14.00,2.00,255.56,0.56,23.00,-0.38,-0.25,4.94,42.46,3.70
14.00,0.00,233.50,19.81,-109.62,-4.00,3.38,0.50,42.35,3.72
14.00,1.00,286.88,-3.88,-57.31,-1.25,3.50,1.56,42.35,3.72
14.00,2.00,255.44,0.56,23.00,-0.56,-0.62,4.38,42.35,3.72
14.00,0.00,233.44,19.81,-109.56,-2.44,2.00,2.00,42.29,3.74
14.00,1.00,286.81,-3.88,-57.31,-0.94,2.88,1.06,42.29,3.74
14.00,2.00,255.38,0.56,23.00,-0.69,-0.25,3.50,42.29,3.74
14.00,0.00,233.38,19.88,-109.50,-2.44,1.25,2.50,42.24,3.76
14.00,1.00,286.81,-3.88,-57.31,-1.50,2.69,0.75,42.24,3.76
14.00,2.00,255.31,0.50,23.00,-0.75,0.12,1.88,42.24,3.76
14.00,0.00,233.31,19.94,-109.44,-1.94,0.75,3.12,42.18,3.78
14.00,1.00,286.75,-3.88,-57.25,-1.06,1.94,0.56,42.18,3.78
14.00,2.00,255.31,0.50,23.00,-0.19,-0.06,1.12,42.18,3.78
14.00,0.00,233.25,20.00,-109.38,-2.38,1.00,3.50,42.09,3.80
14.00,1.00,286.75,-3.94,-57.25,-0.75,1.25,0.56,42.09,3.80
14.00,2.00,255.25,0.50,23.00,0.56,0.12,1.38,42.09,3.80
14.00,0.00,233.19,20.06,-109.38,-2.25,1.44,3.69,41.99,3.82
14.00,1.00,286.75,-3.94,-57.25,-0.94,1.38,0.44,41.99,3.82
14.00,2.00,255.25,0.50,23.00,0.81,-0.12,1.25,41.99,3.82
14.00,0.00,233.06,20.19,-109.31,-2.38,2.12,4.25,41.89,3.84
14.00,1.00,286.69,-3.94,-57.19,-0.94,1.00,0.44,41.89,3.84
14.00,2.00,255.25,0.50,23.00,0.81,-0.88,1.06,41.89,3.84
14.00,0.00,232.94,20.31,-109.25,-2.12,2.50,4.75,41.79,3.86
14.00,1.00,286.69,-3.94,-57.19,-0.88,0.75,0.19,41.79,3.86
14.00,2.00,255.19,0.50,22.94,0.88,-0.94,0.44,41.79,3.86
14.00,0.00,232.81,20.38,-109.25,-1.75,2.62,4.69,41.71,3.88
14.00,1.00,286.69,-3.94,-57.19,-0.88,0.50,0.25,41.71,3.88
14.00,2.00,255.19,0.50,22.94,0.69,-0.69,0.50,41.71,3.88
14.00,0.00,232.69,20.50,-109.19,-1.75,2.56,4.38,41.64,3.90
14.00,1.00,286.69,-3.94,-57.19,-0.62,0.75,0.38,41.64,3.90
14.00,2.00,255.19,0.50,22.94,0.50,-0.50,0.44,41.64,3.90
14.00,0.00,232.62,20.50,-109.19,-2.12,2.44,4.00,41.56,3.92
14.00,1.00,286.69,-4.00,-57.12,-0.81,1.06,0.31,41.56,3.92
14.00,2.00,255.19,0.50,22.94,0.31,-0.56,0.75,41.56,3.92
14.00,0.00,232.50,20.62,-109.12,-2.31,2.19,3.38,41.49,3.94
14.00,1.00,286.69,-4.00,-57.12,-0.12,0.81,0.38,41.49,3.94
14.00,2.00,255.19,0.50,22.94,-0.06,-1.00,1.19,41.49,3.94
14.00,0.00,232.44,20.69,-109.06,-2.38,2.31,2.69,41.43,3.96
14.00,1.00,286.69,-4.00,-57.12,0.06,0.06,0.12,41.43,3.96
14.00,2.00,255.12,0.56,22.94,-0.62,-0.75,0.75,41.43,3.96
14.00,0.00,232.38,20.69,-108.94,-2.31,2.25,1.88,41.38,3.98
14.00,1.00,286.69,-4.00,-57.12,-0.44,0.12,0.06,41.38,3.98
14.00,2.00,255.12,0.56,23.00,-0.50,-0.50,-0.06,41.38,3.98
14.00,0.00,232.44,20.69,-108.88,-2.56,1.62,0.12,41.33,4.00
14.00,1.00,286.69,-4.00,-57.12,0.19,-0.38,-0.38,41.33,4.00
14.00,2.00,255.19,0.56,23.06,-1.19,-0.88,-1.19,41.33,4.00
14.00,0.00,232.56,20.62,-108.69,-2.81,0.12,-1.69,41.30,4.02
14.00,1.00,286.69,-4.00,-57.12,0.38,-1.38,-0.81,41.30,4.02
14.00,2.00,255.19,0.62,23.12,-1.88,0.25,-2.75,41.30,4.02
14.00,0.00,232.75,20.50,-108.56,-2.62,-1.69,-2.62,41.29,4.04
14.00,1.00,286.75,-4.00,-57.19,1.25,-2.62,-1.56,41.29,4.04
14.00,2.00,255.25,0.62,23.19,-2.12,0.81,-4.12,41.29,4.04
14.00,0.00,233.06,20.31,-108.44,-2.94,-2.81,-3.06,41.27,4.06
14.00,1.00,286.81,-4.00,-57.19,1.38,-2.94,-1.69,41.27,4.06
14.00,2.00,255.38,0.62,23.31,-2.50,1.25,-5.19,41.27,4.06
